"view_history","rt","trial_type","trial_index","time_elapsed","internal_node_id","subject","stimulus_type","trial_stimulus","key_press","minimum_viewing_duration","trial_looking_time","block_deviant","block_background","exposure_type","stimulus","block_number","block_type","stimulus_displayed","responses","question_order","math_correct_answer","stimulus_left","stimulus_right"
"[{""page_index"":0,""viewing_time"":1591471}]","1591472","instructions","0","1591475","0.0-0.0","SS1619739888340","","","","","","","","","","","","","","","","",""
"[{""page_index"":0,""viewing_time"":8115},{""page_index"":1,""viewing_time"":6357}]","14473","instructions","1","1607959","0.0-1.0","SS1619739888340","instructions","","","","","","","","","","","","","","","",""
"","11041","sequential-stimulus-presentation-old","2","1619515","0.0-2.0","SS1619739888340","","","40","500","11541","null","null","self_paced","","","","","","","","",""
"","4735","sequential-stimulus-presentation-old","3","1624767","0.0-3.0","SS1619739888340","","","40","500","5235","null","null","self_paced","","","","","","","","",""
"[{""page_index"":0,""viewing_time"":10657}]","10657","instructions","4","1635426","0.0-4.0","SS1619739888340","instructions","","","","","","","","","","","","","","","",""
"","944","sequential-stimulus-presentation-old","5","1651375","0.0-5.0","SS1619739888340","","","40","500","1444","null","null","forced_long","","","","","","","","",""
"","1167","sequential-stimulus-presentation-old","6","1653055","0.0-6.0","SS1619739888340","","","40","500","1667","null","null","forced_long","","","","","","","","",""
"[{""page_index"":0,""viewing_time"":2279}]","2279","instructions","7","1655337","0.0-7.0","SS1619739888340","instructions","","","","","","","","","","","","","","","",""
"[{""page_index"":0,""viewing_time"":6834},{""page_index"":1,""viewing_time"":6616},{""page_index"":2,""viewing_time"":2651},{""page_index"":3,""viewing_time"":1543},{""page_index"":4,""viewing_time"":1808}]","19452","instructions","8","1674791","0.0-8.0","SS1619739888340","instructions","","","","","","","","","","","","","","","",""
"","null","html-keyboard-response","9","1675970","0.0-9.0-0.0","SS1619739888340","","","null","","","","","","<p><img src= images/blank.png width =""600"" height = ""600"" style=""position:fixed;top:50%; left:50%; transform: translate(-50%, -50%); border:5px solid black"">","","","","","","","",""
"","17878","sequential-stimulus-presentation-old","10","1694352","0.0-9.0-1.0","SS1619739888340","trial","","40","500","18378","images/stimuli/spore_stims/simple_18_A_a.gif","images/stimuli/spore_stims/simple_15_A_b.gif","self_paced","","0","simple_dissimilar","images/stimuli/spore_stims/simple_15_A_b.gif","","","","",""
"","null","html-keyboard-response","11","1695514","0.0-9.0-0.1","SS1619739888340","","","null","","","","","","<p><img src= images/blank.png width =""600"" height = ""600"" style=""position:fixed;top:50%; left:50%; transform: translate(-50%, -50%); border:5px solid black"">","","","","","","","",""
"","5832","sequential-stimulus-presentation-old","12","1701856","0.0-9.0-1.1","SS1619739888340","trial","","40","500","6332","images/stimuli/spore_stims/simple_18_A_a.gif","images/stimuli/spore_stims/simple_15_A_b.gif","self_paced","","0","simple_dissimilar","images/stimuli/spore_stims/simple_18_A_a.gif","","","","",""
"","null","html-keyboard-response","13","1703019","0.0-9.0-0.2","SS1619739888340","","","null","","","","","","<p><img src= images/blank.png width =""600"" height = ""600"" style=""position:fixed;top:50%; left:50%; transform: translate(-50%, -50%); border:5px solid black"">","","","","","","","",""
"","2915","sequential-stimulus-presentation-old","14","1706449","0.0-9.0-1.2","SS1619739888340","trial","","40","500","3415","images/stimuli/spore_stims/simple_18_A_a.gif","images/stimuli/spore_stims/simple_15_A_b.gif","self_paced","","0","simple_dissimilar","images/stimuli/spore_stims/simple_15_A_b.gif","","","","",""
"","null","html-keyboard-response","15","1707553","0.0-9.0-0.3","SS1619739888340","","","null","","","","","","<p><img src= images/blank.png width =""600"" height = ""600"" style=""position:fixed;top:50%; left:50%; transform: translate(-50%, -50%); border:5px solid black"">","","","","","","","",""
"","2145","sequential-stimulus-presentation-old","16","1710209","0.0-9.0-1.3","SS1619739888340","trial","","40","500","2645","images/stimuli/spore_stims/simple_18_A_a.gif","images/stimuli/spore_stims/simple_15_A_b.gif","self_paced","","0","simple_dissimilar","images/stimuli/spore_stims/simple_15_A_b.gif","","","","",""
"","null","html-keyboard-response","17","1711268","0.0-9.0-0.4","SS1619739888340","","","null","","","","","","<p><img src= images/blank.png width =""600"" height = ""600"" style=""position:fixed;top:50%; left:50%; transform: translate(-50%, -50%); border:5px solid black"">","","","","","","","",""
"","1289","sequential-stimulus-presentation-old","18","1713070","0.0-9.0-1.4","SS1619739888340","trial","","40","500","1789","images/stimuli/spore_stims/simple_18_A_a.gif","images/stimuli/spore_stims/simple_15_A_b.gif","self_paced","","0","simple_dissimilar","images/stimuli/spore_stims/simple_15_A_b.gif","","","","",""
"","null","html-keyboard-response","19","1714147","0.0-9.0-0.5","SS1619739888340","","","null","","","","","","<p><img src= images/blank.png width =""600"" height = ""600"" style=""position:fixed;top:50%; left:50%; transform: translate(-50%, -50%); border:5px solid black"">","","","","","","","",""
"","2638","sequential-stimulus-presentation-old","20","1717288","0.0-9.0-1.5","SS1619739888340","trial","","40","500","3138","images/stimuli/spore_stims/simple_18_A_a.gif","images/stimuli/spore_stims/simple_15_A_b.gif","self_paced","","0","simple_dissimilar","images/stimuli/spore_stims/simple_18_A_a.gif","","","","",""
"","3127","survey-multi-choice","21","1720417","0.0-10.0","SS1619739888340","math_question","","","","","","","","","","","","{""Q0"":""6""}","[0]","6","",""
"","null","html-keyboard-response","22","1721671","0.0-11.0-0.0","SS1619739888340","","","null","","","","","","<p><img src= images/blank.png width =""600"" height = ""600"" style=""position:fixed;top:50%; left:50%; transform: translate(-50%, -50%); border:5px solid black"">","","","","","","","",""
"","4042","sequential-stimulus-presentation-old","23","1726221","0.0-11.0-1.0","SS1619739888340","trial","","40","500","4542","images/stimuli/spore_stims/simple_01_A_b.gif","images/stimuli/spore_stims/simple_20_A_a.gif","self_paced","","1","simple_dissimilar","images/stimuli/spore_stims/simple_20_A_a.gif","","","","",""
"","null","html-keyboard-response","24","1727258","0.0-11.0-0.1","SS1619739888340","","","null","","","","","","<p><img src= images/blank.png width =""600"" height = ""600"" style=""position:fixed;top:50%; left:50%; transform: translate(-50%, -50%); border:5px solid black"">","","","","","","","",""
"","3858","sequential-stimulus-presentation-old","25","1731628","0.0-11.0-1.1","SS1619739888340","trial","","40","500","4358","images/stimuli/spore_stims/simple_01_A_b.gif","images/stimuli/spore_stims/simple_20_A_a.gif","self_paced","","1","simple_dissimilar","images/stimuli/spore_stims/simple_01_A_b.gif","","","","",""
"","null","html-keyboard-response","26","1732930","0.0-11.0-0.2","SS1619739888340","","","null","","","","","","<p><img src= images/blank.png width =""600"" height = ""600"" style=""position:fixed;top:50%; left:50%; transform: translate(-50%, -50%); border:5px solid black"">","","","","","","","",""
"","4256","sequential-stimulus-presentation-old","27","1737700","0.0-11.0-1.2","SS1619739888340","trial","","40","500","4756","images/stimuli/spore_stims/simple_01_A_b.gif","images/stimuli/spore_stims/simple_20_A_a.gif","self_paced","","1","simple_dissimilar","images/stimuli/spore_stims/simple_20_A_a.gif","","","","",""
"","null","html-keyboard-response","28","1738817","0.0-11.0-0.3","SS1619739888340","","","null","","","","","","<p><img src= images/blank.png width =""600"" height = ""600"" style=""position:fixed;top:50%; left:50%; transform: translate(-50%, -50%); border:5px solid black"">","","","","","","","",""
"","2199","sequential-stimulus-presentation-old","29","1741526","0.0-11.0-1.3","SS1619739888340","trial","","40","500","2699","images/stimuli/spore_stims/simple_01_A_b.gif","images/stimuli/spore_stims/simple_20_A_a.gif","self_paced","","1","simple_dissimilar","images/stimuli/spore_stims/simple_20_A_a.gif","","","","",""
"","null","html-keyboard-response","30","1742519","0.0-11.0-0.4","SS1619739888340","","","null","","","","","","<p><img src= images/blank.png width =""600"" height = ""600"" style=""position:fixed;top:50%; left:50%; transform: translate(-50%, -50%); border:5px solid black"">","","","","","","","",""
"","2169","sequential-stimulus-presentation-old","31","1745202","0.0-11.0-1.4","SS1619739888340","trial","","40","500","2669","images/stimuli/spore_stims/simple_01_A_b.gif","images/stimuli/spore_stims/simple_20_A_a.gif","self_paced","","1","simple_dissimilar","images/stimuli/spore_stims/simple_20_A_a.gif","","","","",""
"","null","html-keyboard-response","32","1746446","0.0-11.0-0.5","SS1619739888340","","","null","","","","","","<p><img src= images/blank.png width =""600"" height = ""600"" style=""position:fixed;top:50%; left:50%; transform: translate(-50%, -50%); border:5px solid black"">","","","","","","","",""
"","3817","sequential-stimulus-presentation-old","33","1750776","0.0-11.0-1.5","SS1619739888340","trial","","40","500","4317","images/stimuli/spore_stims/simple_01_A_b.gif","images/stimuli/spore_stims/simple_20_A_a.gif","self_paced","","1","simple_dissimilar","images/stimuli/spore_stims/simple_20_A_a.gif","","","","",""
"","2824","survey-multi-choice","34","1753602","0.0-12.0","SS1619739888340","math_question","","","","","","","","","","","","{""Q0"":""13""}","[0]","13","",""
"","null","html-keyboard-response","35","1754786","0.0-13.0-0.0","SS1619739888340","","","null","","","","","","<p><img src= images/blank.png width =""600"" height = ""600"" style=""position:fixed;top:50%; left:50%; transform: translate(-50%, -50%); border:5px solid black"">","","","","","","","",""
"","1462","sequential-stimulus-presentation-old","36","1756762","0.0-13.0-1.0","SS1619739888340","trial","","40","500","1962","images/stimuli/spore_stims/complex_08_A_a.gif","images/stimuli/spore_stims/complex_12_A_b.gif","forced_short","","2","complex_dissimilar","images/stimuli/spore_stims/complex_12_A_b.gif","","","","",""
"","null","html-keyboard-response","37","1757857","0.0-13.0-0.1","SS1619739888340","","","null","","","","","","<p><img src= images/blank.png width =""600"" height = ""600"" style=""position:fixed;top:50%; left:50%; transform: translate(-50%, -50%); border:5px solid black"">","","","","","","","",""
"","5755","sequential-stimulus-presentation-old","38","1764123","0.0-13.0-1.1","SS1619739888340","trial","","40","500","6255","images/stimuli/spore_stims/complex_08_A_a.gif","images/stimuli/spore_stims/complex_12_A_b.gif","forced_short","","2","complex_dissimilar","images/stimuli/spore_stims/complex_12_A_b.gif","","","","",""
"","null","html-keyboard-response","39","1765121","0.0-13.0-0.2","SS1619739888340","","","null","","","","","","<p><img src= images/blank.png width =""600"" height = ""600"" style=""position:fixed;top:50%; left:50%; transform: translate(-50%, -50%); border:5px solid black"">","","","","","","","",""
"","3486","sequential-stimulus-presentation-old","40","1769110","0.0-13.0-1.2","SS1619739888340","trial","","40","500","3986","images/stimuli/spore_stims/complex_08_A_a.gif","images/stimuli/spore_stims/complex_12_A_b.gif","forced_short","","2","complex_dissimilar","images/stimuli/spore_stims/complex_12_A_b.gif","","","","",""
"","null","html-keyboard-response","41","1770298","0.0-13.0-0.3","SS1619739888340","","","null","","","","","","<p><img src= images/blank.png width =""600"" height = ""600"" style=""position:fixed;top:50%; left:50%; transform: translate(-50%, -50%); border:5px solid black"">","","","","","","","",""
"","1701","sequential-stimulus-presentation-old","42","1772513","0.0-13.0-1.3","SS1619739888340","trial","","40","500","2201","images/stimuli/spore_stims/complex_08_A_a.gif","images/stimuli/spore_stims/complex_12_A_b.gif","forced_short","","2","complex_dissimilar","images/stimuli/spore_stims/complex_12_A_b.gif","","","","",""
"","null","html-keyboard-response","43","1773457","0.0-13.0-0.4","SS1619739888340","","","null","","","","","","<p><img src= images/blank.png width =""600"" height = ""600"" style=""position:fixed;top:50%; left:50%; transform: translate(-50%, -50%); border:5px solid black"">","","","","","","","",""
"","3713","sequential-stimulus-presentation-old","44","1777685","0.0-13.0-1.4","SS1619739888340","trial","","40","500","4213","images/stimuli/spore_stims/complex_08_A_a.gif","images/stimuli/spore_stims/complex_12_A_b.gif","forced_short","","2","complex_dissimilar","images/stimuli/spore_stims/complex_12_A_b.gif","","","","",""
"","null","html-keyboard-response","45","1778642","0.0-13.0-0.5","SS1619739888340","","","null","","","","","","<p><img src= images/blank.png width =""600"" height = ""600"" style=""position:fixed;top:50%; left:50%; transform: translate(-50%, -50%); border:5px solid black"">","","","","","","","",""
"","3532","sequential-stimulus-presentation-old","46","1782690","0.0-13.0-1.5","SS1619739888340","trial","","40","500","4032","images/stimuli/spore_stims/complex_08_A_a.gif","images/stimuli/spore_stims/complex_12_A_b.gif","forced_short","","2","complex_dissimilar","images/stimuli/spore_stims/complex_12_A_b.gif","","","","",""
"","2497","survey-multi-choice","47","1785190","0.0-14.0","SS1619739888340","math_question","","","","","","","","","","","","{""Q0"":""5""}","[0]","5","",""
"","null","html-keyboard-response","48","1786156","0.0-15.0-0.0","SS1619739888340","","","null","","","","","","<p><img src= images/blank.png width =""600"" height = ""600"" style=""position:fixed;top:50%; left:50%; transform: translate(-50%, -50%); border:5px solid black"">","","","","","","","",""
"","1141","sequential-stimulus-presentation-old","49","1787809","0.0-15.0-1.0","SS1619739888340","trial","","40","500","1641","images/stimuli/spore_stims/simple_04_A_a.gif","images/stimuli/spore_stims/simple_05_A_b.gif","forced_short","","3","simple_dissimilar","images/stimuli/spore_stims/simple_05_A_b.gif","","","","",""
"","null","html-keyboard-response","50","1788740","0.0-15.0-0.1","SS1619739888340","","","null","","","","","","<p><img src= images/blank.png width =""600"" height = ""600"" style=""position:fixed;top:50%; left:50%; transform: translate(-50%, -50%); border:5px solid black"">","","","","","","","",""
"","3981","sequential-stimulus-presentation-old","51","1793225","0.0-15.0-1.1","SS1619739888340","trial","","40","500","4481","images/stimuli/spore_stims/simple_04_A_a.gif","images/stimuli/spore_stims/simple_05_A_b.gif","forced_short","","3","simple_dissimilar","images/stimuli/spore_stims/simple_05_A_b.gif","","","","",""
"","null","html-keyboard-response","52","1794122","0.0-15.0-0.2","SS1619739888340","","","null","","","","","","<p><img src= images/blank.png width =""600"" height = ""600"" style=""position:fixed;top:50%; left:50%; transform: translate(-50%, -50%); border:5px solid black"">","","","","","","","",""
"","1323","sequential-stimulus-presentation-old","53","1795962","0.0-15.0-1.2","SS1619739888340","trial","","40","500","1823","images/stimuli/spore_stims/simple_04_A_a.gif","images/stimuli/spore_stims/simple_05_A_b.gif","forced_short","","3","simple_dissimilar","images/stimuli/spore_stims/simple_05_A_b.gif","","","","",""
"","null","html-keyboard-response","54","1797231","0.0-15.0-0.3","SS1619739888340","","","null","","","","","","<p><img src= images/blank.png width =""600"" height = ""600"" style=""position:fixed;top:50%; left:50%; transform: translate(-50%, -50%); border:5px solid black"">","","","","","","","",""
"","594","sequential-stimulus-presentation-old","55","1798333","0.0-15.0-1.3","SS1619739888340","trial","","40","500","1094","images/stimuli/spore_stims/simple_04_A_a.gif","images/stimuli/spore_stims/simple_05_A_b.gif","forced_short","","3","simple_dissimilar","images/stimuli/spore_stims/simple_05_A_b.gif","","","","",""
"","2588","survey-multi-choice","56","1800925","0.0-16.0","SS1619739888340","math_question","","","","","","","","","","","","{""Q0"":""7""}","[0]","7","",""
"","null","html-keyboard-response","57","1802137","0.0-17.0-0.0","SS1619739888340","","","null","","","","","","<p><img src= images/blank.png width =""600"" height = ""600"" style=""position:fixed;top:50%; left:50%; transform: translate(-50%, -50%); border:5px solid black"">","","","","","","","",""
"","939","sequential-stimulus-presentation-old","58","1818087","0.0-17.0-1.0","SS1619739888340","trial","","40","500","1439","images/stimuli/spore_stims/simple_12_A_a.gif","images/stimuli/spore_stims/simple_09_A_b.gif","forced_long","","4","simple_dissimilar","images/stimuli/spore_stims/simple_09_A_b.gif","","","","",""
"","null","html-keyboard-response","59","1819193","0.0-17.0-0.1","SS1619739888340","","","null","","","","","","<p><img src= images/blank.png width =""600"" height = ""600"" style=""position:fixed;top:50%; left:50%; transform: translate(-50%, -50%); border:5px solid black"">","","","","","","","",""
"","811","sequential-stimulus-presentation-old","60","1820517","0.0-17.0-1.1","SS1619739888340","trial","","40","500","1311","images/stimuli/spore_stims/simple_12_A_a.gif","images/stimuli/spore_stims/simple_09_A_b.gif","forced_long","","4","simple_dissimilar","images/stimuli/spore_stims/simple_09_A_b.gif","","","","",""
"","null","html-keyboard-response","61","1821438","0.0-17.0-0.2","SS1619739888340","","","null","","","","","","<p><img src= images/blank.png width =""600"" height = ""600"" style=""position:fixed;top:50%; left:50%; transform: translate(-50%, -50%); border:5px solid black"">","","","","","","","",""
"","243","sequential-stimulus-presentation-old","62","1822191","0.0-17.0-1.2","SS1619739888340","trial","","40","500","743","images/stimuli/spore_stims/simple_12_A_a.gif","images/stimuli/spore_stims/simple_09_A_b.gif","forced_long","","4","simple_dissimilar","images/stimuli/spore_stims/simple_09_A_b.gif","","","","",""
"","null","html-keyboard-response","63","1823113","0.0-17.0-0.3","SS1619739888340","","","null","","","","","","<p><img src= images/blank.png width =""600"" height = ""600"" style=""position:fixed;top:50%; left:50%; transform: translate(-50%, -50%); border:5px solid black"">","","","","","","","",""
"","271","sequential-stimulus-presentation-old","64","1823899","0.0-17.0-1.3","SS1619739888340","trial","","40","500","771","images/stimuli/spore_stims/simple_12_A_a.gif","images/stimuli/spore_stims/simple_09_A_b.gif","forced_long","","4","simple_dissimilar","images/stimuli/spore_stims/simple_09_A_b.gif","","","","",""
"","null","html-keyboard-response","65","1824828","0.0-17.0-0.4","SS1619739888340","","","null","","","","","","<p><img src= images/blank.png width =""600"" height = ""600"" style=""position:fixed;top:50%; left:50%; transform: translate(-50%, -50%); border:5px solid black"">","","","","","","","",""
"","310","sequential-stimulus-presentation-old","66","1825646","0.0-17.0-1.4","SS1619739888340","trial","","40","500","810","images/stimuli/spore_stims/simple_12_A_a.gif","images/stimuli/spore_stims/simple_09_A_b.gif","forced_long","","4","simple_dissimilar","images/stimuli/spore_stims/simple_09_A_b.gif","","","","",""
"","2922","survey-multi-choice","67","1828571","0.0-18.0","SS1619739888340","math_question","","","","","","","","","","","","{""Q0"":""11""}","[0]","11","",""
"","null","html-keyboard-response","68","1829459","0.0-19.0-0.0","SS1619739888340","","","null","","","","","","<p><img src= images/blank.png width =""600"" height = ""600"" style=""position:fixed;top:50%; left:50%; transform: translate(-50%, -50%); border:5px solid black"">","","","","","","","",""
"","6433","sequential-stimulus-presentation-old","69","1836408","0.0-19.0-1.0","SS1619739888340","trial","","40","500","6933","images/stimuli/spore_stims/complex_14_A_b.gif","images/stimuli/spore_stims/complex_10_A_a.gif","self_paced","","5","complex_dissimilar","images/stimuli/spore_stims/complex_10_A_a.gif","","","","",""
"","null","html-keyboard-response","70","1837511","0.0-19.0-0.1","SS1619739888340","","","null","","","","","","<p><img src= images/blank.png width =""600"" height = ""600"" style=""position:fixed;top:50%; left:50%; transform: translate(-50%, -50%); border:5px solid black"">","","","","","","","",""
"","1067","sequential-stimulus-presentation-old","71","1839094","0.0-19.0-1.1","SS1619739888340","trial","","40","500","1567","images/stimuli/spore_stims/complex_14_A_b.gif","images/stimuli/spore_stims/complex_10_A_a.gif","self_paced","","5","complex_dissimilar","images/stimuli/spore_stims/complex_10_A_a.gif","","","","",""
"","null","html-keyboard-response","72","1840376","0.0-19.0-0.2","SS1619739888340","","","null","","","","","","<p><img src= images/blank.png width =""600"" height = ""600"" style=""position:fixed;top:50%; left:50%; transform: translate(-50%, -50%); border:5px solid black"">","","","","","","","",""
"","3912","sequential-stimulus-presentation-old","73","1844804","0.0-19.0-1.2","SS1619739888340","trial","","40","500","4412","images/stimuli/spore_stims/complex_14_A_b.gif","images/stimuli/spore_stims/complex_10_A_a.gif","self_paced","","5","complex_dissimilar","images/stimuli/spore_stims/complex_14_A_b.gif","","","","",""
"","null","html-keyboard-response","74","1845875","0.0-19.0-0.3","SS1619739888340","","","null","","","","","","<p><img src= images/blank.png width =""600"" height = ""600"" style=""position:fixed;top:50%; left:50%; transform: translate(-50%, -50%); border:5px solid black"">","","","","","","","",""
"","1391","sequential-stimulus-presentation-old","75","1847779","0.0-19.0-1.3","SS1619739888340","trial","","40","500","1891","images/stimuli/spore_stims/complex_14_A_b.gif","images/stimuli/spore_stims/complex_10_A_a.gif","self_paced","","5","complex_dissimilar","images/stimuli/spore_stims/complex_10_A_a.gif","","","","",""
"","3401","survey-multi-choice","76","1851183","0.0-20.0","SS1619739888340","math_question","","","","","","","","","","","","{""Q0"":""12""}","[0]","12","",""
"","null","html-keyboard-response","77","1852328","0.0-21.0-0.0","SS1619739888340","","","null","","","","","","<p><img src= images/blank.png width =""600"" height = ""600"" style=""position:fixed;top:50%; left:50%; transform: translate(-50%, -50%); border:5px solid black"">","","","","","","","",""
"","645","sequential-stimulus-presentation-old","78","1867979","0.0-21.0-1.0","SS1619739888340","trial","","40","500","1145","images/stimuli/spore_stims/complex_13_A_a.gif","images/stimuli/spore_stims/complex_02_A_b.gif","forced_long","","6","complex_dissimilar","images/stimuli/spore_stims/complex_02_A_b.gif","","","","",""
"","null","html-keyboard-response","79","1868888","0.0-21.0-0.1","SS1619739888340","","","null","","","","","","<p><img src= images/blank.png width =""600"" height = ""600"" style=""position:fixed;top:50%; left:50%; transform: translate(-50%, -50%); border:5px solid black"">","","","","","","","",""
"","4609","sequential-stimulus-presentation-old","80","1874014","0.0-21.0-1.1","SS1619739888340","trial","","40","500","5109","images/stimuli/spore_stims/complex_13_A_a.gif","images/stimuli/spore_stims/complex_02_A_b.gif","forced_long","","6","complex_dissimilar","images/stimuli/spore_stims/complex_02_A_b.gif","","","","",""
"","null","html-keyboard-response","81","1874862","0.0-21.0-0.2","SS1619739888340","","","null","","","","","","<p><img src= images/blank.png width =""600"" height = ""600"" style=""position:fixed;top:50%; left:50%; transform: translate(-50%, -50%); border:5px solid black"">","","","","","","","",""
"","3361","sequential-stimulus-presentation-old","82","1878738","0.0-21.0-1.2","SS1619739888340","trial","","40","500","3861","images/stimuli/spore_stims/complex_13_A_a.gif","images/stimuli/spore_stims/complex_02_A_b.gif","forced_long","","6","complex_dissimilar","images/stimuli/spore_stims/complex_13_A_a.gif","","","","",""
"","null","html-keyboard-response","83","1879818","0.0-21.0-0.3","SS1619739888340","","","null","","","","","","<p><img src= images/blank.png width =""600"" height = ""600"" style=""position:fixed;top:50%; left:50%; transform: translate(-50%, -50%); border:5px solid black"">","","","","","","","",""
"","669","sequential-stimulus-presentation-old","84","1881001","0.0-21.0-1.3","SS1619739888340","trial","","40","500","1169","images/stimuli/spore_stims/complex_13_A_a.gif","images/stimuli/spore_stims/complex_02_A_b.gif","forced_long","","6","complex_dissimilar","images/stimuli/spore_stims/complex_02_A_b.gif","","","","",""
"","2674","survey-multi-choice","85","1883678","0.0-22.0","SS1619739888340","math_question","","","","","","","","","","","","{""Q0"":""7""}","[0]","7","",""
"","null","html-keyboard-response","86","1884693","0.0-23.0-0.0","SS1619739888340","","","null","","","","","","<p><img src= images/blank.png width =""600"" height = ""600"" style=""position:fixed;top:50%; left:50%; transform: translate(-50%, -50%); border:5px solid black"">","","","","","","","",""
"","742","sequential-stimulus-presentation-old","87","1900450","0.0-23.0-1.0","SS1619739888340","trial","","40","500","1242","images/stimuli/spore_stims/simple_07_A_b.gif","images/stimuli/spore_stims/simple_01_A_a.gif","forced_long","","7","simple_dissimilar","images/stimuli/spore_stims/simple_01_A_a.gif","","","","",""
"","null","html-keyboard-response","88","1901392","0.0-23.0-0.1","SS1619739888340","","","null","","","","","","<p><img src= images/blank.png width =""600"" height = ""600"" style=""position:fixed;top:50%; left:50%; transform: translate(-50%, -50%); border:5px solid black"">","","","","","","","",""
"","604","sequential-stimulus-presentation-old","89","1902512","0.0-23.0-1.1","SS1619739888340","trial","","40","500","1104","images/stimuli/spore_stims/simple_07_A_b.gif","images/stimuli/spore_stims/simple_01_A_a.gif","forced_long","","7","simple_dissimilar","images/stimuli/spore_stims/simple_01_A_a.gif","","","","",""
"","null","html-keyboard-response","90","1903457","0.0-23.0-0.2","SS1619739888340","","","null","","","","","","<p><img src= images/blank.png width =""600"" height = ""600"" style=""position:fixed;top:50%; left:50%; transform: translate(-50%, -50%); border:5px solid black"">","","","","","","","",""
"","87","sequential-stimulus-presentation-old","91","1904056","0.0-23.0-1.2","SS1619739888340","trial","","40","500","587","images/stimuli/spore_stims/simple_07_A_b.gif","images/stimuli/spore_stims/simple_01_A_a.gif","forced_long","","7","simple_dissimilar","images/stimuli/spore_stims/simple_01_A_a.gif","","","","",""
"","null","html-keyboard-response","92","1904912","0.0-23.0-0.3","SS1619739888340","","","null","","","","","","<p><img src= images/blank.png width =""600"" height = ""600"" style=""position:fixed;top:50%; left:50%; transform: translate(-50%, -50%); border:5px solid black"">","","","","","","","",""
"","61","sequential-stimulus-presentation-old","93","1905491","0.0-23.0-1.3","SS1619739888340","trial","","40","500","561","images/stimuli/spore_stims/simple_07_A_b.gif","images/stimuli/spore_stims/simple_01_A_a.gif","forced_long","","7","simple_dissimilar","images/stimuli/spore_stims/simple_01_A_a.gif","","","","",""
"","null","html-keyboard-response","94","1906451","0.0-23.0-0.4","SS1619739888340","","","null","","","","","","<p><img src= images/blank.png width =""600"" height = ""600"" style=""position:fixed;top:50%; left:50%; transform: translate(-50%, -50%); border:5px solid black"">","","","","","","","",""
"","238","sequential-stimulus-presentation-old","95","1907203","0.0-23.0-1.4","SS1619739888340","trial","","40","500","738","images/stimuli/spore_stims/simple_07_A_b.gif","images/stimuli/spore_stims/simple_01_A_a.gif","forced_long","","7","simple_dissimilar","images/stimuli/spore_stims/simple_01_A_a.gif","","","","",""
"","2503","survey-multi-choice","96","1909709","0.0-24.0","SS1619739888340","math_question","","","","","","","","","","","","{""Q0"":""14""}","[0]","14","",""
"","null","html-keyboard-response","97","1910843","0.0-25.0-0.0","SS1619739888340","","","null","","","","","","<p><img src= images/blank.png width =""600"" height = ""600"" style=""position:fixed;top:50%; left:50%; transform: translate(-50%, -50%); border:5px solid black"">","","","","","","","",""
"","704","sequential-stimulus-presentation-old","98","1926557","0.0-25.0-1.0","SS1619739888340","trial","","40","500","1204","images/stimuli/spore_stims/complex_13_A_b.gif","images/stimuli/spore_stims/complex_11_A_a.gif","forced_long","","8","complex_dissimilar","images/stimuli/spore_stims/complex_11_A_a.gif","","","","",""
"","null","html-keyboard-response","99","1927538","0.0-25.0-0.1","SS1619739888340","","","null","","","","","","<p><img src= images/blank.png width =""600"" height = ""600"" style=""position:fixed;top:50%; left:50%; transform: translate(-50%, -50%); border:5px solid black"">","","","","","","","",""
"","303","sequential-stimulus-presentation-old","100","1928352","0.0-25.0-1.1","SS1619739888340","trial","","40","500","803","images/stimuli/spore_stims/complex_13_A_b.gif","images/stimuli/spore_stims/complex_11_A_a.gif","forced_long","","8","complex_dissimilar","images/stimuli/spore_stims/complex_11_A_a.gif","","","","",""
"","null","html-keyboard-response","101","1929546","0.0-25.0-0.2","SS1619739888340","","","null","","","","","","<p><img src= images/blank.png width =""600"" height = ""600"" style=""position:fixed;top:50%; left:50%; transform: translate(-50%, -50%); border:5px solid black"">","","","","","","","",""
"","748","sequential-stimulus-presentation-old","102","1930808","0.0-25.0-1.2","SS1619739888340","trial","","40","500","1248","images/stimuli/spore_stims/complex_13_A_b.gif","images/stimuli/spore_stims/complex_11_A_a.gif","forced_long","","8","complex_dissimilar","images/stimuli/spore_stims/complex_11_A_a.gif","","","","",""
"","null","html-keyboard-response","103","1931672","0.0-25.0-0.3","SS1619739888340","","","null","","","","","","<p><img src= images/blank.png width =""600"" height = ""600"" style=""position:fixed;top:50%; left:50%; transform: translate(-50%, -50%); border:5px solid black"">","","","","","","","",""
"","311","sequential-stimulus-presentation-old","104","1932498","0.0-25.0-1.3","SS1619739888340","trial","","40","500","811","images/stimuli/spore_stims/complex_13_A_b.gif","images/stimuli/spore_stims/complex_11_A_a.gif","forced_long","","8","complex_dissimilar","images/stimuli/spore_stims/complex_11_A_a.gif","","","","",""
"","null","html-keyboard-response","105","1933438","0.0-25.0-0.4","SS1619739888340","","","null","","","","","","<p><img src= images/blank.png width =""600"" height = ""600"" style=""position:fixed;top:50%; left:50%; transform: translate(-50%, -50%); border:5px solid black"">","","","","","","","",""
"","186","sequential-stimulus-presentation-old","106","1934139","0.0-25.0-1.4","SS1619739888340","trial","","40","500","686","images/stimuli/spore_stims/complex_13_A_b.gif","images/stimuli/spore_stims/complex_11_A_a.gif","forced_long","","8","complex_dissimilar","images/stimuli/spore_stims/complex_11_A_a.gif","","","","",""
"","null","html-keyboard-response","107","1935442","0.0-25.0-0.5","SS1619739888340","","","null","","","","","","<p><img src= images/blank.png width =""600"" height = ""600"" style=""position:fixed;top:50%; left:50%; transform: translate(-50%, -50%); border:5px solid black"">","","","","","","","",""
"","148","sequential-stimulus-presentation-old","108","1936099","0.0-25.0-1.5","SS1619739888340","trial","","40","500","648","images/stimuli/spore_stims/complex_13_A_b.gif","images/stimuli/spore_stims/complex_11_A_a.gif","forced_long","","8","complex_dissimilar","images/stimuli/spore_stims/complex_11_A_a.gif","","","","",""
"","2677","survey-multi-choice","109","1938778","0.0-26.0","SS1619739888340","math_question","","","","","","","","","","","","{""Q0"":""5""}","[0]","5","",""
"","null","html-keyboard-response","110","1939906","0.0-27.0-0.0","SS1619739888340","","","null","","","","","","<p><img src= images/blank.png width =""600"" height = ""600"" style=""position:fixed;top:50%; left:50%; transform: translate(-50%, -50%); border:5px solid black"">","","","","","","","",""
"","877","sequential-stimulus-presentation-old","111","1941285","0.0-27.0-1.0","SS1619739888340","trial","","40","500","1377","images/stimuli/spore_stims/complex_03_A_b.gif","images/stimuli/spore_stims/complex_01_A_a.gif","forced_short","","9","complex_dissimilar","images/stimuli/spore_stims/complex_01_A_a.gif","","","","",""
"","null","html-keyboard-response","112","1942171","0.0-27.0-0.1","SS1619739888340","","","null","","","","","","<p><img src= images/blank.png width =""600"" height = ""600"" style=""position:fixed;top:50%; left:50%; transform: translate(-50%, -50%); border:5px solid black"">","","","","","","","",""
"","3217","sequential-stimulus-presentation-old","113","1945904","0.0-27.0-1.1","SS1619739888340","trial","","40","500","3717","images/stimuli/spore_stims/complex_03_A_b.gif","images/stimuli/spore_stims/complex_01_A_a.gif","forced_short","","9","complex_dissimilar","images/stimuli/spore_stims/complex_01_A_a.gif","","","","",""
"","null","html-keyboard-response","114","1946756","0.0-27.0-0.2","SS1619739888340","","","null","","","","","","<p><img src= images/blank.png width =""600"" height = ""600"" style=""position:fixed;top:50%; left:50%; transform: translate(-50%, -50%); border:5px solid black"">","","","","","","","",""
"","1241","sequential-stimulus-presentation-old","115","1948510","0.0-27.0-1.2","SS1619739888340","trial","","40","500","1741","images/stimuli/spore_stims/complex_03_A_b.gif","images/stimuli/spore_stims/complex_01_A_a.gif","forced_short","","9","complex_dissimilar","images/stimuli/spore_stims/complex_01_A_a.gif","","","","",""
"","null","html-keyboard-response","116","1949331","0.0-27.0-0.3","SS1619739888340","","","null","","","","","","<p><img src= images/blank.png width =""600"" height = ""600"" style=""position:fixed;top:50%; left:50%; transform: translate(-50%, -50%); border:5px solid black"">","","","","","","","",""
"","455","sequential-stimulus-presentation-old","117","1950302","0.0-27.0-1.3","SS1619739888340","trial","","40","500","955","images/stimuli/spore_stims/complex_03_A_b.gif","images/stimuli/spore_stims/complex_01_A_a.gif","forced_short","","9","complex_dissimilar","images/stimuli/spore_stims/complex_01_A_a.gif","","","","",""
"","4698","survey-multi-choice","118","1955004","0.0-28.0","SS1619739888340","math_question","","","","","","","","","","","","{""Q0"":""13""}","[0]","13","",""
"","null","html-keyboard-response","119","1956072","0.0-29.0-0.0","SS1619739888340","","","null","","","","","","<p><img src= images/blank.png width =""600"" height = ""600"" style=""position:fixed;top:50%; left:50%; transform: translate(-50%, -50%); border:5px solid black"">","","","","","","","",""
"","708","sequential-stimulus-presentation-old","120","1957295","0.0-29.0-1.0","SS1619739888340","trial","","40","500","1208","images/stimuli/spore_stims/simple_11_A_a.gif","images/stimuli/spore_stims/simple_17_A_b.gif","forced_short","","10","simple_dissimilar","images/stimuli/spore_stims/simple_17_A_b.gif","","","","",""
"","null","html-keyboard-response","121","1958171","0.0-29.0-0.1","SS1619739888340","","","null","","","","","","<p><img src= images/blank.png width =""600"" height = ""600"" style=""position:fixed;top:50%; left:50%; transform: translate(-50%, -50%); border:5px solid black"">","","","","","","","",""
"","310","sequential-stimulus-presentation-old","122","1958989","0.0-29.0-1.1","SS1619739888340","trial","","40","500","810","images/stimuli/spore_stims/simple_11_A_a.gif","images/stimuli/spore_stims/simple_17_A_b.gif","forced_short","","10","simple_dissimilar","images/stimuli/spore_stims/simple_17_A_b.gif","","","","",""
"","null","html-keyboard-response","123","1959886","0.0-29.0-0.2","SS1619739888340","","","null","","","","","","<p><img src= images/blank.png width =""600"" height = ""600"" style=""position:fixed;top:50%; left:50%; transform: translate(-50%, -50%); border:5px solid black"">","","","","","","","",""
"","902","sequential-stimulus-presentation-old","124","1961306","0.0-29.0-1.2","SS1619739888340","trial","","40","500","1402","images/stimuli/spore_stims/simple_11_A_a.gif","images/stimuli/spore_stims/simple_17_A_b.gif","forced_short","","10","simple_dissimilar","images/stimuli/spore_stims/simple_11_A_a.gif","","","","",""
"","null","html-keyboard-response","125","1962611","0.0-29.0-0.3","SS1619739888340","","","null","","","","","","<p><img src= images/blank.png width =""600"" height = ""600"" style=""position:fixed;top:50%; left:50%; transform: translate(-50%, -50%); border:5px solid black"">","","","","","","","",""
"","1303","sequential-stimulus-presentation-old","126","1964417","0.0-29.0-1.3","SS1619739888340","trial","","40","500","1803","images/stimuli/spore_stims/simple_11_A_a.gif","images/stimuli/spore_stims/simple_17_A_b.gif","forced_short","","10","simple_dissimilar","images/stimuli/spore_stims/simple_17_A_b.gif","","","","",""
"","null","html-keyboard-response","127","1965538","0.0-29.0-0.4","SS1619739888340","","","null","","","","","","<p><img src= images/blank.png width =""600"" height = ""600"" style=""position:fixed;top:50%; left:50%; transform: translate(-50%, -50%); border:5px solid black"">","","","","","","","",""
"","1036","sequential-stimulus-presentation-old","128","1967088","0.0-29.0-1.4","SS1619739888340","trial","","40","500","1536","images/stimuli/spore_stims/simple_11_A_a.gif","images/stimuli/spore_stims/simple_17_A_b.gif","forced_short","","10","simple_dissimilar","images/stimuli/spore_stims/simple_11_A_a.gif","","","","",""
"","2838","survey-multi-choice","129","1969930","0.0-30.0","SS1619739888340","math_question","","","","","","","","","","","","{""Q0"":""17""}","[0]","17","",""
"","null","html-keyboard-response","130","1971220","0.0-31.0-0.0","SS1619739888340","","","null","","","","","","<p><img src= images/blank.png width =""600"" height = ""600"" style=""position:fixed;top:50%; left:50%; transform: translate(-50%, -50%); border:5px solid black"">","","","","","","","",""
"","3133","sequential-stimulus-presentation-old","131","1974870","0.0-31.0-1.0","SS1619739888340","trial","","40","500","3633","images/stimuli/spore_stims/complex_09_A_a.gif","images/stimuli/spore_stims/complex_19_A_b.gif","self_paced","","11","complex_dissimilar","images/stimuli/spore_stims/complex_19_A_b.gif","","","","",""
"","null","html-keyboard-response","132","1976023","0.0-31.0-0.1","SS1619739888340","","","null","","","","","","<p><img src= images/blank.png width =""600"" height = ""600"" style=""position:fixed;top:50%; left:50%; transform: translate(-50%, -50%); border:5px solid black"">","","","","","","","",""
"","2180","sequential-stimulus-presentation-old","133","1978706","0.0-31.0-1.1","SS1619739888340","trial","","40","500","2680","images/stimuli/spore_stims/complex_09_A_a.gif","images/stimuli/spore_stims/complex_19_A_b.gif","self_paced","","11","complex_dissimilar","images/stimuli/spore_stims/complex_19_A_b.gif","","","","",""
"","null","html-keyboard-response","134","1979819","0.0-31.0-0.2","SS1619739888340","","","null","","","","","","<p><img src= images/blank.png width =""600"" height = ""600"" style=""position:fixed;top:50%; left:50%; transform: translate(-50%, -50%); border:5px solid black"">","","","","","","","",""
"","3333","sequential-stimulus-presentation-old","135","1983660","0.0-31.0-1.2","SS1619739888340","trial","","40","500","3833","images/stimuli/spore_stims/complex_09_A_a.gif","images/stimuli/spore_stims/complex_19_A_b.gif","self_paced","","11","complex_dissimilar","images/stimuli/spore_stims/complex_09_A_a.gif","","","","",""
"","null","html-keyboard-response","136","1984933","0.0-31.0-0.3","SS1619739888340","","","null","","","","","","<p><img src= images/blank.png width =""600"" height = ""600"" style=""position:fixed;top:50%; left:50%; transform: translate(-50%, -50%); border:5px solid black"">","","","","","","","",""
"","439","sequential-stimulus-presentation-old","137","1985881","0.0-31.0-1.3","SS1619739888340","trial","","40","500","939","images/stimuli/spore_stims/complex_09_A_a.gif","images/stimuli/spore_stims/complex_19_A_b.gif","self_paced","","11","complex_dissimilar","images/stimuli/spore_stims/complex_19_A_b.gif","","","","",""
"[{""page_index"":0,""viewing_time"":4983}]","4983","instructions","138","1990868","0.0-32.0","SS1619739888340","instructions","","","","","","","","","","","","","","","",""
"","16863","survey-likert","139","2007737","0.0-33.0","SS1619739888340","similarity_question","","","","","","","","","","","","{""Q0"":4}","[0]","","images/stimuli/spore_stims/simple_04_A_a.gif","images/stimuli/spore_stims/simple_05_A_b.gif"
"","8429","survey-likert","140","2016171","0.0-34.0","SS1619739888340","similarity_question","","","","","","","","","","","","{""Q0"":1}","[0]","","images/stimuli/spore_stims/complex_13_A_a.gif","images/stimuli/spore_stims/complex_02_A_b.gif"
"","7544","survey-likert","141","2023723","0.0-35.0","SS1619739888340","similarity_question","","","","","","","","","","","","{""Q0"":1}","[0]","","images/stimuli/spore_stims/complex_11_A_a.gif","images/stimuli/spore_stims/complex_13_A_b.gif"
"","7983","survey-likert","142","2031711","0.0-36.0","SS1619739888340","similarity_question","","","","","","","","","","","","{""Q0"":4}","[0]","","images/stimuli/spore_stims/simple_20_A_a.gif","images/stimuli/spore_stims/simple_01_A_b.gif"
"","3853","survey-likert","143","2035571","0.0-37.0","SS1619739888340","similarity_question","","","","","","","","","","","","{""Q0"":2}","[0]","","images/stimuli/spore_stims/simple_15_A_b.gif","images/stimuli/spore_stims/simple_18_A_a.gif"
"","7341","survey-likert","144","2042920","0.0-38.0","SS1619739888340","similarity_question","","","","","","","","","","","","{""Q0"":1}","[0]","","images/stimuli/spore_stims/complex_12_A_b.gif","images/stimuli/spore_stims/complex_08_A_a.gif"
"","7691","survey-likert","145","2050617","0.0-39.0","SS1619739888340","similarity_question","","","","","","","","","","","","{""Q0"":4}","[0]","","images/stimuli/spore_stims/simple_17_A_b.gif","images/stimuli/spore_stims/simple_11_A_a.gif"
"","6425","survey-likert","146","2057046","0.0-40.0","SS1619739888340","similarity_question","","","","","","","","","","","","{""Q0"":2}","[0]","","images/stimuli/spore_stims/simple_01_A_a.gif","images/stimuli/spore_stims/simple_07_A_b.gif"
"","5158","survey-likert","147","2062209","0.0-41.0","SS1619739888340","similarity_question","","","","","","","","","","","","{""Q0"":1}","[0]","","images/stimuli/spore_stims/complex_03_A_b.gif","images/stimuli/spore_stims/complex_01_A_a.gif"
"","4997","survey-likert","148","2067211","0.0-42.0","SS1619739888340","similarity_question","","","","","","","","","","","","{""Q0"":5}","[0]","","images/stimuli/spore_stims/simple_12_A_a.gif","images/stimuli/spore_stims/simple_09_A_b.gif"
"","13229","survey-likert","149","2080444","0.0-43.0","SS1619739888340","similarity_question","","","","","","","","","","","","{""Q0"":3}","[0]","","images/stimuli/spore_stims/complex_09_A_a.gif","images/stimuli/spore_stims/complex_19_A_b.gif"
"","3894","survey-likert","150","2084343","0.0-44.0","SS1619739888340","similarity_question","","","","","","","","","","","","{""Q0"":1}","[0]","","images/stimuli/spore_stims/complex_14_A_b.gif","images/stimuli/spore_stims/complex_10_A_a.gif"
"[{""page_index"":0,""viewing_time"":3027}]","3027","instructions","151","2087374","0.0-45.0","SS1619739888340","instructions","","","","","","","","","","","","","","","",""
"","14893","survey-likert","152","2102271","0.0-46.0","SS1619739888340","","","","","","","","","images/stimuli/spore_stims/complex_01_A_a.gif","","","","{""Q0"":4}","[0]","","",""
"","6424","survey-likert","153","2108701","0.0-47.0","SS1619739888340","","","","","","","","","images/stimuli/spore_stims/complex_13_A_a.gif","","","","{""Q0"":5}","[0]","","",""
"","5711","survey-likert","154","2114418","0.0-48.0","SS1619739888340","","","","","","","","","images/stimuli/spore_stims/complex_19_A_b.gif","","","","{""Q0"":5}","[0]","","",""
"","4108","survey-likert","155","2118532","0.0-49.0","SS1619739888340","","","","","","","","","images/stimuli/spore_stims/simple_09_A_b.gif","","","","{""Q0"":1}","[0]","","",""
"","3065","survey-likert","156","2121601","0.0-50.0","SS1619739888340","","","","","","","","","images/stimuli/spore_stims/complex_14_A_b.gif","","","","{""Q0"":5}","[0]","","",""
"","3460","survey-likert","157","2125065","0.0-51.0","SS1619739888340","","","","","","","","","images/stimuli/spore_stims/simple_07_A_b.gif","","","","{""Q0"":1}","[0]","","",""
"","2545","survey-likert","158","2127617","0.0-52.0","SS1619739888340","","","","","","","","","images/stimuli/spore_stims/simple_17_A_b.gif","","","","{""Q0"":1}","[0]","","",""
"","2342","survey-likert","159","2129965","0.0-53.0","SS1619739888340","","","","","","","","","images/stimuli/spore_stims/simple_01_A_b.gif","","","","{""Q0"":1}","[0]","","",""
"","3034","survey-likert","160","2133008","0.0-54.0","SS1619739888340","","","","","","","","","images/stimuli/spore_stims/simple_18_A_a.gif","","","","{""Q0"":2}","[0]","","",""
"","2260","survey-likert","161","2135275","0.0-55.0","SS1619739888340","","","","","","","","","images/stimuli/spore_stims/simple_05_A_b.gif","","","","{""Q0"":1}","[0]","","",""
"","3966","survey-likert","162","2139248","0.0-56.0","SS1619739888340","","","","","","","","","images/stimuli/spore_stims/complex_08_A_a.gif","","","","{""Q0"":4}","[0]","","",""
"","6103","survey-likert","163","2145357","0.0-57.0","SS1619739888340","","","","","","","","","images/stimuli/spore_stims/complex_11_A_a.gif","","","","{""Q0"":4}","[0]","","",""
"[{""page_index"":0,""viewing_time"":1320}]","1320","instructions","164","2146681","0.0-58.0","SS1619739888340","instructions","","","","","","","","","","","","","","","",""
"","4031","demog-age","165","2150721","0.0-59.0","SS1619739888340","","","","","","","","","","","","","{""age"":""30""}","","","",""
"","4839","demog-ethnic-US","166","2155568","0.0-60.0","SS1619739888340","","","","","","","","","","","","","{""ethnicity"":[""White""]}","[0]","","",""
"","6794","demog-gender-and-education","167","2162369","0.0-61.0","SS1619739888340","","","","","","","","","","","","","{""gender"":""Male"",""education"":""Associate Degree/Technical certification""}","[0,1]","","",""
"","12828","survey-text","168","2175206","0.0-62.0","SS1619739888340","feedback","","","","","","","","","","","","{""Q0"":""Nothing in particular""}","","","",""
"[{""page_index"":0,""viewing_time"":1298}]","1299","instructions","169","2176511","0.0-63.0","SS1619739888340","instructions","","","","","","","","","","","","","","","",""
