"view_history","rt","trial_type","trial_index","time_elapsed","internal_node_id","subject","stimulus_type","trial_stimulus","key_press","minimum_viewing_duration","trial_looking_time","block_deviant","block_background","exposure_type","stimulus","block_number","block_type","stimulus_displayed","responses","question_order","math_correct_answer","stimulus_left","stimulus_right"
"[{""page_index"":0,""viewing_time"":14176.104999991367}]","14176.60999999498","instructions","0","14178","0.0-0.0","SS1619740299665","","","","","","","","","","","","","","","","",""
"[{""page_index"":0,""viewing_time"":1143.884999997681},{""page_index"":1,""viewing_time"":1126.814999995986}]","2270.844999991823","instructions","1","18452","0.0-1.0","SS1619740299665","instructions","","","","","","","","","","","","","","","",""
"","2928.4549999865703","sequential-stimulus-presentation-old","2","21883","0.0-2.0","SS1619740299665","","","40","500","3428.4549999865703","null","null","self_paced","","","","","","","","",""
"","4012.6499999896623","sequential-stimulus-presentation-old","3","26397","0.0-3.0","SS1619740299665","","","40","500","4512.649999989662","null","null","self_paced","","","","","","","","",""
"[{""page_index"":0,""viewing_time"":14541.319999989355}]","14541.514999989886","instructions","4","40939","0.0-4.0","SS1619740299665","instructions","","","","","","","","","","","","","","","",""
"","1386.2049999879673","sequential-stimulus-presentation-old","5","57329","0.0-5.0","SS1619740299665","","","40","500","1886.2049999879673","null","null","forced_long","","","","","","","","",""
"","2938.7299999943934","sequential-stimulus-presentation-old","6","60772","0.0-6.0","SS1619740299665","","","40","500","3438.7299999943934","null","null","forced_long","","","","","","","","",""
"[{""page_index"":0,""viewing_time"":3587.2699999890756}]","3587.79499999946","instructions","7","64362","0.0-7.0","SS1619740299665","instructions","","","","","","","","","","","","","","","",""
"[{""page_index"":0,""viewing_time"":12157.47000000556},{""page_index"":1,""viewing_time"":10193.685000005644},{""page_index"":2,""viewing_time"":6659.514999977546},{""page_index"":3,""viewing_time"":1530.0500000012107},{""page_index"":4,""viewing_time"":1381.7200000048615}]","31923.00000000978","instructions","8","96288","0.0-8.0","SS1619740299665","instructions","","","","","","","","","","","","","","","",""
"","null","html-keyboard-response","9","97574","0.0-9.0-0.0","SS1619740299665","","","null","","","","","","<p><img src= images/blank.png width =""600"" height = ""600"" style=""position:fixed;top:50%; left:50%; transform: translate(-50%, -50%); border:5px solid black"">","","","","","","","",""
"","5103.210000001127","sequential-stimulus-presentation-old","10","103185","0.0-9.0-1.0","SS1619740299665","trial","","40","500","5603.210000001127","images/stimuli/spore_stims/simple_19_A_b.gif","images/stimuli/spore_stims/simple_08_A_a.gif","forced_short","","0","simple_dissimilar","images/stimuli/spore_stims/simple_08_A_a.gif","","","","",""
"","null","html-keyboard-response","11","104183","0.0-9.0-0.1","SS1619740299665","","","null","","","","","","<p><img src= images/blank.png width =""600"" height = ""600"" style=""position:fixed;top:50%; left:50%; transform: translate(-50%, -50%); border:5px solid black"">","","","","","","","",""
"","3005.9649999893736","sequential-stimulus-presentation-old","12","107694","0.0-9.0-1.1","SS1619740299665","trial","","40","500","3505.9649999893736","images/stimuli/spore_stims/simple_19_A_b.gif","images/stimuli/spore_stims/simple_08_A_a.gif","forced_short","","0","simple_dissimilar","images/stimuli/spore_stims/simple_08_A_a.gif","","","","",""
"","null","html-keyboard-response","13","108950","0.0-9.0-0.2","SS1619740299665","","","null","","","","","","<p><img src= images/blank.png width =""600"" height = ""600"" style=""position:fixed;top:50%; left:50%; transform: translate(-50%, -50%); border:5px solid black"">","","","","","","","",""
"","5752.665000007255","sequential-stimulus-presentation-old","14","115208","0.0-9.0-1.2","SS1619740299665","trial","","40","500","6252.665000007255","images/stimuli/spore_stims/simple_19_A_b.gif","images/stimuli/spore_stims/simple_08_A_a.gif","forced_short","","0","simple_dissimilar","images/stimuli/spore_stims/simple_19_A_b.gif","","","","",""
"","null","html-keyboard-response","15","116032","0.0-9.0-0.3","SS1619740299665","","","null","","","","","","<p><img src= images/blank.png width =""600"" height = ""600"" style=""position:fixed;top:50%; left:50%; transform: translate(-50%, -50%); border:5px solid black"">","","","","","","","",""
"","27892.91999998386","sequential-stimulus-presentation-old","16","144432","0.0-9.0-1.3","SS1619740299665","trial","","40","500","28392.91999998386","images/stimuli/spore_stims/simple_19_A_b.gif","images/stimuli/spore_stims/simple_08_A_a.gif","forced_short","","0","simple_dissimilar","images/stimuli/spore_stims/simple_08_A_a.gif","","","","",""
"","null","html-keyboard-response","17","145399","0.0-9.0-0.4","SS1619740299665","","","null","","","","","","<p><img src= images/blank.png width =""600"" height = ""600"" style=""position:fixed;top:50%; left:50%; transform: translate(-50%, -50%); border:5px solid black"">","","","","","","","",""
"","8363.26499999268","sequential-stimulus-presentation-old","18","154268","0.0-9.0-1.4","SS1619740299665","trial","","40","500","8863.26499999268","images/stimuli/spore_stims/simple_19_A_b.gif","images/stimuli/spore_stims/simple_08_A_a.gif","forced_short","","0","simple_dissimilar","images/stimuli/spore_stims/simple_19_A_b.gif","","","","",""
"","3408.8300000003073","survey-multi-choice","19","157697","0.0-10.0","SS1619740299665","math_question","","","","","","","","","","","","{""Q0"":""9""}","[0]","9","",""
"","null","html-keyboard-response","20","158725","0.0-11.0-0.0","SS1619740299665","","","null","","","","","","<p><img src= images/blank.png width =""600"" height = ""600"" style=""position:fixed;top:50%; left:50%; transform: translate(-50%, -50%); border:5px solid black"">","","","","","","","",""
"","4984.189999988303","sequential-stimulus-presentation-old","21","164218","0.0-11.0-1.0","SS1619740299665","trial","","40","500","5484.189999988303","images/stimuli/spore_stims/complex_16_A_b.gif","images/stimuli/spore_stims/complex_11_A_a.gif","self_paced","","1","complex_dissimilar","images/stimuli/spore_stims/complex_11_A_a.gif","","","","",""
"","null","html-keyboard-response","22","165434","0.0-11.0-0.1","SS1619740299665","","","null","","","","","","<p><img src= images/blank.png width =""600"" height = ""600"" style=""position:fixed;top:50%; left:50%; transform: translate(-50%, -50%); border:5px solid black"">","","","","","","","",""
"","9107.32999999891","sequential-stimulus-presentation-old","23","175047","0.0-11.0-1.1","SS1619740299665","trial","","40","500","9607.32999999891","images/stimuli/spore_stims/complex_16_A_b.gif","images/stimuli/spore_stims/complex_11_A_a.gif","self_paced","","1","complex_dissimilar","images/stimuli/spore_stims/complex_11_A_a.gif","","","","",""
"","null","html-keyboard-response","24","176244","0.0-11.0-0.2","SS1619740299665","","","null","","","","","","<p><img src= images/blank.png width =""600"" height = ""600"" style=""position:fixed;top:50%; left:50%; transform: translate(-50%, -50%); border:5px solid black"">","","","","","","","",""
"","3883.00000000163","sequential-stimulus-presentation-old","25","180634","0.0-11.0-1.2","SS1619740299665","trial","","40","500","4383.00000000163","images/stimuli/spore_stims/complex_16_A_b.gif","images/stimuli/spore_stims/complex_11_A_a.gif","self_paced","","1","complex_dissimilar","images/stimuli/spore_stims/complex_11_A_a.gif","","","","",""
"","null","html-keyboard-response","26","181498","0.0-11.0-0.3","SS1619740299665","","","null","","","","","","<p><img src= images/blank.png width =""600"" height = ""600"" style=""position:fixed;top:50%; left:50%; transform: translate(-50%, -50%); border:5px solid black"">","","","","","","","",""
"","7560.384999989765","sequential-stimulus-presentation-old","27","189564","0.0-11.0-1.3","SS1619740299665","trial","","40","500","8060.384999989765","images/stimuli/spore_stims/complex_16_A_b.gif","images/stimuli/spore_stims/complex_11_A_a.gif","self_paced","","1","complex_dissimilar","images/stimuli/spore_stims/complex_16_A_b.gif","","","","",""
"","null","html-keyboard-response","28","190840","0.0-11.0-0.4","SS1619740299665","","","null","","","","","","<p><img src= images/blank.png width =""600"" height = ""600"" style=""position:fixed;top:50%; left:50%; transform: translate(-50%, -50%); border:5px solid black"">","","","","","","","",""
"","2149.0300000004936","sequential-stimulus-presentation-old","29","193496","0.0-11.0-1.4","SS1619740299665","trial","","40","500","2649.0300000004936","images/stimuli/spore_stims/complex_16_A_b.gif","images/stimuli/spore_stims/complex_11_A_a.gif","self_paced","","1","complex_dissimilar","images/stimuli/spore_stims/complex_11_A_a.gif","","","","",""
"","null","html-keyboard-response","30","194574","0.0-11.0-0.5","SS1619740299665","","","null","","","","","","<p><img src= images/blank.png width =""600"" height = ""600"" style=""position:fixed;top:50%; left:50%; transform: translate(-50%, -50%); border:5px solid black"">","","","","","","","",""
"","2536.5749999764375","sequential-stimulus-presentation-old","31","197616","0.0-11.0-1.5","SS1619740299665","trial","","40","500","3036.5749999764375","images/stimuli/spore_stims/complex_16_A_b.gif","images/stimuli/spore_stims/complex_11_A_a.gif","self_paced","","1","complex_dissimilar","images/stimuli/spore_stims/complex_16_A_b.gif","","","","",""
"","4034.335000003921","survey-multi-choice","32","201654","0.0-12.0","SS1619740299665","math_question","","","","","","","","","","","","{""Q0"":""15""}","[0]","15","",""
"","null","html-keyboard-response","33","202811","0.0-13.0-0.0","SS1619740299665","","","null","","","","","","<p><img src= images/blank.png width =""600"" height = ""600"" style=""position:fixed;top:50%; left:50%; transform: translate(-50%, -50%); border:5px solid black"">","","","","","","","",""
"","8333.480000001146","sequential-stimulus-presentation-old","34","211652","0.0-13.0-1.0","SS1619740299665","trial","","40","500","8833.480000001146","images/stimuli/spore_stims/complex_07_A_b.gif","images/stimuli/spore_stims/complex_08_A_a.gif","self_paced","","2","complex_dissimilar","images/stimuli/spore_stims/complex_08_A_a.gif","","","","",""
"","null","html-keyboard-response","35","212485","0.0-13.0-0.1","SS1619740299665","","","null","","","","","","<p><img src= images/blank.png width =""600"" height = ""600"" style=""position:fixed;top:50%; left:50%; transform: translate(-50%, -50%); border:5px solid black"">","","","","","","","",""
"","3266.334999992978","sequential-stimulus-presentation-old","36","216255","0.0-13.0-1.1","SS1619740299665","trial","","40","500","3766.334999992978","images/stimuli/spore_stims/complex_07_A_b.gif","images/stimuli/spore_stims/complex_08_A_a.gif","self_paced","","2","complex_dissimilar","images/stimuli/spore_stims/complex_07_A_b.gif","","","","",""
"","null","html-keyboard-response","37","217229","0.0-13.0-0.2","SS1619740299665","","","null","","","","","","<p><img src= images/blank.png width =""600"" height = ""600"" style=""position:fixed;top:50%; left:50%; transform: translate(-50%, -50%); border:5px solid black"">","","","","","","","",""
"","1212.614999996731","sequential-stimulus-presentation-old","38","218945","0.0-13.0-1.2","SS1619740299665","trial","","40","500","1712.614999996731","images/stimuli/spore_stims/complex_07_A_b.gif","images/stimuli/spore_stims/complex_08_A_a.gif","self_paced","","2","complex_dissimilar","images/stimuli/spore_stims/complex_08_A_a.gif","","","","",""
"","null","html-keyboard-response","39","219769","0.0-13.0-0.3","SS1619740299665","","","null","","","","","","<p><img src= images/blank.png width =""600"" height = ""600"" style=""position:fixed;top:50%; left:50%; transform: translate(-50%, -50%); border:5px solid black"">","","","","","","","",""
"","1834.7349999821745","sequential-stimulus-presentation-old","40","222111","0.0-13.0-1.3","SS1619740299665","trial","","40","500","2334.7349999821745","images/stimuli/spore_stims/complex_07_A_b.gif","images/stimuli/spore_stims/complex_08_A_a.gif","self_paced","","2","complex_dissimilar","images/stimuli/spore_stims/complex_08_A_a.gif","","","","",""
"","null","html-keyboard-response","41","223166","0.0-13.0-0.4","SS1619740299665","","","null","","","","","","<p><img src= images/blank.png width =""600"" height = ""600"" style=""position:fixed;top:50%; left:50%; transform: translate(-50%, -50%); border:5px solid black"">","","","","","","","",""
"","1384.7399999795016","sequential-stimulus-presentation-old","42","225056","0.0-13.0-1.4","SS1619740299665","trial","","40","500","1884.7399999795016","images/stimuli/spore_stims/complex_07_A_b.gif","images/stimuli/spore_stims/complex_08_A_a.gif","self_paced","","2","complex_dissimilar","images/stimuli/spore_stims/complex_08_A_a.gif","","","","",""
"","3096.525000000838","survey-multi-choice","43","228155","0.0-14.0","SS1619740299665","math_question","","","","","","","","","","","","{""Q0"":""8""}","[0]","8","",""
"","null","html-keyboard-response","44","229147","0.0-15.0-0.0","SS1619740299665","","","null","","","","","","<p><img src= images/blank.png width =""600"" height = ""600"" style=""position:fixed;top:50%; left:50%; transform: translate(-50%, -50%); border:5px solid black"">","","","","","","","",""
"","483.3700000017416","sequential-stimulus-presentation-old","45","244635","0.0-15.0-1.0","SS1619740299665","trial","","40","500","983.3700000017416","images/stimuli/spore_stims/simple_03_A_a.gif","images/stimuli/spore_stims/simple_01_A_b.gif","forced_long","","3","simple_dissimilar","images/stimuli/spore_stims/simple_01_A_b.gif","","","","",""
"","null","html-keyboard-response","46","245656","0.0-15.0-0.1","SS1619740299665","","","null","","","","","","<p><img src= images/blank.png width =""600"" height = ""600"" style=""position:fixed;top:50%; left:50%; transform: translate(-50%, -50%); border:5px solid black"">","","","","","","","",""
"","12301.390000007814","sequential-stimulus-presentation-old","47","258461","0.0-15.0-1.1","SS1619740299665","trial","","40","500","12801.390000007814","images/stimuli/spore_stims/simple_03_A_a.gif","images/stimuli/spore_stims/simple_01_A_b.gif","forced_long","","3","simple_dissimilar","images/stimuli/spore_stims/simple_03_A_a.gif","","","","",""
"","null","html-keyboard-response","48","259531","0.0-15.0-0.2","SS1619740299665","","","null","","","","","","<p><img src= images/blank.png width =""600"" height = ""600"" style=""position:fixed;top:50%; left:50%; transform: translate(-50%, -50%); border:5px solid black"">","","","","","","","",""
"","3197.2100000130013","sequential-stimulus-presentation-old","49","263234","0.0-15.0-1.2","SS1619740299665","trial","","40","500","3697.2100000130013","images/stimuli/spore_stims/simple_03_A_a.gif","images/stimuli/spore_stims/simple_01_A_b.gif","forced_long","","3","simple_dissimilar","images/stimuli/spore_stims/simple_01_A_b.gif","","","","",""
"","null","html-keyboard-response","50","264220","0.0-15.0-0.3","SS1619740299665","","","null","","","","","","<p><img src= images/blank.png width =""600"" height = ""600"" style=""position:fixed;top:50%; left:50%; transform: translate(-50%, -50%); border:5px solid black"">","","","","","","","",""
"","3184.834999992745","sequential-stimulus-presentation-old","51","267912","0.0-15.0-1.3","SS1619740299665","trial","","40","500","3684.834999992745","images/stimuli/spore_stims/simple_03_A_a.gif","images/stimuli/spore_stims/simple_01_A_b.gif","forced_long","","3","simple_dissimilar","images/stimuli/spore_stims/simple_01_A_b.gif","","","","",""
"","2352.5549999903888","survey-multi-choice","52","270270","0.0-16.0","SS1619740299665","math_question","","","","","","","","","","","","{""Q0"":""8""}","[0]","8","",""
"","null","html-keyboard-response","53","271351","0.0-17.0-0.0","SS1619740299665","","","null","","","","","","<p><img src= images/blank.png width =""600"" height = ""600"" style=""position:fixed;top:50%; left:50%; transform: translate(-50%, -50%); border:5px solid black"">","","","","","","","",""
"","1628.6899999831803","sequential-stimulus-presentation-old","54","273484","0.0-17.0-1.0","SS1619740299665","trial","","40","500","2128.6899999831803","images/stimuli/spore_stims/simple_13_A_b.gif","images/stimuli/spore_stims/simple_17_A_a.gif","forced_short","","4","simple_dissimilar","images/stimuli/spore_stims/simple_17_A_a.gif","","","","",""
"","null","html-keyboard-response","55","274660","0.0-17.0-0.1","SS1619740299665","","","null","","","","","","<p><img src= images/blank.png width =""600"" height = ""600"" style=""position:fixed;top:50%; left:50%; transform: translate(-50%, -50%); border:5px solid black"">","","","","","","","",""
"","3618.4200000134297","sequential-stimulus-presentation-old","56","278787","0.0-17.0-1.1","SS1619740299665","trial","","40","500","4118.42000001343","images/stimuli/spore_stims/simple_13_A_b.gif","images/stimuli/spore_stims/simple_17_A_a.gif","forced_short","","4","simple_dissimilar","images/stimuli/spore_stims/simple_13_A_b.gif","","","","",""
"","null","html-keyboard-response","57","279627","0.0-17.0-0.2","SS1619740299665","","","null","","","","","","<p><img src= images/blank.png width =""600"" height = ""600"" style=""position:fixed;top:50%; left:50%; transform: translate(-50%, -50%); border:5px solid black"">","","","","","","","",""
"","3101.2850000115577","sequential-stimulus-presentation-old","58","283237","0.0-17.0-1.2","SS1619740299665","trial","","40","500","3601.2850000115577","images/stimuli/spore_stims/simple_13_A_b.gif","images/stimuli/spore_stims/simple_17_A_a.gif","forced_short","","4","simple_dissimilar","images/stimuli/spore_stims/simple_17_A_a.gif","","","","",""
"","null","html-keyboard-response","59","284383","0.0-17.0-0.3","SS1619740299665","","","null","","","","","","<p><img src= images/blank.png width =""600"" height = ""600"" style=""position:fixed;top:50%; left:50%; transform: translate(-50%, -50%); border:5px solid black"">","","","","","","","",""
"","971.7550000059418","sequential-stimulus-presentation-old","60","285862","0.0-17.0-1.3","SS1619740299665","trial","","40","500","1471.7550000059418","images/stimuli/spore_stims/simple_13_A_b.gif","images/stimuli/spore_stims/simple_17_A_a.gif","forced_short","","4","simple_dissimilar","images/stimuli/spore_stims/simple_17_A_a.gif","","","","",""
"","null","html-keyboard-response","61","286755","0.0-17.0-0.4","SS1619740299665","","","null","","","","","","<p><img src= images/blank.png width =""600"" height = ""600"" style=""position:fixed;top:50%; left:50%; transform: translate(-50%, -50%); border:5px solid black"">","","","","","","","",""
"","536.0799999907613","sequential-stimulus-presentation-old","62","287799","0.0-17.0-1.4","SS1619740299665","trial","","40","500","1036.0799999907613","images/stimuli/spore_stims/simple_13_A_b.gif","images/stimuli/spore_stims/simple_17_A_a.gif","forced_short","","4","simple_dissimilar","images/stimuli/spore_stims/simple_17_A_a.gif","","","","",""
"","null","html-keyboard-response","63","288704","0.0-17.0-0.5","SS1619740299665","","","null","","","","","","<p><img src= images/blank.png width =""600"" height = ""600"" style=""position:fixed;top:50%; left:50%; transform: translate(-50%, -50%); border:5px solid black"">","","","","","","","",""
"","1544.8150000011083","sequential-stimulus-presentation-old","64","290755","0.0-17.0-1.5","SS1619740299665","trial","","40","500","2044.8150000011083","images/stimuli/spore_stims/simple_13_A_b.gif","images/stimuli/spore_stims/simple_17_A_a.gif","forced_short","","4","simple_dissimilar","images/stimuli/spore_stims/simple_13_A_b.gif","","","","",""
"","2627.0450000010896","survey-multi-choice","65","293383","0.0-18.0","SS1619740299665","math_question","","","","","","","","","","","","{""Q0"":""18""}","[0]","18","",""
"","null","html-keyboard-response","66","294546","0.0-19.0-0.0","SS1619740299665","","","null","","","","","","<p><img src= images/blank.png width =""600"" height = ""600"" style=""position:fixed;top:50%; left:50%; transform: translate(-50%, -50%); border:5px solid black"">","","","","","","","",""
"","879.4599999964703","sequential-stimulus-presentation-old","67","310433","0.0-19.0-1.0","SS1619740299665","trial","","40","500","1379.4599999964703","images/stimuli/spore_stims/complex_09_A_a.gif","images/stimuli/spore_stims/complex_06_A_b.gif","forced_long","","5","complex_dissimilar","images/stimuli/spore_stims/complex_06_A_b.gif","","","","",""
"","null","html-keyboard-response","68","311544","0.0-19.0-0.1","SS1619740299665","","","null","","","","","","<p><img src= images/blank.png width =""600"" height = ""600"" style=""position:fixed;top:50%; left:50%; transform: translate(-50%, -50%); border:5px solid black"">","","","","","","","",""
"","1143.339999980526","sequential-stimulus-presentation-old","69","313197","0.0-19.0-1.1","SS1619740299665","trial","","40","500","1643.339999980526","images/stimuli/spore_stims/complex_09_A_a.gif","images/stimuli/spore_stims/complex_06_A_b.gif","forced_long","","5","complex_dissimilar","images/stimuli/spore_stims/complex_06_A_b.gif","","","","",""
"","null","html-keyboard-response","70","314030","0.0-19.0-0.2","SS1619740299665","","","null","","","","","","<p><img src= images/blank.png width =""600"" height = ""600"" style=""position:fixed;top:50%; left:50%; transform: translate(-50%, -50%); border:5px solid black"">","","","","","","","",""
"","1296.954999997979","sequential-stimulus-presentation-old","71","315834","0.0-19.0-1.2","SS1619740299665","trial","","40","500","1796.954999997979","images/stimuli/spore_stims/complex_09_A_a.gif","images/stimuli/spore_stims/complex_06_A_b.gif","forced_long","","5","complex_dissimilar","images/stimuli/spore_stims/complex_09_A_a.gif","","","","",""
"","null","html-keyboard-response","72","316772","0.0-19.0-0.3","SS1619740299665","","","null","","","","","","<p><img src= images/blank.png width =""600"" height = ""600"" style=""position:fixed;top:50%; left:50%; transform: translate(-50%, -50%); border:5px solid black"">","","","","","","","",""
"","39.27000000840053","sequential-stimulus-presentation-old","73","317319","0.0-19.0-1.3","SS1619740299665","trial","","40","500","539.2700000084005","images/stimuli/spore_stims/complex_09_A_a.gif","images/stimuli/spore_stims/complex_06_A_b.gif","forced_long","","5","complex_dissimilar","images/stimuli/spore_stims/complex_06_A_b.gif","","","","",""
"","null","html-keyboard-response","74","318163","0.0-19.0-0.4","SS1619740299665","","","null","","","","","","<p><img src= images/blank.png width =""600"" height = ""600"" style=""position:fixed;top:50%; left:50%; transform: translate(-50%, -50%); border:5px solid black"">","","","","","","","",""
"","133.05500001297332","sequential-stimulus-presentation-old","75","318804","0.0-19.0-1.4","SS1619740299665","trial","","40","500","633.0550000129733","images/stimuli/spore_stims/complex_09_A_a.gif","images/stimuli/spore_stims/complex_06_A_b.gif","forced_long","","5","complex_dissimilar","images/stimuli/spore_stims/complex_06_A_b.gif","","","","",""
"","null","html-keyboard-response","76","320097","0.0-19.0-0.5","SS1619740299665","","","null","","","","","","<p><img src= images/blank.png width =""600"" height = ""600"" style=""position:fixed;top:50%; left:50%; transform: translate(-50%, -50%); border:5px solid black"">","","","","","","","",""
"","119.17000001994893","sequential-stimulus-presentation-old","77","320724","0.0-19.0-1.5","SS1619740299665","trial","","40","500","619.1700000199489","images/stimuli/spore_stims/complex_09_A_a.gif","images/stimuli/spore_stims/complex_06_A_b.gif","forced_long","","5","complex_dissimilar","images/stimuli/spore_stims/complex_09_A_a.gif","","","","",""
"","2737.0299999893177","survey-multi-choice","78","323464","0.0-20.0","SS1619740299665","math_question","","","","","","","","","","","","{""Q0"":""10""}","[0]","10","",""
"","null","html-keyboard-response","79","324630","0.0-21.0-0.0","SS1619740299665","","","null","","","","","","<p><img src= images/blank.png width =""600"" height = ""600"" style=""position:fixed;top:50%; left:50%; transform: translate(-50%, -50%); border:5px solid black"">","","","","","","","",""
"","4752.189999999246","sequential-stimulus-presentation-old","80","329890","0.0-21.0-1.0","SS1619740299665","trial","","40","500","5252.189999999246","images/stimuli/spore_stims/simple_19_A_a.gif","images/stimuli/spore_stims/simple_17_A_b.gif","self_paced","","6","simple_dissimilar","images/stimuli/spore_stims/simple_17_A_b.gif","","","","",""
"","null","html-keyboard-response","81","330752","0.0-21.0-0.1","SS1619740299665","","","null","","","","","","<p><img src= images/blank.png width =""600"" height = ""600"" style=""position:fixed;top:50%; left:50%; transform: translate(-50%, -50%); border:5px solid black"">","","","","","","","",""
"","360.419999982696","sequential-stimulus-presentation-old","82","331622","0.0-21.0-1.1","SS1619740299665","trial","","40","500","860.419999982696","images/stimuli/spore_stims/simple_19_A_a.gif","images/stimuli/spore_stims/simple_17_A_b.gif","self_paced","","6","simple_dissimilar","images/stimuli/spore_stims/simple_17_A_b.gif","","","","",""
"","null","html-keyboard-response","83","332855","0.0-21.0-0.2","SS1619740299665","","","null","","","","","","<p><img src= images/blank.png width =""600"" height = ""600"" style=""position:fixed;top:50%; left:50%; transform: translate(-50%, -50%); border:5px solid black"">","","","","","","","",""
"","787.9749999847263","sequential-stimulus-presentation-old","84","334148","0.0-21.0-1.2","SS1619740299665","trial","","40","500","1287.9749999847263","images/stimuli/spore_stims/simple_19_A_a.gif","images/stimuli/spore_stims/simple_17_A_b.gif","self_paced","","6","simple_dissimilar","images/stimuli/spore_stims/simple_17_A_b.gif","","","","",""
"","null","html-keyboard-response","85","335156","0.0-21.0-0.3","SS1619740299665","","","null","","","","","","<p><img src= images/blank.png width =""600"" height = ""600"" style=""position:fixed;top:50%; left:50%; transform: translate(-50%, -50%); border:5px solid black"">","","","","","","","",""
"","6.750000000465661","sequential-stimulus-presentation-old","86","335669","0.0-21.0-1.3","SS1619740299665","trial","","40","500","506.75000000046566","images/stimuli/spore_stims/simple_19_A_a.gif","images/stimuli/spore_stims/simple_17_A_b.gif","self_paced","","6","simple_dissimilar","images/stimuli/spore_stims/simple_17_A_b.gif","","","","",""
"","2922.164999996312","survey-multi-choice","87","338597","0.0-22.0","SS1619740299665","math_question","","","","","","","","","","","","{""Q0"":""7""}","[0]","7","",""
"","null","html-keyboard-response","88","339644","0.0-23.0-0.0","SS1619740299665","","","null","","","","","","<p><img src= images/blank.png width =""600"" height = ""600"" style=""position:fixed;top:50%; left:50%; transform: translate(-50%, -50%); border:5px solid black"">","","","","","","","",""
"","3156.5300000074785","sequential-stimulus-presentation-old","89","343309","0.0-23.0-1.0","SS1619740299665","trial","","40","500","3656.5300000074785","images/stimuli/spore_stims/simple_15_A_a.gif","images/stimuli/spore_stims/simple_08_A_b.gif","self_paced","","7","simple_dissimilar","images/stimuli/spore_stims/simple_08_A_b.gif","","","","",""
"","null","html-keyboard-response","90","344554","0.0-23.0-0.1","SS1619740299665","","","null","","","","","","<p><img src= images/blank.png width =""600"" height = ""600"" style=""position:fixed;top:50%; left:50%; transform: translate(-50%, -50%); border:5px solid black"">","","","","","","","",""
"","501.3899999903515","sequential-stimulus-presentation-old","91","345565","0.0-23.0-1.1","SS1619740299665","trial","","40","500","1001.3899999903515","images/stimuli/spore_stims/simple_15_A_a.gif","images/stimuli/spore_stims/simple_08_A_b.gif","self_paced","","7","simple_dissimilar","images/stimuli/spore_stims/simple_08_A_b.gif","","","","",""
"","null","html-keyboard-response","92","346491","0.0-23.0-0.2","SS1619740299665","","","null","","","","","","<p><img src= images/blank.png width =""600"" height = ""600"" style=""position:fixed;top:50%; left:50%; transform: translate(-50%, -50%); border:5px solid black"">","","","","","","","",""
"","983.6800000048243","sequential-stimulus-presentation-old","93","347983","0.0-23.0-1.2","SS1619740299665","trial","","40","500","1483.6800000048243","images/stimuli/spore_stims/simple_15_A_a.gif","images/stimuli/spore_stims/simple_08_A_b.gif","self_paced","","7","simple_dissimilar","images/stimuli/spore_stims/simple_08_A_b.gif","","","","",""
"","null","html-keyboard-response","94","349023","0.0-23.0-0.3","SS1619740299665","","","null","","","","","","<p><img src= images/blank.png width =""600"" height = ""600"" style=""position:fixed;top:50%; left:50%; transform: translate(-50%, -50%); border:5px solid black"">","","","","","","","",""
"","2303.3749999885913","sequential-stimulus-presentation-old","95","351834","0.0-23.0-1.3","SS1619740299665","trial","","40","500","2803.3749999885913","images/stimuli/spore_stims/simple_15_A_a.gif","images/stimuli/spore_stims/simple_08_A_b.gif","self_paced","","7","simple_dissimilar","images/stimuli/spore_stims/simple_08_A_b.gif","","","","",""
"","3422.5450000085402","survey-multi-choice","96","355262","0.0-24.0","SS1619740299665","math_question","","","","","","","","","","","","{""Q0"":""14""}","[0]","14","",""
"","null","html-keyboard-response","97","356446","0.0-25.0-0.0","SS1619740299665","","","null","","","","","","<p><img src= images/blank.png width =""600"" height = ""600"" style=""position:fixed;top:50%; left:50%; transform: translate(-50%, -50%); border:5px solid black"">","","","","","","","",""
"","850.6850000121631","sequential-stimulus-presentation-old","98","357807","0.0-25.0-1.0","SS1619740299665","trial","","40","500","1350.685000012163","images/stimuli/spore_stims/complex_16_A_a.gif","images/stimuli/spore_stims/complex_02_A_b.gif","forced_short","","8","complex_dissimilar","images/stimuli/spore_stims/complex_02_A_b.gif","","","","",""
"","null","html-keyboard-response","99","358973","0.0-25.0-0.1","SS1619740299665","","","null","","","","","","<p><img src= images/blank.png width =""600"" height = ""600"" style=""position:fixed;top:50%; left:50%; transform: translate(-50%, -50%); border:5px solid black"">","","","","","","","",""
"","1181.3749999855645","sequential-stimulus-presentation-old","100","360664","0.0-25.0-1.1","SS1619740299665","trial","","40","500","1681.3749999855645","images/stimuli/spore_stims/complex_16_A_a.gif","images/stimuli/spore_stims/complex_02_A_b.gif","forced_short","","8","complex_dissimilar","images/stimuli/spore_stims/complex_02_A_b.gif","","","","",""
"","null","html-keyboard-response","101","361855","0.0-25.0-0.2","SS1619740299665","","","null","","","","","","<p><img src= images/blank.png width =""600"" height = ""600"" style=""position:fixed;top:50%; left:50%; transform: translate(-50%, -50%); border:5px solid black"">","","","","","","","",""
"","1324.1300000227056","sequential-stimulus-presentation-old","102","363687","0.0-25.0-1.2","SS1619740299665","trial","","40","500","1824.1300000227056","images/stimuli/spore_stims/complex_16_A_a.gif","images/stimuli/spore_stims/complex_02_A_b.gif","forced_short","","8","complex_dissimilar","images/stimuli/spore_stims/complex_02_A_b.gif","","","","",""
"","null","html-keyboard-response","103","364546","0.0-25.0-0.3","SS1619740299665","","","null","","","","","","<p><img src= images/blank.png width =""600"" height = ""600"" style=""position:fixed;top:50%; left:50%; transform: translate(-50%, -50%); border:5px solid black"">","","","","","","","",""
"","1119.5250000164378","sequential-stimulus-presentation-old","104","366172","0.0-25.0-1.3","SS1619740299665","trial","","40","500","1619.5250000164378","images/stimuli/spore_stims/complex_16_A_a.gif","images/stimuli/spore_stims/complex_02_A_b.gif","forced_short","","8","complex_dissimilar","images/stimuli/spore_stims/complex_02_A_b.gif","","","","",""
"","null","html-keyboard-response","105","367125","0.0-25.0-0.4","SS1619740299665","","","null","","","","","","<p><img src= images/blank.png width =""600"" height = ""600"" style=""position:fixed;top:50%; left:50%; transform: translate(-50%, -50%); border:5px solid black"">","","","","","","","",""
"","2364.115000003949","sequential-stimulus-presentation-old","106","369997","0.0-25.0-1.4","SS1619740299665","trial","","40","500","2864.115000003949","images/stimuli/spore_stims/complex_16_A_a.gif","images/stimuli/spore_stims/complex_02_A_b.gif","forced_short","","8","complex_dissimilar","images/stimuli/spore_stims/complex_02_A_b.gif","","","","",""
"","null","html-keyboard-response","107","370875","0.0-25.0-0.5","SS1619740299665","","","null","","","","","","<p><img src= images/blank.png width =""600"" height = ""600"" style=""position:fixed;top:50%; left:50%; transform: translate(-50%, -50%); border:5px solid black"">","","","","","","","",""
"","1356.03500000434","sequential-stimulus-presentation-old","108","372740","0.0-25.0-1.5","SS1619740299665","trial","","40","500","1856.03500000434","images/stimuli/spore_stims/complex_16_A_a.gif","images/stimuli/spore_stims/complex_02_A_b.gif","forced_short","","8","complex_dissimilar","images/stimuli/spore_stims/complex_02_A_b.gif","","","","",""
"","2391.57000000705","survey-multi-choice","109","375139","0.0-26.0","SS1619740299665","math_question","","","","","","","","","","","","{""Q0"":""8""}","[0]","8","",""
"","null","html-keyboard-response","110","376318","0.0-27.0-0.0","SS1619740299665","","","null","","","","","","<p><img src= images/blank.png width =""600"" height = ""600"" style=""position:fixed;top:50%; left:50%; transform: translate(-50%, -50%); border:5px solid black"">","","","","","","","",""
"","2656.360000022687","sequential-stimulus-presentation-old","111","393984","0.0-27.0-1.0","SS1619740299665","trial","","40","500","3156.360000022687","images/stimuli/spore_stims/complex_05_A_a.gif","images/stimuli/spore_stims/complex_09_A_b.gif","forced_long","","9","complex_dissimilar","images/stimuli/spore_stims/complex_09_A_b.gif","","","","",""
"","null","html-keyboard-response","112","394906","0.0-27.0-0.1","SS1619740299665","","","null","","","","","","<p><img src= images/blank.png width =""600"" height = ""600"" style=""position:fixed;top:50%; left:50%; transform: translate(-50%, -50%); border:5px solid black"">","","","","","","","",""
"","488.12999998335727","sequential-stimulus-presentation-old","113","395900","0.0-27.0-1.1","SS1619740299665","trial","","40","500","988.1299999833573","images/stimuli/spore_stims/complex_05_A_a.gif","images/stimuli/spore_stims/complex_09_A_b.gif","forced_long","","9","complex_dissimilar","images/stimuli/spore_stims/complex_09_A_b.gif","","","","",""
"","null","html-keyboard-response","114","397043","0.0-27.0-0.2","SS1619740299665","","","null","","","","","","<p><img src= images/blank.png width =""600"" height = ""600"" style=""position:fixed;top:50%; left:50%; transform: translate(-50%, -50%); border:5px solid black"">","","","","","","","",""
"","2669.399999984307","sequential-stimulus-presentation-old","115","400218","0.0-27.0-1.2","SS1619740299665","trial","","40","500","3169.399999984307","images/stimuli/spore_stims/complex_05_A_a.gif","images/stimuli/spore_stims/complex_09_A_b.gif","forced_long","","9","complex_dissimilar","images/stimuli/spore_stims/complex_05_A_a.gif","","","","",""
"","null","html-keyboard-response","116","401365","0.0-27.0-0.3","SS1619740299665","","","null","","","","","","<p><img src= images/blank.png width =""600"" height = ""600"" style=""position:fixed;top:50%; left:50%; transform: translate(-50%, -50%); border:5px solid black"">","","","","","","","",""
"","349.6150000137277","sequential-stimulus-presentation-old","117","402223","0.0-27.0-1.3","SS1619740299665","trial","","40","500","849.6150000137277","images/stimuli/spore_stims/complex_05_A_a.gif","images/stimuli/spore_stims/complex_09_A_b.gif","forced_long","","9","complex_dissimilar","images/stimuli/spore_stims/complex_09_A_b.gif","","","","",""
"","null","html-keyboard-response","118","403172","0.0-27.0-0.4","SS1619740299665","","","null","","","","","","<p><img src= images/blank.png width =""600"" height = ""600"" style=""position:fixed;top:50%; left:50%; transform: translate(-50%, -50%); border:5px solid black"">","","","","","","","",""
"","757.7499999897555","sequential-stimulus-presentation-old","119","404439","0.0-27.0-1.4","SS1619740299665","trial","","40","500","1257.7499999897555","images/stimuli/spore_stims/complex_05_A_a.gif","images/stimuli/spore_stims/complex_09_A_b.gif","forced_long","","9","complex_dissimilar","images/stimuli/spore_stims/complex_09_A_b.gif","","","","",""
"","null","html-keyboard-response","120","405366","0.0-27.0-0.5","SS1619740299665","","","null","","","","","","<p><img src= images/blank.png width =""600"" height = ""600"" style=""position:fixed;top:50%; left:50%; transform: translate(-50%, -50%); border:5px solid black"">","","","","","","","",""
"","154.06000000075437","sequential-stimulus-presentation-old","121","406030","0.0-27.0-1.5","SS1619740299665","trial","","40","500","654.0600000007544","images/stimuli/spore_stims/complex_05_A_a.gif","images/stimuli/spore_stims/complex_09_A_b.gif","forced_long","","9","complex_dissimilar","images/stimuli/spore_stims/complex_05_A_a.gif","","","","",""
"","3323.159999999916","survey-multi-choice","122","409359","0.0-28.0","SS1619740299665","math_question","","","","","","","","","","","","{""Q0"":""16""}","[0]","16","",""
"","null","html-keyboard-response","123","410500","0.0-29.0-0.0","SS1619740299665","","","null","","","","","","<p><img src= images/blank.png width =""600"" height = ""600"" style=""position:fixed;top:50%; left:50%; transform: translate(-50%, -50%); border:5px solid black"">","","","","","","","",""
"","2404.945000016596","sequential-stimulus-presentation-old","124","427914","0.0-29.0-1.0","SS1619740299665","trial","","40","500","2904.945000016596","images/stimuli/spore_stims/simple_02_A_a.gif","images/stimuli/spore_stims/simple_18_A_b.gif","forced_long","","10","simple_dissimilar","images/stimuli/spore_stims/simple_18_A_b.gif","","","","",""
"","null","html-keyboard-response","125","429212","0.0-29.0-0.1","SS1619740299665","","","null","","","","","","<p><img src= images/blank.png width =""600"" height = ""600"" style=""position:fixed;top:50%; left:50%; transform: translate(-50%, -50%); border:5px solid black"">","","","","","","","",""
"","560.5199999990873","sequential-stimulus-presentation-old","126","430281","0.0-29.0-1.1","SS1619740299665","trial","","40","500","1060.5199999990873","images/stimuli/spore_stims/simple_02_A_a.gif","images/stimuli/spore_stims/simple_18_A_b.gif","forced_long","","10","simple_dissimilar","images/stimuli/spore_stims/simple_18_A_b.gif","","","","",""
"","null","html-keyboard-response","127","431267","0.0-29.0-0.2","SS1619740299665","","","null","","","","","","<p><img src= images/blank.png width =""600"" height = ""600"" style=""position:fixed;top:50%; left:50%; transform: translate(-50%, -50%); border:5px solid black"">","","","","","","","",""
"","1062.9849999968428","sequential-stimulus-presentation-old","128","432838","0.0-29.0-1.2","SS1619740299665","trial","","40","500","1562.9849999968428","images/stimuli/spore_stims/simple_02_A_a.gif","images/stimuli/spore_stims/simple_18_A_b.gif","forced_long","","10","simple_dissimilar","images/stimuli/spore_stims/simple_02_A_a.gif","","","","",""
"","null","html-keyboard-response","129","433718","0.0-29.0-0.3","SS1619740299665","","","null","","","","","","<p><img src= images/blank.png width =""600"" height = ""600"" style=""position:fixed;top:50%; left:50%; transform: translate(-50%, -50%); border:5px solid black"">","","","","","","","",""
"","241.16499998490326","sequential-stimulus-presentation-old","130","434468","0.0-29.0-1.3","SS1619740299665","trial","","40","500","741.1649999849033","images/stimuli/spore_stims/simple_02_A_a.gif","images/stimuli/spore_stims/simple_18_A_b.gif","forced_long","","10","simple_dissimilar","images/stimuli/spore_stims/simple_02_A_a.gif","","","","",""
"","2673.37000000407","survey-multi-choice","131","437147","0.0-30.0","SS1619740299665","math_question","","","","","","","","","","","","{""Q0"":""3""}","[0]","3","",""
"","null","html-keyboard-response","132","438080","0.0-31.0-0.0","SS1619740299665","","","null","","","","","","<p><img src= images/blank.png width =""600"" height = ""600"" style=""position:fixed;top:50%; left:50%; transform: translate(-50%, -50%); border:5px solid black"">","","","","","","","",""
"","317.0749999990221","sequential-stimulus-presentation-old","133","438908","0.0-31.0-1.0","SS1619740299665","trial","","40","500","817.0749999990221","images/stimuli/spore_stims/complex_05_A_b.gif","images/stimuli/spore_stims/complex_01_A_a.gif","forced_short","","11","complex_dissimilar","images/stimuli/spore_stims/complex_01_A_a.gif","","","","",""
"","null","html-keyboard-response","134","440027","0.0-31.0-0.1","SS1619740299665","","","null","","","","","","<p><img src= images/blank.png width =""600"" height = ""600"" style=""position:fixed;top:50%; left:50%; transform: translate(-50%, -50%); border:5px solid black"">","","","","","","","",""
"","127.54499999573454","sequential-stimulus-presentation-old","135","440665","0.0-31.0-1.1","SS1619740299665","trial","","40","500","627.5449999957345","images/stimuli/spore_stims/complex_05_A_b.gif","images/stimuli/spore_stims/complex_01_A_a.gif","forced_short","","11","complex_dissimilar","images/stimuli/spore_stims/complex_01_A_a.gif","","","","",""
"","null","html-keyboard-response","136","441625","0.0-31.0-0.2","SS1619740299665","","","null","","","","","","<p><img src= images/blank.png width =""600"" height = ""600"" style=""position:fixed;top:50%; left:50%; transform: translate(-50%, -50%); border:5px solid black"">","","","","","","","",""
"","698.420000000624","sequential-stimulus-presentation-old","137","442833","0.0-31.0-1.2","SS1619740299665","trial","","40","500","1198.420000000624","images/stimuli/spore_stims/complex_05_A_b.gif","images/stimuli/spore_stims/complex_01_A_a.gif","forced_short","","11","complex_dissimilar","images/stimuli/spore_stims/complex_05_A_b.gif","","","","",""
"","null","html-keyboard-response","138","444040","0.0-31.0-0.3","SS1619740299665","","","null","","","","","","<p><img src= images/blank.png width =""600"" height = ""600"" style=""position:fixed;top:50%; left:50%; transform: translate(-50%, -50%); border:5px solid black"">","","","","","","","",""
"","2647.7300000260584","sequential-stimulus-presentation-old","139","447194","0.0-31.0-1.3","SS1619740299665","trial","","40","500","3147.7300000260584","images/stimuli/spore_stims/complex_05_A_b.gif","images/stimuli/spore_stims/complex_01_A_a.gif","forced_short","","11","complex_dissimilar","images/stimuli/spore_stims/complex_01_A_a.gif","","","","",""
"[{""page_index"":0,""viewing_time"":4276.740000001155}]","4277.354999998352","instructions","140","451479","0.0-32.0","SS1619740299665","instructions","","","","","","","","","","","","","","","",""
"","23064.02000001981","survey-likert","141","474553","0.0-33.0","SS1619740299665","similarity_question","","","","","","","","","","","","{""Q0"":4}","[0]","","images/stimuli/spore_stims/simple_01_A_b.gif","images/stimuli/spore_stims/simple_03_A_a.gif"
"","17003.5650000209","survey-likert","142","491563","0.0-34.0","SS1619740299665","similarity_question","","","","","","","","","","","","{""Q0"":0}","[0]","","images/stimuli/spore_stims/complex_16_A_a.gif","images/stimuli/spore_stims/complex_02_A_b.gif"
"","11493.59500000719","survey-likert","143","503068","0.0-35.0","SS1619740299665","similarity_question","","","","","","","","","","","","{""Q0"":4}","[0]","","images/stimuli/spore_stims/simple_08_A_a.gif","images/stimuli/spore_stims/simple_19_A_b.gif"
"","3823.545000021113","survey-likert","144","506901","0.0-36.0","SS1619740299665","similarity_question","","","","","","","","","","","","{""Q0"":0}","[0]","","images/stimuli/spore_stims/complex_06_A_b.gif","images/stimuli/spore_stims/complex_09_A_a.gif"
"","4893.215000018245","survey-likert","145","511804","0.0-37.0","SS1619740299665","similarity_question","","","","","","","","","","","","{""Q0"":5}","[0]","","images/stimuli/spore_stims/simple_08_A_b.gif","images/stimuli/spore_stims/simple_15_A_a.gif"
"","9026.855000003707","survey-likert","146","520841","0.0-38.0","SS1619740299665","similarity_question","","","","","","","","","","","","{""Q0"":1}","[0]","","images/stimuli/spore_stims/complex_05_A_b.gif","images/stimuli/spore_stims/complex_01_A_a.gif"
"","11511.8150000053","survey-likert","147","532362","0.0-39.0","SS1619740299665","similarity_question","","","","","","","","","","","","{""Q0"":0}","[0]","","images/stimuli/spore_stims/simple_18_A_b.gif","images/stimuli/spore_stims/simple_02_A_a.gif"
"","4174.459999980172","survey-likert","148","536547","0.0-40.0","SS1619740299665","similarity_question","","","","","","","","","","","","{""Q0"":5}","[0]","","images/stimuli/spore_stims/simple_17_A_a.gif","images/stimuli/spore_stims/simple_13_A_b.gif"
"","3931.3899999833666","survey-likert","149","540488","0.0-41.0","SS1619740299665","similarity_question","","","","","","","","","","","","{""Q0"":0}","[0]","","images/stimuli/spore_stims/complex_08_A_a.gif","images/stimuli/spore_stims/complex_07_A_b.gif"
"","5112.995000003139","survey-likert","150","545612","0.0-42.0","SS1619740299665","similarity_question","","","","","","","","","","","","{""Q0"":0}","[0]","","images/stimuli/spore_stims/complex_11_A_a.gif","images/stimuli/spore_stims/complex_16_A_b.gif"
"","6098.064999998314","survey-likert","151","551722","0.0-43.0","SS1619740299665","similarity_question","","","","","","","","","","","","{""Q0"":1}","[0]","","images/stimuli/spore_stims/simple_19_A_a.gif","images/stimuli/spore_stims/simple_17_A_b.gif"
"","4126.714999991236","survey-likert","152","555859","0.0-44.0","SS1619740299665","similarity_question","","","","","","","","","","","","{""Q0"":0}","[0]","","images/stimuli/spore_stims/complex_09_A_b.gif","images/stimuli/spore_stims/complex_05_A_a.gif"
"[{""page_index"":0,""viewing_time"":4288.849999982631}]","4289.374999993015","instructions","153","560157","0.0-45.0","SS1619740299665","instructions","","","","","","","","","","","","","","","",""
"","6897.564999992028","survey-likert","154","567065","0.0-46.0","SS1619740299665","","","","","","","","","images/stimuli/spore_stims/complex_02_A_b.gif","","","","{""Q0"":4}","[0]","","",""
"","4349.279999994906","survey-likert","155","571424","0.0-47.0","SS1619740299665","","","","","","","","","images/stimuli/spore_stims/simple_15_A_a.gif","","","","{""Q0"":0}","[0]","","",""
"","4735.134999995353","survey-likert","156","576170","0.0-48.0","SS1619740299665","","","","","","","","","images/stimuli/spore_stims/simple_17_A_b.gif","","","","{""Q0"":1}","[0]","","",""
"","4468.4049999923445","survey-likert","157","580646","0.0-49.0","SS1619740299665","","","","","","","","","images/stimuli/spore_stims/complex_08_A_a.gif","","","","{""Q0"":6}","[0]","","",""
"","4285.854999994626","survey-likert","158","584941","0.0-50.0","SS1619740299665","","","","","","","","","images/stimuli/spore_stims/simple_03_A_a.gif","","","","{""Q0"":1}","[0]","","",""
"","4704.960000002757","survey-likert","159","589657","0.0-51.0","SS1619740299665","","","","","","","","","images/stimuli/spore_stims/complex_09_A_b.gif","","","","{""Q0"":6}","[0]","","",""
"","4997.114999976475","survey-likert","160","594665","0.0-52.0","SS1619740299665","","","","","","","","","images/stimuli/spore_stims/simple_18_A_b.gif","","","","{""Q0"":0}","[0]","","",""
"","3083.4500000055414","survey-likert","161","597759","0.0-53.0","SS1619740299665","","","","","","","","","images/stimuli/spore_stims/simple_13_A_b.gif","","","","{""Q0"":0}","[0]","","",""
"","3907.100000011269","survey-likert","162","601675","0.0-54.0","SS1619740299665","","","","","","","","","images/stimuli/spore_stims/complex_06_A_b.gif","","","","{""Q0"":5}","[0]","","",""
"","3617.8300000028685","survey-likert","163","605303","0.0-55.0","SS1619740299665","","","","","","","","","images/stimuli/spore_stims/complex_05_A_b.gif","","","","{""Q0"":5}","[0]","","",""
"","3692.3949999909382","survey-likert","164","609002","0.0-56.0","SS1619740299665","","","","","","","","","images/stimuli/spore_stims/simple_19_A_b.gif","","","","{""Q0"":1}","[0]","","",""
"","2793.745000002673","survey-likert","165","611803","0.0-57.0","SS1619740299665","","","","","","","","","images/stimuli/spore_stims/complex_16_A_b.gif","","","","{""Q0"":6}","[0]","","",""
"[{""page_index"":0,""viewing_time"":2374.739999999292}]","2375.399999989895","instructions","166","614187","0.0-58.0","SS1619740299665","instructions","","","","","","","","","","","","","","","",""
"","2885.7349999889266","demog-age","167","617095","0.0-59.0","SS1619740299665","","","","","","","","","","","","","{""age"":""23""}","","","",""
"","2629.015000013169","demog-ethnic-US","168","619740","0.0-60.0","SS1619740299665","","","","","","","","","","","","","{""ethnicity"":[""White""]}","[0]","","",""
"","3538.4349999949336","demog-gender-and-education","169","623285","0.0-61.0","SS1619740299665","","","","","","","","","","","","","{""gender"":""Female"",""education"":""Master's Degree""}","[0,1]","","",""
"","48796.6749999905","survey-text","170","672094","0.0-62.0","SS1619740299665","feedback","","","","","","","","","","","","{""Q0"":""I didn't like most of the animations, it was a little bit scary for a child""}","","","",""
"[{""page_index"":0,""viewing_time"":1269.464999990305}]","1270.0049999984913","instructions","171","673372","0.0-63.0","SS1619740299665","instructions","","","","","","","","","","","","","","","",""
