"view_history","rt","trial_type","trial_index","time_elapsed","internal_node_id","subject","stimulus_type","trial_stimulus","key_press","minimum_viewing_duration","trial_looking_time","block_deviant","block_background","exposure_type","stimulus","block_number","block_type","stimulus_displayed","responses","question_order","math_correct_answer","stimulus_left","stimulus_right"
"[{""page_index"":0,""viewing_time"":32945.81000000471}]","32948.11500000651","instructions","0","32952","0.0-0.0","SS1619740096922","","","","","","","","","","","","","","","","",""
"[{""page_index"":0,""viewing_time"":25328.20499999798},{""page_index"":1,""viewing_time"":10330.040000000736}]","35658.76999999455","instructions","1","70629","0.0-1.0","SS1619740096922","instructions","","","","","","","","","","","","","","","",""
"","9934.39500000386","sequential-stimulus-presentation-old","2","81293","0.0-2.0","SS1619740096922","","","40","500","10434.39500000386","null","null","self_paced","","","","","","","","",""
"","11453.340000007302","sequential-stimulus-presentation-old","3","93264","0.0-3.0","SS1619740096922","","","40","500","11953.340000007302","null","null","self_paced","","","","","","","","",""
"[{""page_index"":0,""viewing_time"":27741.70500000764}]","27742.75000000489","instructions","4","121018","0.0-4.0","SS1619740096922","instructions","","","","","","","","","","","","","","","",""
"","590.2849999984028","sequential-stimulus-presentation-old","5","136621","0.0-5.0","SS1619740096922","","","40","500","1090.2849999984028","null","null","forced_long","","","","","","","","",""
"","1060.6750000006286","sequential-stimulus-presentation-old","6","138272","0.0-6.0","SS1619740096922","","","40","500","1560.6750000006286","null","null","forced_long","","","","","","","","",""
"[{""page_index"":0,""viewing_time"":6636.1200000101235}]","6636.8100000108825","instructions","7","144912","0.0-7.0","SS1619740096922","instructions","","","","","","","","","","","","","","","",""
"[{""page_index"":0,""viewing_time"":16365.915000002133},{""page_index"":1,""viewing_time"":16714.389999993728},{""page_index"":2,""viewing_time"":10577.92999999947},{""page_index"":3,""viewing_time"":9258.770000000368},{""page_index"":4,""viewing_time"":1601.7400000127964}]","54519.54000000842","instructions","8","199434","0.0-8.0","SS1619740096922","instructions","","","","","","","","","","","","","","","",""
"","null","html-keyboard-response","9","200689","0.0-9.0-0.0","SS1619740096922","","","null","","","","","","<p><img src= images/blank.png width =""600"" height = ""600"" style=""position:fixed;top:50%; left:50%; transform: translate(-50%, -50%); border:5px solid black"">","","","","","","","",""
"","2856.4800000021933","sequential-stimulus-presentation-old","10","204054","0.0-9.0-1.0","SS1619740096922","trial","","40","500","3356.4800000021933","images/stimuli/spore_stims/simple_05_A_a.gif","images/stimuli/spore_stims/simple_16_A_b.gif","forced_short","","0","simple_dissimilar","images/stimuli/spore_stims/simple_16_A_b.gif","","","","",""
"","null","html-keyboard-response","11","205210","0.0-9.0-0.1","SS1619740096922","","","null","","","","","","<p><img src= images/blank.png width =""600"" height = ""600"" style=""position:fixed;top:50%; left:50%; transform: translate(-50%, -50%); border:5px solid black"">","","","","","","","",""
"","53477.880000005825","sequential-stimulus-presentation-old","12","259218","0.0-9.0-1.1","SS1619740096922","trial","","40","500","53977.880000005825","images/stimuli/spore_stims/simple_05_A_a.gif","images/stimuli/spore_stims/simple_16_A_b.gif","forced_short","","0","simple_dissimilar","images/stimuli/spore_stims/simple_16_A_b.gif","","","","",""
"","null","html-keyboard-response","13","260297","0.0-9.0-0.2","SS1619740096922","","","null","","","","","","<p><img src= images/blank.png width =""600"" height = ""600"" style=""position:fixed;top:50%; left:50%; transform: translate(-50%, -50%); border:5px solid black"">","","","","","","","",""
"","61117.204999987734","sequential-stimulus-presentation-old","14","321936","0.0-9.0-1.2","SS1619740096922","trial","","40","500","61617.204999987734","images/stimuli/spore_stims/simple_05_A_a.gif","images/stimuli/spore_stims/simple_16_A_b.gif","forced_short","","0","simple_dissimilar","images/stimuli/spore_stims/simple_16_A_b.gif","","","","",""
"","null","html-keyboard-response","15","322853","0.0-9.0-0.3","SS1619740096922","","","null","","","","","","<p><img src= images/blank.png width =""600"" height = ""600"" style=""position:fixed;top:50%; left:50%; transform: translate(-50%, -50%); border:5px solid black"">","","","","","","","",""
"","7689.6600000036415","sequential-stimulus-presentation-old","16","331063","0.0-9.0-1.3","SS1619740096922","trial","","40","500","8189.6600000036415","images/stimuli/spore_stims/simple_05_A_a.gif","images/stimuli/spore_stims/simple_16_A_b.gif","forced_short","","0","simple_dissimilar","images/stimuli/spore_stims/simple_05_A_a.gif","","","","",""
"","4061.0600000072736","survey-multi-choice","17","335191","0.0-10.0","SS1619740096922","math_question","","","","","","","","","","","","{""Q0"":""12""}","[0]","12","",""
"","null","html-keyboard-response","18","336365","0.0-11.0-0.0","SS1619740096922","","","null","","","","","","<p><img src= images/blank.png width =""600"" height = ""600"" style=""position:fixed;top:50%; left:50%; transform: translate(-50%, -50%); border:5px solid black"">","","","","","","","",""
"","591.6900000011083","sequential-stimulus-presentation-old","19","351982","0.0-11.0-1.0","SS1619740096922","trial","","40","500","1091.6900000011083","images/stimuli/spore_stims/complex_09_A_b.gif","images/stimuli/spore_stims/complex_06_A_a.gif","forced_long","","1","complex_dissimilar","images/stimuli/spore_stims/complex_06_A_a.gif","","","","",""
"","null","html-keyboard-response","20","353252","0.0-11.0-0.1","SS1619740096922","","","null","","","","","","<p><img src= images/blank.png width =""600"" height = ""600"" style=""position:fixed;top:50%; left:50%; transform: translate(-50%, -50%); border:5px solid black"">","","","","","","","",""
"","32495.55500000133","sequential-stimulus-presentation-old","21","386274","0.0-11.0-1.1","SS1619740096922","trial","","40","500","32995.55500000133","images/stimuli/spore_stims/complex_09_A_b.gif","images/stimuli/spore_stims/complex_06_A_a.gif","forced_long","","1","complex_dissimilar","images/stimuli/spore_stims/complex_06_A_a.gif","","","","",""
"","null","html-keyboard-response","22","387575","0.0-11.0-0.2","SS1619740096922","","","null","","","","","","<p><img src= images/blank.png width =""600"" height = ""600"" style=""position:fixed;top:50%; left:50%; transform: translate(-50%, -50%); border:5px solid black"">","","","","","","","",""
"","8651.379999995697","sequential-stimulus-presentation-old","23","396750","0.0-11.0-1.2","SS1619740096922","trial","","40","500","9151.379999995697","images/stimuli/spore_stims/complex_09_A_b.gif","images/stimuli/spore_stims/complex_06_A_a.gif","forced_long","","1","complex_dissimilar","images/stimuli/spore_stims/complex_06_A_a.gif","","","","",""
"","null","html-keyboard-response","24","397846","0.0-11.0-0.3","SS1619740096922","","","null","","","","","","<p><img src= images/blank.png width =""600"" height = ""600"" style=""position:fixed;top:50%; left:50%; transform: translate(-50%, -50%); border:5px solid black"">","","","","","","","",""
"","3156.889999998384","sequential-stimulus-presentation-old","25","401526","0.0-11.0-1.3","SS1619740096922","trial","","40","500","3656.889999998384","images/stimuli/spore_stims/complex_09_A_b.gif","images/stimuli/spore_stims/complex_06_A_a.gif","forced_long","","1","complex_dissimilar","images/stimuli/spore_stims/complex_06_A_a.gif","","","","",""
"","null","html-keyboard-response","26","402822","0.0-11.0-0.4","SS1619740096922","","","null","","","","","","<p><img src= images/blank.png width =""600"" height = ""600"" style=""position:fixed;top:50%; left:50%; transform: translate(-50%, -50%); border:5px solid black"">","","","","","","","",""
"","2269.5700000040233","sequential-stimulus-presentation-old","27","405614","0.0-11.0-1.4","SS1619740096922","trial","","40","500","2769.5700000040233","images/stimuli/spore_stims/complex_09_A_b.gif","images/stimuli/spore_stims/complex_06_A_a.gif","forced_long","","1","complex_dissimilar","images/stimuli/spore_stims/complex_06_A_a.gif","","","","",""
"","null","html-keyboard-response","28","406637","0.0-11.0-0.5","SS1619740096922","","","null","","","","","","<p><img src= images/blank.png width =""600"" height = ""600"" style=""position:fixed;top:50%; left:50%; transform: translate(-50%, -50%); border:5px solid black"">","","","","","","","",""
"","10676.030000002356","sequential-stimulus-presentation-old","29","417832","0.0-11.0-1.5","SS1619740096922","trial","","40","500","11176.030000002356","images/stimuli/spore_stims/complex_09_A_b.gif","images/stimuli/spore_stims/complex_06_A_a.gif","forced_long","","1","complex_dissimilar","images/stimuli/spore_stims/complex_06_A_a.gif","","","","",""
"","7039.795000004233","survey-multi-choice","30","424879","0.0-12.0","SS1619740096922","math_question","","","","","","","","","","","","{""Q0"":""15""}","[0]","15","",""
"","null","html-keyboard-response","31","425885","0.0-13.0-0.0","SS1619740096922","","","null","","","","","","<p><img src= images/blank.png width =""600"" height = ""600"" style=""position:fixed;top:50%; left:50%; transform: translate(-50%, -50%); border:5px solid black"">","","","","","","","",""
"","2910.105000002659","sequential-stimulus-presentation-old","32","429320","0.0-13.0-1.0","SS1619740096922","trial","","40","500","3410.105000002659","images/stimuli/spore_stims/simple_14_A_b.gif","images/stimuli/spore_stims/simple_02_A_a.gif","self_paced","","2","simple_dissimilar","images/stimuli/spore_stims/simple_02_A_a.gif","","","","",""
"","null","html-keyboard-response","33","430466","0.0-13.0-0.1","SS1619740096922","","","null","","","","","","<p><img src= images/blank.png width =""600"" height = ""600"" style=""position:fixed;top:50%; left:50%; transform: translate(-50%, -50%); border:5px solid black"">","","","","","","","",""
"","2245.7649999996647","sequential-stimulus-presentation-old","34","433238","0.0-13.0-1.1","SS1619740096922","trial","","40","500","2745.7649999996647","images/stimuli/spore_stims/simple_14_A_b.gif","images/stimuli/spore_stims/simple_02_A_a.gif","self_paced","","2","simple_dissimilar","images/stimuli/spore_stims/simple_02_A_a.gif","","","","",""
"","null","html-keyboard-response","35","434370","0.0-13.0-0.2","SS1619740096922","","","null","","","","","","<p><img src= images/blank.png width =""600"" height = ""600"" style=""position:fixed;top:50%; left:50%; transform: translate(-50%, -50%); border:5px solid black"">","","","","","","","",""
"","1515.0250000006054","sequential-stimulus-presentation-old","36","436408","0.0-13.0-1.2","SS1619740096922","trial","","40","500","2015.0250000006054","images/stimuli/spore_stims/simple_14_A_b.gif","images/stimuli/spore_stims/simple_02_A_a.gif","self_paced","","2","simple_dissimilar","images/stimuli/spore_stims/simple_02_A_a.gif","","","","",""
"","null","html-keyboard-response","37","437621","0.0-13.0-0.3","SS1619740096922","","","null","","","","","","<p><img src= images/blank.png width =""600"" height = ""600"" style=""position:fixed;top:50%; left:50%; transform: translate(-50%, -50%); border:5px solid black"">","","","","","","","",""
"","3607.3150000011083","sequential-stimulus-presentation-old","38","441764","0.0-13.0-1.3","SS1619740096922","trial","","40","500","4107.315000001108","images/stimuli/spore_stims/simple_14_A_b.gif","images/stimuli/spore_stims/simple_02_A_a.gif","self_paced","","2","simple_dissimilar","images/stimuli/spore_stims/simple_02_A_a.gif","","","","",""
"","null","html-keyboard-response","39","442820","0.0-13.0-0.4","SS1619740096922","","","null","","","","","","<p><img src= images/blank.png width =""600"" height = ""600"" style=""position:fixed;top:50%; left:50%; transform: translate(-50%, -50%); border:5px solid black"">","","","","","","","",""
"","3412.3949999921024","sequential-stimulus-presentation-old","40","446757","0.0-13.0-1.4","SS1619740096922","trial","","40","500","3912.3949999921024","images/stimuli/spore_stims/simple_14_A_b.gif","images/stimuli/spore_stims/simple_02_A_a.gif","self_paced","","2","simple_dissimilar","images/stimuli/spore_stims/simple_02_A_a.gif","","","","",""
"","null","html-keyboard-response","41","447593","0.0-13.0-0.5","SS1619740096922","","","null","","","","","","<p><img src= images/blank.png width =""600"" height = ""600"" style=""position:fixed;top:50%; left:50%; transform: translate(-50%, -50%); border:5px solid black"">","","","","","","","",""
"","1510.2100000076462","sequential-stimulus-presentation-old","42","449630","0.0-13.0-1.5","SS1619740096922","trial","","40","500","2010.2100000076462","images/stimuli/spore_stims/simple_14_A_b.gif","images/stimuli/spore_stims/simple_02_A_a.gif","self_paced","","2","simple_dissimilar","images/stimuli/spore_stims/simple_02_A_a.gif","","","","",""
"","3628.819999998086","survey-multi-choice","43","453264","0.0-14.0","SS1619740096922","math_question","","","","","","","","","","","","{""Q0"":""14""}","[0]","14","",""
"","null","html-keyboard-response","44","454168","0.0-15.0-0.0","SS1619740096922","","","null","","","","","","<p><img src= images/blank.png width =""600"" height = ""600"" style=""position:fixed;top:50%; left:50%; transform: translate(-50%, -50%); border:5px solid black"">","","","","","","","",""
"","836.9600000005448","sequential-stimulus-presentation-old","45","455533","0.0-15.0-1.0","SS1619740096922","trial","","40","500","1336.9600000005448","images/stimuli/spore_stims/complex_16_A_b.gif","images/stimuli/spore_stims/complex_19_A_a.gif","forced_short","","3","complex_dissimilar","images/stimuli/spore_stims/complex_19_A_a.gif","","","","",""
"","null","html-keyboard-response","46","456800","0.0-15.0-0.1","SS1619740096922","","","null","","","","","","<p><img src= images/blank.png width =""600"" height = ""600"" style=""position:fixed;top:50%; left:50%; transform: translate(-50%, -50%); border:5px solid black"">","","","","","","","",""
"","10475.9250000061","sequential-stimulus-presentation-old","47","467815","0.0-15.0-1.1","SS1619740096922","trial","","40","500","10975.9250000061","images/stimuli/spore_stims/complex_16_A_b.gif","images/stimuli/spore_stims/complex_19_A_a.gif","forced_short","","3","complex_dissimilar","images/stimuli/spore_stims/complex_16_A_b.gif","","","","",""
"","null","html-keyboard-response","48","468656","0.0-15.0-0.2","SS1619740096922","","","null","","","","","","<p><img src= images/blank.png width =""600"" height = ""600"" style=""position:fixed;top:50%; left:50%; transform: translate(-50%, -50%); border:5px solid black"">","","","","","","","",""
"","4105.235000009998","sequential-stimulus-presentation-old","49","473269","0.0-15.0-1.2","SS1619740096922","trial","","40","500","4605.235000009998","images/stimuli/spore_stims/complex_16_A_b.gif","images/stimuli/spore_stims/complex_19_A_a.gif","forced_short","","3","complex_dissimilar","images/stimuli/spore_stims/complex_16_A_b.gif","","","","",""
"","null","html-keyboard-response","50","474584","0.0-15.0-0.3","SS1619740096922","","","null","","","","","","<p><img src= images/blank.png width =""600"" height = ""600"" style=""position:fixed;top:50%; left:50%; transform: translate(-50%, -50%); border:5px solid black"">","","","","","","","",""
"","12430.634999996983","sequential-stimulus-presentation-old","51","487533","0.0-15.0-1.3","SS1619740096922","trial","","40","500","12930.634999996983","images/stimuli/spore_stims/complex_16_A_b.gif","images/stimuli/spore_stims/complex_19_A_a.gif","forced_short","","3","complex_dissimilar","images/stimuli/spore_stims/complex_19_A_a.gif","","","","",""
"","4371.039999998175","survey-multi-choice","52","491925","0.0-16.0","SS1619740096922","math_question","","","","","","","","","","","","{""Q0"":""4""}","[0]","4","",""
"","null","html-keyboard-response","53","492800","0.0-17.0-0.0","SS1619740096922","","","null","","","","","","<p><img src= images/blank.png width =""600"" height = ""600"" style=""position:fixed;top:50%; left:50%; transform: translate(-50%, -50%); border:5px solid black"">","","","","","","","",""
"","1402.170000001206","sequential-stimulus-presentation-old","54","509225","0.0-17.0-1.0","SS1619740096922","trial","","40","500","1902.170000001206","images/stimuli/spore_stims/simple_02_A_b.gif","images/stimuli/spore_stims/simple_04_A_a.gif","forced_long","","4","simple_dissimilar","images/stimuli/spore_stims/simple_04_A_a.gif","","","","",""
"","null","html-keyboard-response","55","510190","0.0-17.0-0.1","SS1619740096922","","","null","","","","","","<p><img src= images/blank.png width =""600"" height = ""600"" style=""position:fixed;top:50%; left:50%; transform: translate(-50%, -50%); border:5px solid black"">","","","","","","","",""
"","2190.954999998212","sequential-stimulus-presentation-old","56","512917","0.0-17.0-1.1","SS1619740096922","trial","","40","500","2690.954999998212","images/stimuli/spore_stims/simple_02_A_b.gif","images/stimuli/spore_stims/simple_04_A_a.gif","forced_long","","4","simple_dissimilar","images/stimuli/spore_stims/simple_04_A_a.gif","","","","",""
"","null","html-keyboard-response","57","513962","0.0-17.0-0.2","SS1619740096922","","","null","","","","","","<p><img src= images/blank.png width =""600"" height = ""600"" style=""position:fixed;top:50%; left:50%; transform: translate(-50%, -50%); border:5px solid black"">","","","","","","","",""
"","655.4000000032829","sequential-stimulus-presentation-old","58","515145","0.0-17.0-1.2","SS1619740096922","trial","","40","500","1155.400000003283","images/stimuli/spore_stims/simple_02_A_b.gif","images/stimuli/spore_stims/simple_04_A_a.gif","forced_long","","4","simple_dissimilar","images/stimuli/spore_stims/simple_04_A_a.gif","","","","",""
"","null","html-keyboard-response","59","516202","0.0-17.0-0.3","SS1619740096922","","","null","","","","","","<p><img src= images/blank.png width =""600"" height = ""600"" style=""position:fixed;top:50%; left:50%; transform: translate(-50%, -50%); border:5px solid black"">","","","","","","","",""
"","1647.754999998142","sequential-stimulus-presentation-old","60","518379","0.0-17.0-1.3","SS1619740096922","trial","","40","500","2147.754999998142","images/stimuli/spore_stims/simple_02_A_b.gif","images/stimuli/spore_stims/simple_04_A_a.gif","forced_long","","4","simple_dissimilar","images/stimuli/spore_stims/simple_02_A_b.gif","","","","",""
"","null","html-keyboard-response","61","519667","0.0-17.0-0.4","SS1619740096922","","","null","","","","","","<p><img src= images/blank.png width =""600"" height = ""600"" style=""position:fixed;top:50%; left:50%; transform: translate(-50%, -50%); border:5px solid black"">","","","","","","","",""
"","1137.4849999992875","sequential-stimulus-presentation-old","62","521332","0.0-17.0-1.4","SS1619740096922","trial","","40","500","1637.4849999992875","images/stimuli/spore_stims/simple_02_A_b.gif","images/stimuli/spore_stims/simple_04_A_a.gif","forced_long","","4","simple_dissimilar","images/stimuli/spore_stims/simple_04_A_a.gif","","","","",""
"","null","html-keyboard-response","63","522399","0.0-17.0-0.5","SS1619740096922","","","null","","","","","","<p><img src= images/blank.png width =""600"" height = ""600"" style=""position:fixed;top:50%; left:50%; transform: translate(-50%, -50%); border:5px solid black"">","","","","","","","",""
"","2119.7050000046147","sequential-stimulus-presentation-old","64","525028","0.0-17.0-1.5","SS1619740096922","trial","","40","500","2619.7050000046147","images/stimuli/spore_stims/simple_02_A_b.gif","images/stimuli/spore_stims/simple_04_A_a.gif","forced_long","","4","simple_dissimilar","images/stimuli/spore_stims/simple_04_A_a.gif","","","","",""
"","3984.9299999914365","survey-multi-choice","65","529023","0.0-18.0","SS1619740096922","math_question","","","","","","","","","","","","{""Q0"":""11""}","[0]","11","",""
"","null","html-keyboard-response","66","530076","0.0-19.0-0.0","SS1619740096922","","","null","","","","","","<p><img src= images/blank.png width =""600"" height = ""600"" style=""position:fixed;top:50%; left:50%; transform: translate(-50%, -50%); border:5px solid black"">","","","","","","","",""
"","8599.365000001853","sequential-stimulus-presentation-old","67","539184","0.0-19.0-1.0","SS1619740096922","trial","","40","500","9099.365000001853","images/stimuli/spore_stims/complex_05_A_b.gif","images/stimuli/spore_stims/complex_16_A_a.gif","self_paced","","5","complex_dissimilar","images/stimuli/spore_stims/complex_16_A_a.gif","","","","",""
"","null","html-keyboard-response","68","540093","0.0-19.0-0.1","SS1619740096922","","","null","","","","","","<p><img src= images/blank.png width =""600"" height = ""600"" style=""position:fixed;top:50%; left:50%; transform: translate(-50%, -50%); border:5px solid black"">","","","","","","","",""
"","3333.9299999934155","sequential-stimulus-presentation-old","69","543973","0.0-19.0-1.1","SS1619740096922","trial","","40","500","3833.9299999934155","images/stimuli/spore_stims/complex_05_A_b.gif","images/stimuli/spore_stims/complex_16_A_a.gif","self_paced","","5","complex_dissimilar","images/stimuli/spore_stims/complex_16_A_a.gif","","","","",""
"","null","html-keyboard-response","70","544898","0.0-19.0-0.2","SS1619740096922","","","null","","","","","","<p><img src= images/blank.png width =""600"" height = ""600"" style=""position:fixed;top:50%; left:50%; transform: translate(-50%, -50%); border:5px solid black"">","","","","","","","",""
"","1389.8099999933038","sequential-stimulus-presentation-old","71","546822","0.0-19.0-1.2","SS1619740096922","trial","","40","500","1889.8099999933038","images/stimuli/spore_stims/complex_05_A_b.gif","images/stimuli/spore_stims/complex_16_A_a.gif","self_paced","","5","complex_dissimilar","images/stimuli/spore_stims/complex_16_A_a.gif","","","","",""
"","null","html-keyboard-response","72","547880","0.0-19.0-0.3","SS1619740096922","","","null","","","","","","<p><img src= images/blank.png width =""600"" height = ""600"" style=""position:fixed;top:50%; left:50%; transform: translate(-50%, -50%); border:5px solid black"">","","","","","","","",""
"","3264.7200000064913","sequential-stimulus-presentation-old","73","551657","0.0-19.0-1.3","SS1619740096922","trial","","40","500","3764.7200000064913","images/stimuli/spore_stims/complex_05_A_b.gif","images/stimuli/spore_stims/complex_16_A_a.gif","self_paced","","5","complex_dissimilar","images/stimuli/spore_stims/complex_05_A_b.gif","","","","",""
"","3855.469999994966","survey-multi-choice","74","555518","0.0-20.0","SS1619740096922","math_question","","","","","","","","","","","","{""Q0"":""7""}","[0]","7","",""
"","null","html-keyboard-response","75","556523","0.0-21.0-0.0","SS1619740096922","","","null","","","","","","<p><img src= images/blank.png width =""600"" height = ""600"" style=""position:fixed;top:50%; left:50%; transform: translate(-50%, -50%); border:5px solid black"">","","","","","","","",""
"","1020.3199999959907","sequential-stimulus-presentation-old","76","558073","0.0-21.0-1.0","SS1619740096922","trial","","40","500","1520.3199999959907","images/stimuli/spore_stims/simple_18_A_b.gif","images/stimuli/spore_stims/simple_11_A_a.gif","forced_short","","6","simple_dissimilar","images/stimuli/spore_stims/simple_11_A_a.gif","","","","",""
"","null","html-keyboard-response","77","559260","0.0-21.0-0.1","SS1619740096922","","","null","","","","","","<p><img src= images/blank.png width =""600"" height = ""600"" style=""position:fixed;top:50%; left:50%; transform: translate(-50%, -50%); border:5px solid black"">","","","","","","","",""
"","5345.939999999246","sequential-stimulus-presentation-old","78","565137","0.0-21.0-1.1","SS1619740096922","trial","","40","500","5845.939999999246","images/stimuli/spore_stims/simple_18_A_b.gif","images/stimuli/spore_stims/simple_11_A_a.gif","forced_short","","6","simple_dissimilar","images/stimuli/spore_stims/simple_11_A_a.gif","","","","",""
"","null","html-keyboard-response","79","566090","0.0-21.0-0.2","SS1619740096922","","","null","","","","","","<p><img src= images/blank.png width =""600"" height = ""600"" style=""position:fixed;top:50%; left:50%; transform: translate(-50%, -50%); border:5px solid black"">","","","","","","","",""
"","644.6149999974295","sequential-stimulus-presentation-old","80","567278","0.0-21.0-1.2","SS1619740096922","trial","","40","500","1144.6149999974295","images/stimuli/spore_stims/simple_18_A_b.gif","images/stimuli/spore_stims/simple_11_A_a.gif","forced_short","","6","simple_dissimilar","images/stimuli/spore_stims/simple_11_A_a.gif","","","","",""
"","null","html-keyboard-response","81","568247","0.0-21.0-0.3","SS1619740096922","","","null","","","","","","<p><img src= images/blank.png width =""600"" height = ""600"" style=""position:fixed;top:50%; left:50%; transform: translate(-50%, -50%); border:5px solid black"">","","","","","","","",""
"","158.60999999858905","sequential-stimulus-presentation-old","82","568938","0.0-21.0-1.3","SS1619740096922","trial","","40","500","658.609999998589","images/stimuli/spore_stims/simple_18_A_b.gif","images/stimuli/spore_stims/simple_11_A_a.gif","forced_short","","6","simple_dissimilar","images/stimuli/spore_stims/simple_11_A_a.gif","","","","",""
"","null","html-keyboard-response","83","570222","0.0-21.0-0.4","SS1619740096922","","","null","","","","","","<p><img src= images/blank.png width =""600"" height = ""600"" style=""position:fixed;top:50%; left:50%; transform: translate(-50%, -50%); border:5px solid black"">","","","","","","","",""
"","2519.5550000062212","sequential-stimulus-presentation-old","84","573265","0.0-21.0-1.4","SS1619740096922","trial","","40","500","3019.5550000062212","images/stimuli/spore_stims/simple_18_A_b.gif","images/stimuli/spore_stims/simple_11_A_a.gif","forced_short","","6","simple_dissimilar","images/stimuli/spore_stims/simple_18_A_b.gif","","","","",""
"","null","html-keyboard-response","85","574159","0.0-21.0-0.5","SS1619740096922","","","null","","","","","","<p><img src= images/blank.png width =""600"" height = ""600"" style=""position:fixed;top:50%; left:50%; transform: translate(-50%, -50%); border:5px solid black"">","","","","","","","",""
"","792.3750000045402","sequential-stimulus-presentation-old","86","575477","0.0-21.0-1.5","SS1619740096922","trial","","40","500","1292.3750000045402","images/stimuli/spore_stims/simple_18_A_b.gif","images/stimuli/spore_stims/simple_11_A_a.gif","forced_short","","6","simple_dissimilar","images/stimuli/spore_stims/simple_11_A_a.gif","","","","",""
"","4594.160000007832","survey-multi-choice","87","580098","0.0-22.0","SS1619740096922","math_question","","","","","","","","","","","","{""Q0"":""7""}","[0]","7","",""
"","null","html-keyboard-response","88","581126","0.0-23.0-0.0","SS1619740096922","","","null","","","","","","<p><img src= images/blank.png width =""600"" height = ""600"" style=""position:fixed;top:50%; left:50%; transform: translate(-50%, -50%); border:5px solid black"">","","","","","","","",""
"","404.86999999848194","sequential-stimulus-presentation-old","89","596568","0.0-23.0-1.0","SS1619740096922","trial","","40","500","904.869999998482","images/stimuli/spore_stims/simple_13_A_a.gif","images/stimuli/spore_stims/simple_17_A_b.gif","forced_long","","7","simple_dissimilar","images/stimuli/spore_stims/simple_17_A_b.gif","","","","",""
"","null","html-keyboard-response","90","597819","0.0-23.0-0.1","SS1619740096922","","","null","","","","","","<p><img src= images/blank.png width =""600"" height = ""600"" style=""position:fixed;top:50%; left:50%; transform: translate(-50%, -50%); border:5px solid black"">","","","","","","","",""
"","564.924999998766","sequential-stimulus-presentation-old","91","598920","0.0-23.0-1.1","SS1619740096922","trial","","40","500","1064.924999998766","images/stimuli/spore_stims/simple_13_A_a.gif","images/stimuli/spore_stims/simple_17_A_b.gif","forced_long","","7","simple_dissimilar","images/stimuli/spore_stims/simple_17_A_b.gif","","","","",""
"","null","html-keyboard-response","92","600189","0.0-23.0-0.2","SS1619740096922","","","null","","","","","","<p><img src= images/blank.png width =""600"" height = ""600"" style=""position:fixed;top:50%; left:50%; transform: translate(-50%, -50%); border:5px solid black"">","","","","","","","",""
"","1365.8350000041537","sequential-stimulus-presentation-old","93","602085","0.0-23.0-1.2","SS1619740096922","trial","","40","500","1865.8350000041537","images/stimuli/spore_stims/simple_13_A_a.gif","images/stimuli/spore_stims/simple_17_A_b.gif","forced_long","","7","simple_dissimilar","images/stimuli/spore_stims/simple_17_A_b.gif","","","","",""
"","null","html-keyboard-response","94","602983","0.0-23.0-0.3","SS1619740096922","","","null","","","","","","<p><img src= images/blank.png width =""600"" height = ""600"" style=""position:fixed;top:50%; left:50%; transform: translate(-50%, -50%); border:5px solid black"">","","","","","","","",""
"","3367.359999989276","sequential-stimulus-presentation-old","95","606875","0.0-23.0-1.3","SS1619740096922","trial","","40","500","3867.359999989276","images/stimuli/spore_stims/simple_13_A_a.gif","images/stimuli/spore_stims/simple_17_A_b.gif","forced_long","","7","simple_dissimilar","images/stimuli/spore_stims/simple_17_A_b.gif","","","","",""
"","null","html-keyboard-response","96","607862","0.0-23.0-0.4","SS1619740096922","","","null","","","","","","<p><img src= images/blank.png width =""600"" height = ""600"" style=""position:fixed;top:50%; left:50%; transform: translate(-50%, -50%); border:5px solid black"">","","","","","","","",""
"","2831.7749999987427","sequential-stimulus-presentation-old","97","611229","0.0-23.0-1.4","SS1619740096922","trial","","40","500","3331.7749999987427","images/stimuli/spore_stims/simple_13_A_a.gif","images/stimuli/spore_stims/simple_17_A_b.gif","forced_long","","7","simple_dissimilar","images/stimuli/spore_stims/simple_13_A_a.gif","","","","",""
"","3793.404999989434","survey-multi-choice","98","615048","0.0-24.0","SS1619740096922","math_question","","","","","","","","","","","","{""Q0"":""9""}","[0]","9","",""
"","null","html-keyboard-response","99","616098","0.0-25.0-0.0","SS1619740096922","","","null","","","","","","<p><img src= images/blank.png width =""600"" height = ""600"" style=""position:fixed;top:50%; left:50%; transform: translate(-50%, -50%); border:5px solid black"">","","","","","","","",""
"","4096.9699999986915","sequential-stimulus-presentation-old","100","620737","0.0-25.0-1.0","SS1619740096922","trial","","40","500","4596.9699999986915","images/stimuli/spore_stims/complex_12_A_a.gif","images/stimuli/spore_stims/complex_15_A_b.gif","self_paced","","8","complex_dissimilar","images/stimuli/spore_stims/complex_15_A_b.gif","","","","",""
"","null","html-keyboard-response","101","621717","0.0-25.0-0.1","SS1619740096922","","","null","","","","","","<p><img src= images/blank.png width =""600"" height = ""600"" style=""position:fixed;top:50%; left:50%; transform: translate(-50%, -50%); border:5px solid black"">","","","","","","","",""
"","5680.235000007087","sequential-stimulus-presentation-old","102","627936","0.0-25.0-1.1","SS1619740096922","trial","","40","500","6180.235000007087","images/stimuli/spore_stims/complex_12_A_a.gif","images/stimuli/spore_stims/complex_15_A_b.gif","self_paced","","8","complex_dissimilar","images/stimuli/spore_stims/complex_12_A_a.gif","","","","",""
"","null","html-keyboard-response","103","629084","0.0-25.0-0.2","SS1619740096922","","","null","","","","","","<p><img src= images/blank.png width =""600"" height = ""600"" style=""position:fixed;top:50%; left:50%; transform: translate(-50%, -50%); border:5px solid black"">","","","","","","","",""
"","1974.7950000019046","sequential-stimulus-presentation-old","104","631596","0.0-25.0-1.2","SS1619740096922","trial","","40","500","2474.7950000019046","images/stimuli/spore_stims/complex_12_A_a.gif","images/stimuli/spore_stims/complex_15_A_b.gif","self_paced","","8","complex_dissimilar","images/stimuli/spore_stims/complex_15_A_b.gif","","","","",""
"","null","html-keyboard-response","105","632668","0.0-25.0-0.3","SS1619740096922","","","null","","","","","","<p><img src= images/blank.png width =""600"" height = ""600"" style=""position:fixed;top:50%; left:50%; transform: translate(-50%, -50%); border:5px solid black"">","","","","","","","",""
"","1309.9449999863282","sequential-stimulus-presentation-old","106","634490","0.0-25.0-1.3","SS1619740096922","trial","","40","500","1809.9449999863282","images/stimuli/spore_stims/complex_12_A_a.gif","images/stimuli/spore_stims/complex_15_A_b.gif","self_paced","","8","complex_dissimilar","images/stimuli/spore_stims/complex_15_A_b.gif","","","","",""
"","4596.384999997099","survey-multi-choice","107","639097","0.0-26.0","SS1619740096922","math_question","","","","","","","","","","","","{""Q0"":""10""}","[0]","10","",""
"","null","html-keyboard-response","108","640233","0.0-27.0-0.0","SS1619740096922","","","null","","","","","","<p><img src= images/blank.png width =""600"" height = ""600"" style=""position:fixed;top:50%; left:50%; transform: translate(-50%, -50%); border:5px solid black"">","","","","","","","",""
"","2853.8899999985006","sequential-stimulus-presentation-old","109","658164","0.0-27.0-1.0","SS1619740096922","trial","","40","500","3353.8899999985006","images/stimuli/spore_stims/complex_01_A_a.gif","images/stimuli/spore_stims/complex_07_A_b.gif","forced_long","","9","complex_dissimilar","images/stimuli/spore_stims/complex_07_A_b.gif","","","","",""
"","null","html-keyboard-response","110","659249","0.0-27.0-0.1","SS1619740096922","","","null","","","","","","<p><img src= images/blank.png width =""600"" height = ""600"" style=""position:fixed;top:50%; left:50%; transform: translate(-50%, -50%); border:5px solid black"">","","","","","","","",""
"","905.5249999946682","sequential-stimulus-presentation-old","111","660693","0.0-27.0-1.1","SS1619740096922","trial","","40","500","1405.5249999946682","images/stimuli/spore_stims/complex_01_A_a.gif","images/stimuli/spore_stims/complex_07_A_b.gif","forced_long","","9","complex_dissimilar","images/stimuli/spore_stims/complex_07_A_b.gif","","","","",""
"","null","html-keyboard-response","112","661794","0.0-27.0-0.2","SS1619740096922","","","null","","","","","","<p><img src= images/blank.png width =""600"" height = ""600"" style=""position:fixed;top:50%; left:50%; transform: translate(-50%, -50%); border:5px solid black"">","","","","","","","",""
"","3021.74000001105","sequential-stimulus-presentation-old","113","665335","0.0-27.0-1.2","SS1619740096922","trial","","40","500","3521.74000001105","images/stimuli/spore_stims/complex_01_A_a.gif","images/stimuli/spore_stims/complex_07_A_b.gif","forced_long","","9","complex_dissimilar","images/stimuli/spore_stims/complex_07_A_b.gif","","","","",""
"","null","html-keyboard-response","114","666275","0.0-27.0-0.3","SS1619740096922","","","null","","","","","","<p><img src= images/blank.png width =""600"" height = ""600"" style=""position:fixed;top:50%; left:50%; transform: translate(-50%, -50%); border:5px solid black"">","","","","","","","",""
"","2729.699999996228","sequential-stimulus-presentation-old","115","669518","0.0-27.0-1.3","SS1619740096922","trial","","40","500","3229.699999996228","images/stimuli/spore_stims/complex_01_A_a.gif","images/stimuli/spore_stims/complex_07_A_b.gif","forced_long","","9","complex_dissimilar","images/stimuli/spore_stims/complex_01_A_a.gif","","","","",""
"","null","html-keyboard-response","116","670415","0.0-27.0-0.4","SS1619740096922","","","null","","","","","","<p><img src= images/blank.png width =""600"" height = ""600"" style=""position:fixed;top:50%; left:50%; transform: translate(-50%, -50%); border:5px solid black"">","","","","","","","",""
"","825.4700000106823","sequential-stimulus-presentation-old","117","671773","0.0-27.0-1.4","SS1619740096922","trial","","40","500","1325.4700000106823","images/stimuli/spore_stims/complex_01_A_a.gif","images/stimuli/spore_stims/complex_07_A_b.gif","forced_long","","9","complex_dissimilar","images/stimuli/spore_stims/complex_07_A_b.gif","","","","",""
"","null","html-keyboard-response","118","672904","0.0-27.0-0.5","SS1619740096922","","","null","","","","","","<p><img src= images/blank.png width =""600"" height = ""600"" style=""position:fixed;top:50%; left:50%; transform: translate(-50%, -50%); border:5px solid black"">","","","","","","","",""
"","552.6450000033947","sequential-stimulus-presentation-old","119","673997","0.0-27.0-1.5","SS1619740096922","trial","","40","500","1052.6450000033947","images/stimuli/spore_stims/complex_01_A_a.gif","images/stimuli/spore_stims/complex_07_A_b.gif","forced_long","","9","complex_dissimilar","images/stimuli/spore_stims/complex_01_A_a.gif","","","","",""
"","3017.8500000038184","survey-multi-choice","120","677033","0.0-28.0","SS1619740096922","math_question","","","","","","","","","","","","{""Q0"":""10""}","[0]","10","",""
"","null","html-keyboard-response","121","678175","0.0-29.0-0.0","SS1619740096922","","","null","","","","","","<p><img src= images/blank.png width =""600"" height = ""600"" style=""position:fixed;top:50%; left:50%; transform: translate(-50%, -50%); border:5px solid black"">","","","","","","","",""
"","441.5399999998044","sequential-stimulus-presentation-old","122","679157","0.0-29.0-1.0","SS1619740096922","trial","","40","500","941.5399999998044","images/stimuli/spore_stims/simple_15_A_b.gif","images/stimuli/spore_stims/simple_06_A_a.gif","self_paced","","10","simple_dissimilar","images/stimuli/spore_stims/simple_06_A_a.gif","","","","",""
"","null","html-keyboard-response","123","680065","0.0-29.0-0.1","SS1619740096922","","","null","","","","","","<p><img src= images/blank.png width =""600"" height = ""600"" style=""position:fixed;top:50%; left:50%; transform: translate(-50%, -50%); border:5px solid black"">","","","","","","","",""
"","2800.5300000077114","sequential-stimulus-presentation-old","124","683381","0.0-29.0-1.1","SS1619740096922","trial","","40","500","3300.5300000077114","images/stimuli/spore_stims/simple_15_A_b.gif","images/stimuli/spore_stims/simple_06_A_a.gif","self_paced","","10","simple_dissimilar","images/stimuli/spore_stims/simple_06_A_a.gif","","","","",""
"","null","html-keyboard-response","125","684269","0.0-29.0-0.2","SS1619740096922","","","null","","","","","","<p><img src= images/blank.png width =""600"" height = ""600"" style=""position:fixed;top:50%; left:50%; transform: translate(-50%, -50%); border:5px solid black"">","","","","","","","",""
"","40.184999990742654","sequential-stimulus-presentation-old","126","684844","0.0-29.0-1.2","SS1619740096922","trial","","40","500","540.1849999907427","images/stimuli/spore_stims/simple_15_A_b.gif","images/stimuli/spore_stims/simple_06_A_a.gif","self_paced","","10","simple_dissimilar","images/stimuli/spore_stims/simple_06_A_a.gif","","","","",""
"","null","html-keyboard-response","127","686140","0.0-29.0-0.3","SS1619740096922","","","null","","","","","","<p><img src= images/blank.png width =""600"" height = ""600"" style=""position:fixed;top:50%; left:50%; transform: translate(-50%, -50%); border:5px solid black"">","","","","","","","",""
"","827.8050000080839","sequential-stimulus-presentation-old","128","687489","0.0-29.0-1.3","SS1619740096922","trial","","40","500","1327.8050000080839","images/stimuli/spore_stims/simple_15_A_b.gif","images/stimuli/spore_stims/simple_06_A_a.gif","self_paced","","10","simple_dissimilar","images/stimuli/spore_stims/simple_06_A_a.gif","","","","",""
"","null","html-keyboard-response","129","688602","0.0-29.0-0.4","SS1619740096922","","","null","","","","","","<p><img src= images/blank.png width =""600"" height = ""600"" style=""position:fixed;top:50%; left:50%; transform: translate(-50%, -50%); border:5px solid black"">","","","","","","","",""
"","2011.6350000025705","sequential-stimulus-presentation-old","130","691126","0.0-29.0-1.4","SS1619740096922","trial","","40","500","2511.6350000025705","images/stimuli/spore_stims/simple_15_A_b.gif","images/stimuli/spore_stims/simple_06_A_a.gif","self_paced","","10","simple_dissimilar","images/stimuli/spore_stims/simple_06_A_a.gif","","","","",""
"","null","html-keyboard-response","131","692416","0.0-29.0-0.5","SS1619740096922","","","null","","","","","","<p><img src= images/blank.png width =""600"" height = ""600"" style=""position:fixed;top:50%; left:50%; transform: translate(-50%, -50%); border:5px solid black"">","","","","","","","",""
"","1667.2950000065612","sequential-stimulus-presentation-old","132","694594","0.0-29.0-1.5","SS1619740096922","trial","","40","500","2167.295000006561","images/stimuli/spore_stims/simple_15_A_b.gif","images/stimuli/spore_stims/simple_06_A_a.gif","self_paced","","10","simple_dissimilar","images/stimuli/spore_stims/simple_06_A_a.gif","","","","",""
"","3034.539999993285","survey-multi-choice","133","697649","0.0-30.0","SS1619740096922","math_question","","","","","","","","","","","","{""Q0"":""10""}","[0]","10","",""
"","null","html-keyboard-response","134","698647","0.0-31.0-0.0","SS1619740096922","","","null","","","","","","<p><img src= images/blank.png width =""600"" height = ""600"" style=""position:fixed;top:50%; left:50%; transform: translate(-50%, -50%); border:5px solid black"">","","","","","","","",""
"","769.1950000007637","sequential-stimulus-presentation-old","135","699937","0.0-31.0-1.0","SS1619740096922","trial","","40","500","1269.1950000007637","images/stimuli/spore_stims/complex_18_A_b.gif","images/stimuli/spore_stims/complex_14_A_a.gif","forced_short","","11","complex_dissimilar","images/stimuli/spore_stims/complex_14_A_a.gif","","","","",""
"","null","html-keyboard-response","136","700899","0.0-31.0-0.1","SS1619740096922","","","null","","","","","","<p><img src= images/blank.png width =""600"" height = ""600"" style=""position:fixed;top:50%; left:50%; transform: translate(-50%, -50%); border:5px solid black"">","","","","","","","",""
"","3741.345000002184","sequential-stimulus-presentation-old","137","705157","0.0-31.0-1.1","SS1619740096922","trial","","40","500","4241.345000002184","images/stimuli/spore_stims/complex_18_A_b.gif","images/stimuli/spore_stims/complex_14_A_a.gif","forced_short","","11","complex_dissimilar","images/stimuli/spore_stims/complex_14_A_a.gif","","","","",""
"","null","html-keyboard-response","138","706352","0.0-31.0-0.2","SS1619740096922","","","null","","","","","","<p><img src= images/blank.png width =""600"" height = ""600"" style=""position:fixed;top:50%; left:50%; transform: translate(-50%, -50%); border:5px solid black"">","","","","","","","",""
"","2773.4099999943282","sequential-stimulus-presentation-old","139","709659","0.0-31.0-1.2","SS1619740096922","trial","","40","500","3273.4099999943282","images/stimuli/spore_stims/complex_18_A_b.gif","images/stimuli/spore_stims/complex_14_A_a.gif","forced_short","","11","complex_dissimilar","images/stimuli/spore_stims/complex_18_A_b.gif","","","","",""
"","null","html-keyboard-response","140","710957","0.0-31.0-0.3","SS1619740096922","","","null","","","","","","<p><img src= images/blank.png width =""600"" height = ""600"" style=""position:fixed;top:50%; left:50%; transform: translate(-50%, -50%); border:5px solid black"">","","","","","","","",""
"","837.1550000010757","sequential-stimulus-presentation-old","141","712342","0.0-31.0-1.3","SS1619740096922","trial","","40","500","1337.1550000010757","images/stimuli/spore_stims/complex_18_A_b.gif","images/stimuli/spore_stims/complex_14_A_a.gif","forced_short","","11","complex_dissimilar","images/stimuli/spore_stims/complex_14_A_a.gif","","","","",""
"","null","html-keyboard-response","142","713381","0.0-31.0-0.4","SS1619740096922","","","null","","","","","","<p><img src= images/blank.png width =""600"" height = ""600"" style=""position:fixed;top:50%; left:50%; transform: translate(-50%, -50%); border:5px solid black"">","","","","","","","",""
"","3319.405000002007","sequential-stimulus-presentation-old","143","717257","0.0-31.0-1.4","SS1619740096922","trial","","40","500","3819.405000002007","images/stimuli/spore_stims/complex_18_A_b.gif","images/stimuli/spore_stims/complex_14_A_a.gif","forced_short","","11","complex_dissimilar","images/stimuli/spore_stims/complex_14_A_a.gif","","","","",""
"","null","html-keyboard-response","144","718389","0.0-31.0-0.5","SS1619740096922","","","null","","","","","","<p><img src= images/blank.png width =""600"" height = ""600"" style=""position:fixed;top:50%; left:50%; transform: translate(-50%, -50%); border:5px solid black"">","","","","","","","",""
"","846.4399999938905","sequential-stimulus-presentation-old","145","719751","0.0-31.0-1.5","SS1619740096922","trial","","40","500","1346.4399999938905","images/stimuli/spore_stims/complex_18_A_b.gif","images/stimuli/spore_stims/complex_14_A_a.gif","forced_short","","11","complex_dissimilar","images/stimuli/spore_stims/complex_14_A_a.gif","","","","",""
"[{""page_index"":0,""viewing_time"":7513.95500000217}]","7514.654999991762","instructions","146","727284","0.0-32.0","SS1619740096922","instructions","","","","","","","","","","","","","","","",""
"","10562.904999998864","survey-likert","147","737861","0.0-33.0","SS1619740096922","similarity_question","","","","","","","","","","","","{""Q0"":4}","[0]","","images/stimuli/spore_stims/complex_05_A_b.gif","images/stimuli/spore_stims/complex_16_A_a.gif"
"","6395.625000004657","survey-likert","148","744284","0.0-34.0","SS1619740096922","similarity_question","","","","","","","","","","","","{""Q0"":0}","[0]","","images/stimuli/spore_stims/complex_01_A_a.gif","images/stimuli/spore_stims/complex_07_A_b.gif"
"","4499.4949999963865","survey-likert","149","748808","0.0-35.0","SS1619740096922","similarity_question","","","","","","","","","","","","{""Q0"":1}","[0]","","images/stimuli/spore_stims/simple_16_A_b.gif","images/stimuli/spore_stims/simple_05_A_a.gif"
"","3517.874999990454","survey-likert","150","752350","0.0-36.0","SS1619740096922","similarity_question","","","","","","","","","","","","{""Q0"":4}","[0]","","images/stimuli/spore_stims/simple_14_A_b.gif","images/stimuli/spore_stims/simple_02_A_a.gif"
"","4475.879999998142","survey-likert","151","756849","0.0-37.0","SS1619740096922","similarity_question","","","","","","","","","","","","{""Q0"":6}","[0]","","images/stimuli/spore_stims/simple_04_A_a.gif","images/stimuli/spore_stims/simple_02_A_b.gif"
"","7013.615000003483","survey-likert","152","763887","0.0-38.0","SS1619740096922","similarity_question","","","","","","","","","","","","{""Q0"":5}","[0]","","images/stimuli/spore_stims/complex_09_A_b.gif","images/stimuli/spore_stims/complex_06_A_a.gif"
"","6729.415000008885","survey-likert","153","770645","0.0-39.0","SS1619740096922","similarity_question","","","","","","","","","","","","{""Q0"":1}","[0]","","images/stimuli/spore_stims/complex_14_A_a.gif","images/stimuli/spore_stims/complex_18_A_b.gif"
"","5208.104999997886","survey-likert","154","775879","0.0-40.0","SS1619740096922","similarity_question","","","","","","","","","","","","{""Q0"":1}","[0]","","images/stimuli/spore_stims/complex_12_A_a.gif","images/stimuli/spore_stims/complex_15_A_b.gif"
"","6659.914999996545","survey-likert","155","782563","0.0-41.0","SS1619740096922","similarity_question","","","","","","","","","","","","{""Q0"":5}","[0]","","images/stimuli/spore_stims/simple_17_A_b.gif","images/stimuli/spore_stims/simple_13_A_a.gif"
"","3887.845000004745","survey-likert","156","786477","0.0-42.0","SS1619740096922","similarity_question","","","","","","","","","","","","{""Q0"":1}","[0]","","images/stimuli/spore_stims/complex_16_A_b.gif","images/stimuli/spore_stims/complex_19_A_a.gif"
"","5386.774999991758","survey-likert","157","791887","0.0-43.0","SS1619740096922","similarity_question","","","","","","","","","","","","{""Q0"":4}","[0]","","images/stimuli/spore_stims/simple_06_A_a.gif","images/stimuli/spore_stims/simple_15_A_b.gif"
"","4759.229999996023","survey-likert","158","796675","0.0-44.0","SS1619740096922","similarity_question","","","","","","","","","","","","{""Q0"":2}","[0]","","images/stimuli/spore_stims/simple_18_A_b.gif","images/stimuli/spore_stims/simple_11_A_a.gif"
"[{""page_index"":0,""viewing_time"":5982.935000007274}]","5983.8049999962095","instructions","159","802684","0.0-45.0","SS1619740096922","instructions","","","","","","","","","","","","","","","",""
"","7465.419999993173","survey-likert","160","810163","0.0-46.0","SS1619740096922","","","","","","","","","images/stimuli/spore_stims/simple_05_A_a.gif","","","","{""Q0"":0}","[0]","","",""
"","9282.715000008466","survey-likert","161","819470","0.0-47.0","SS1619740096922","","","","","","","","","images/stimuli/spore_stims/complex_09_A_b.gif","","","","{""Q0"":4}","[0]","","",""
"","4545.729999998002","survey-likert","162","824041","0.0-48.0","SS1619740096922","","","","","","","","","images/stimuli/spore_stims/simple_02_A_a.gif","","","","{""Q0"":0}","[0]","","",""
"","3912.4900000024354","survey-likert","163","827979","0.0-49.0","SS1619740096922","","","","","","","","","images/stimuli/spore_stims/simple_04_A_a.gif","","","","{""Q0"":1}","[0]","","",""
"","6781.214999995427","survey-likert","164","834785","0.0-50.0","SS1619740096922","","","","","","","","","images/stimuli/spore_stims/complex_07_A_b.gif","","","","{""Q0"":2}","[0]","","",""
"","5630.78000000678","survey-likert","165","840440","0.0-51.0","SS1619740096922","","","","","","","","","images/stimuli/spore_stims/simple_13_A_a.gif","","","","{""Q0"":0}","[0]","","",""
"","4536.645000000135","survey-likert","166","845000","0.0-52.0","SS1619740096922","","","","","","","","","images/stimuli/spore_stims/complex_18_A_b.gif","","","","{""Q0"":2}","[0]","","",""
"","2386.3800000108313","survey-likert","167","847412","0.0-53.0","SS1619740096922","","","","","","","","","images/stimuli/spore_stims/simple_06_A_a.gif","","","","{""Q0"":1}","[0]","","",""
"","3121.8949999893084","survey-likert","168","850568","0.0-54.0","SS1619740096922","","","","","","","","","images/stimuli/spore_stims/complex_05_A_b.gif","","","","{""Q0"":4}","[0]","","",""
"","5068.440000002738","survey-likert","169","855659","0.0-55.0","SS1619740096922","","","","","","","","","images/stimuli/spore_stims/simple_11_A_a.gif","","","","{""Q0"":1}","[0]","","",""
"","4884.485000002314","survey-likert","170","860569","0.0-56.0","SS1619740096922","","","","","","","","","images/stimuli/spore_stims/complex_19_A_a.gif","","","","{""Q0"":5}","[0]","","",""
"","4382.805000001099","survey-likert","171","864978","0.0-57.0","SS1619740096922","","","","","","","","","images/stimuli/spore_stims/complex_15_A_b.gif","","","","{""Q0"":2}","[0]","","",""
"[{""page_index"":0,""viewing_time"":2730.779999998049}]","2731.3199999916833","instructions","172","867739","0.0-58.0","SS1619740096922","instructions","","","","","","","","","","","","","","","",""
"","2698.8600000040606","demog-age","173","870531","0.0-59.0","SS1619740096922","","","","","","","","","","","","","{""age"":""21""}","","","",""
"","4516.7400000063935","demog-ethnic-US","174","875074","0.0-60.0","SS1619740096922","","","","","","","","","","","","","{""ethnicity"":[""White""]}","[0]","","",""
"","10226.11999999208","demog-gender-and-education","175","885341","0.0-61.0","SS1619740096922","","","","","","","","","","","","","{""gender"":""Female"",""education"":""High school diploma""}","[0,1]","","",""
"","16111.999999993714","survey-text","176","901489","0.0-62.0","SS1619740096922","feedback","","","","","","","","","","","","{""Q0"":""Everything went well""}","","","",""
"[{""page_index"":0,""viewing_time"":1727.390000000014}]","1728.1199999997625","instructions","177","903227","0.0-63.0","SS1619740096922","instructions","","","","","","","","","","","","","","","",""
