"view_history","rt","trial_type","trial_index","time_elapsed","internal_node_id","subject","stimulus_type","trial_stimulus","key_press","minimum_viewing_duration","trial_looking_time","block_deviant","block_background","exposure_type","stimulus","block_number","block_type","stimulus_displayed","responses","question_order","math_correct_answer","stimulus_left","stimulus_right"
"[{""page_index"":0,""viewing_time"":2697.0900000305846}]","2698.530000052415","instructions","0","2701","0.0-0.0","SS1619740091474","","","","","","","","","","","","","","","","",""
"[{""page_index"":0,""viewing_time"":14070.949999964796},{""page_index"":1,""viewing_time"":17072.455000015907}]","31143.78000004217","instructions","1","35850","0.0-1.0","SS1619740091474","instructions","","","","","","","","","","","","","","","",""
"","9828.67499999702","sequential-stimulus-presentation-old","2","46184","0.0-2.0","SS1619740091474","","","40","500","10328.67499999702","null","null","self_paced","","","","","","","","",""
"","5994.364999933168","sequential-stimulus-presentation-old","3","52681","0.0-3.0","SS1619740091474","","","40","500","6494.364999933168","null","null","self_paced","","","","","","","","",""
"[{""page_index"":0,""viewing_time"":15830.229999963194}]","15830.529999919236","instructions","4","68513","0.0-4.0","SS1619740091474","instructions","","","","","","","","","","","","","","","",""
"","1345.8950000349432","sequential-stimulus-presentation-old","5","84863","0.0-5.0","SS1619740091474","","","40","500","1845.8950000349432","null","null","forced_long","","","","","","","","",""
"","1033.4749999456108","sequential-stimulus-presentation-old","6","86409","0.0-6.0","SS1619740091474","","","40","500","1533.4749999456108","null","null","forced_long","","","","","","","","",""
"[{""page_index"":0,""viewing_time"":2092.8050000220537}]","2093.3350000996143","instructions","7","88504","0.0-7.0","SS1619740091474","instructions","","","","","","","","","","","","","","","",""
"[{""page_index"":0,""viewing_time"":13152.159999939613},{""page_index"":1,""viewing_time"":12326.265000039712},{""page_index"":2,""viewing_time"":7933.089999947697},{""page_index"":3,""viewing_time"":1758.7700000731274},{""page_index"":4,""viewing_time"":1483.2300000125542}]","36653.82999996655","instructions","8","125159","0.0-8.0","SS1619740091474","instructions","","","","","","","","","","","","","","","",""
"","null","html-keyboard-response","9","126311","0.0-9.0-0.0","SS1619740091474","","","null","","","","","","<p><img src= images/blank.png width =""600"" height = ""600"" style=""position:fixed;top:50%; left:50%; transform: translate(-50%, -50%); border:5px solid black"">","","","","","","","",""
"","832.6349999988452","sequential-stimulus-presentation-old","10","142148","0.0-9.0-1.0","SS1619740091474","trial","","40","500","1332.6349999988452","images/stimuli/spore_stims/simple_20_A_b.gif","images/stimuli/spore_stims/simple_05_A_a.gif","forced_long","","0","simple_dissimilar","images/stimuli/spore_stims/simple_05_A_a.gif","","","","",""
"","null","html-keyboard-response","11","143281","0.0-9.0-0.1","SS1619740091474","","","null","","","","","","<p><img src= images/blank.png width =""600"" height = ""600"" style=""position:fixed;top:50%; left:50%; transform: translate(-50%, -50%); border:5px solid black"">","","","","","","","",""
"","2617.489999975078","sequential-stimulus-presentation-old","12","146402","0.0-9.0-1.1","SS1619740091474","trial","","40","500","3117.489999975078","images/stimuli/spore_stims/simple_20_A_b.gif","images/stimuli/spore_stims/simple_05_A_a.gif","forced_long","","0","simple_dissimilar","images/stimuli/spore_stims/simple_05_A_a.gif","","","","",""
"","null","html-keyboard-response","13","147421","0.0-9.0-0.2","SS1619740091474","","","null","","","","","","<p><img src= images/blank.png width =""600"" height = ""600"" style=""position:fixed;top:50%; left:50%; transform: translate(-50%, -50%); border:5px solid black"">","","","","","","","",""
"","24072.350000031292","sequential-stimulus-presentation-old","14","172005","0.0-9.0-1.2","SS1619740091474","trial","","40","500","24572.350000031292","images/stimuli/spore_stims/simple_20_A_b.gif","images/stimuli/spore_stims/simple_05_A_a.gif","forced_long","","0","simple_dissimilar","images/stimuli/spore_stims/simple_20_A_b.gif","","","","",""
"","null","html-keyboard-response","15","172879","0.0-9.0-0.3","SS1619740091474","","","null","","","","","","<p><img src= images/blank.png width =""600"" height = ""600"" style=""position:fixed;top:50%; left:50%; transform: translate(-50%, -50%); border:5px solid black"">","","","","","","","",""
"","39340.71999997832","sequential-stimulus-presentation-old","16","212724","0.0-9.0-1.3","SS1619740091474","trial","","40","500","39840.71999997832","images/stimuli/spore_stims/simple_20_A_b.gif","images/stimuli/spore_stims/simple_05_A_a.gif","forced_long","","0","simple_dissimilar","images/stimuli/spore_stims/simple_05_A_a.gif","","","","",""
"","null","html-keyboard-response","17","213835","0.0-9.0-0.4","SS1619740091474","","","null","","","","","","<p><img src= images/blank.png width =""600"" height = ""600"" style=""position:fixed;top:50%; left:50%; transform: translate(-50%, -50%); border:5px solid black"">","","","","","","","",""
"","10676.44999991171","sequential-stimulus-presentation-old","18","225021","0.0-9.0-1.4","SS1619740091474","trial","","40","500","11176.44999991171","images/stimuli/spore_stims/simple_20_A_b.gif","images/stimuli/spore_stims/simple_05_A_a.gif","forced_long","","0","simple_dissimilar","images/stimuli/spore_stims/simple_05_A_a.gif","","","","",""
"","null","html-keyboard-response","19","226181","0.0-9.0-0.5","SS1619740091474","","","null","","","","","","<p><img src= images/blank.png width =""600"" height = ""600"" style=""position:fixed;top:50%; left:50%; transform: translate(-50%, -50%); border:5px solid black"">","","","","","","","",""
"","4633.12999997288","sequential-stimulus-presentation-old","20","231318","0.0-9.0-1.5","SS1619740091474","trial","","40","500","5133.12999997288","images/stimuli/spore_stims/simple_20_A_b.gif","images/stimuli/spore_stims/simple_05_A_a.gif","forced_long","","0","simple_dissimilar","images/stimuli/spore_stims/simple_05_A_a.gif","","","","",""
"","3998.159999959171","survey-multi-choice","21","235322","0.0-10.0","SS1619740091474","math_question","","","","","","","","","","","","{""Q0"":""10""}","[0]","10","",""
"","null","html-keyboard-response","22","236610","0.0-11.0-0.0","SS1619740091474","","","null","","","","","","<p><img src= images/blank.png width =""600"" height = ""600"" style=""position:fixed;top:50%; left:50%; transform: translate(-50%, -50%); border:5px solid black"">","","","","","","","",""
"","5073.204999906011","sequential-stimulus-presentation-old","23","256688","0.0-11.0-1.0","SS1619740091474","trial","","40","500","5573.204999906011","images/stimuli/spore_stims/simple_08_A_a.gif","images/stimuli/spore_stims/simple_01_A_b.gif","forced_long","","1","simple_dissimilar","images/stimuli/spore_stims/simple_01_A_b.gif","","","","",""
"","null","html-keyboard-response","24","257909","0.0-11.0-0.1","SS1619740091474","","","null","","","","","","<p><img src= images/blank.png width =""600"" height = ""600"" style=""position:fixed;top:50%; left:50%; transform: translate(-50%, -50%); border:5px solid black"">","","","","","","","",""
"","64726.95000004023","sequential-stimulus-presentation-old","25","323148","0.0-11.0-1.1","SS1619740091474","trial","","40","500","65226.95000004023","images/stimuli/spore_stims/simple_08_A_a.gif","images/stimuli/spore_stims/simple_01_A_b.gif","forced_long","","1","simple_dissimilar","images/stimuli/spore_stims/simple_08_A_a.gif","","","","",""
"","null","html-keyboard-response","26","324197","0.0-11.0-0.2","SS1619740091474","","","null","","","","","","<p><img src= images/blank.png width =""600"" height = ""600"" style=""position:fixed;top:50%; left:50%; transform: translate(-50%, -50%); border:5px solid black"">","","","","","","","",""
"","10677.575000096112","sequential-stimulus-presentation-old","27","335380","0.0-11.0-1.2","SS1619740091474","trial","","40","500","11177.575000096112","images/stimuli/spore_stims/simple_08_A_a.gif","images/stimuli/spore_stims/simple_01_A_b.gif","forced_long","","1","simple_dissimilar","images/stimuli/spore_stims/simple_01_A_b.gif","","","","",""
"","null","html-keyboard-response","28","336320","0.0-11.0-0.3","SS1619740091474","","","null","","","","","","<p><img src= images/blank.png width =""600"" height = ""600"" style=""position:fixed;top:50%; left:50%; transform: translate(-50%, -50%); border:5px solid black"">","","","","","","","",""
"","2882.57999997586","sequential-stimulus-presentation-old","29","339714","0.0-11.0-1.3","SS1619740091474","trial","","40","500","3382.57999997586","images/stimuli/spore_stims/simple_08_A_a.gif","images/stimuli/spore_stims/simple_01_A_b.gif","forced_long","","1","simple_dissimilar","images/stimuli/spore_stims/simple_08_A_a.gif","","","","",""
"","null","html-keyboard-response","30","340741","0.0-11.0-0.4","SS1619740091474","","","null","","","","","","<p><img src= images/blank.png width =""600"" height = ""600"" style=""position:fixed;top:50%; left:50%; transform: translate(-50%, -50%); border:5px solid black"">","","","","","","","",""
"","4744.059999939054","sequential-stimulus-presentation-old","31","345990","0.0-11.0-1.4","SS1619740091474","trial","","40","500","5244.059999939054","images/stimuli/spore_stims/simple_08_A_a.gif","images/stimuli/spore_stims/simple_01_A_b.gif","forced_long","","1","simple_dissimilar","images/stimuli/spore_stims/simple_01_A_b.gif","","","","",""
"","2800.500000012107","survey-multi-choice","32","348793","0.0-12.0","SS1619740091474","math_question","","","","","","","","","","","","{""Q0"":""14""}","[0]","14","",""
"","null","html-keyboard-response","33","349702","0.0-13.0-0.0","SS1619740091474","","","null","","","","","","<p><img src= images/blank.png width =""600"" height = ""600"" style=""position:fixed;top:50%; left:50%; transform: translate(-50%, -50%); border:5px solid black"">","","","","","","","",""
"","2091.649999958463","sequential-stimulus-presentation-old","34","352298","0.0-13.0-1.0","SS1619740091474","trial","","40","500","2591.649999958463","images/stimuli/spore_stims/complex_14_A_a.gif","images/stimuli/spore_stims/complex_16_A_b.gif","forced_short","","2","complex_dissimilar","images/stimuli/spore_stims/complex_16_A_b.gif","","","","",""
"","null","html-keyboard-response","35","353546","0.0-13.0-0.1","SS1619740091474","","","null","","","","","","<p><img src= images/blank.png width =""600"" height = ""600"" style=""position:fixed;top:50%; left:50%; transform: translate(-50%, -50%); border:5px solid black"">","","","","","","","",""
"","9245.32999994699","sequential-stimulus-presentation-old","36","363295","0.0-13.0-1.1","SS1619740091474","trial","","40","500","9745.32999994699","images/stimuli/spore_stims/complex_14_A_a.gif","images/stimuli/spore_stims/complex_16_A_b.gif","forced_short","","2","complex_dissimilar","images/stimuli/spore_stims/complex_16_A_b.gif","","","","",""
"","null","html-keyboard-response","37","364125","0.0-13.0-0.2","SS1619740091474","","","null","","","","","","<p><img src= images/blank.png width =""600"" height = ""600"" style=""position:fixed;top:50%; left:50%; transform: translate(-50%, -50%); border:5px solid black"">","","","","","","","",""
"","8407.115000067279","sequential-stimulus-presentation-old","38","373036","0.0-13.0-1.2","SS1619740091474","trial","","40","500","8907.115000067279","images/stimuli/spore_stims/complex_14_A_a.gif","images/stimuli/spore_stims/complex_16_A_b.gif","forced_short","","2","complex_dissimilar","images/stimuli/spore_stims/complex_16_A_b.gif","","","","",""
"","null","html-keyboard-response","39","373963","0.0-13.0-0.3","SS1619740091474","","","null","","","","","","<p><img src= images/blank.png width =""600"" height = ""600"" style=""position:fixed;top:50%; left:50%; transform: translate(-50%, -50%); border:5px solid black"">","","","","","","","",""
"","8497.020000009798","sequential-stimulus-presentation-old","40","382971","0.0-13.0-1.3","SS1619740091474","trial","","40","500","8997.020000009798","images/stimuli/spore_stims/complex_14_A_a.gif","images/stimuli/spore_stims/complex_16_A_b.gif","forced_short","","2","complex_dissimilar","images/stimuli/spore_stims/complex_16_A_b.gif","","","","",""
"","null","html-keyboard-response","41","384020","0.0-13.0-0.4","SS1619740091474","","","null","","","","","","<p><img src= images/blank.png width =""600"" height = ""600"" style=""position:fixed;top:50%; left:50%; transform: translate(-50%, -50%); border:5px solid black"">","","","","","","","",""
"","5743.8700000057","sequential-stimulus-presentation-old","42","390276","0.0-13.0-1.4","SS1619740091474","trial","","40","500","6243.8700000057","images/stimuli/spore_stims/complex_14_A_a.gif","images/stimuli/spore_stims/complex_16_A_b.gif","forced_short","","2","complex_dissimilar","images/stimuli/spore_stims/complex_16_A_b.gif","","","","",""
"","null","html-keyboard-response","43","391447","0.0-13.0-0.5","SS1619740091474","","","null","","","","","","<p><img src= images/blank.png width =""600"" height = ""600"" style=""position:fixed;top:50%; left:50%; transform: translate(-50%, -50%); border:5px solid black"">","","","","","","","",""
"","1290.5249999603257","sequential-stimulus-presentation-old","44","393245","0.0-13.0-1.5","SS1619740091474","trial","","40","500","1790.5249999603257","images/stimuli/spore_stims/complex_14_A_a.gif","images/stimuli/spore_stims/complex_16_A_b.gif","forced_short","","2","complex_dissimilar","images/stimuli/spore_stims/complex_16_A_b.gif","","","","",""
"","2265.5200000153854","survey-multi-choice","45","395513","0.0-14.0","SS1619740091474","math_question","","","","","","","","","","","","{""Q0"":""10""}","[0]","10","",""
"","null","html-keyboard-response","46","396665","0.0-15.0-0.0","SS1619740091474","","","null","","","","","","<p><img src= images/blank.png width =""600"" height = ""600"" style=""position:fixed;top:50%; left:50%; transform: translate(-50%, -50%); border:5px solid black"">","","","","","","","",""
"","491.91500002052635","sequential-stimulus-presentation-old","47","412164","0.0-15.0-1.0","SS1619740091474","trial","","40","500","991.9150000205263","images/stimuli/spore_stims/complex_15_A_a.gif","images/stimuli/spore_stims/complex_01_A_b.gif","forced_long","","3","complex_dissimilar","images/stimuli/spore_stims/complex_01_A_b.gif","","","","",""
"","null","html-keyboard-response","48","413205","0.0-15.0-0.1","SS1619740091474","","","null","","","","","","<p><img src= images/blank.png width =""600"" height = ""600"" style=""position:fixed;top:50%; left:50%; transform: translate(-50%, -50%); border:5px solid black"">","","","","","","","",""
"","12694.909999961965","sequential-stimulus-presentation-old","49","426404","0.0-15.0-1.1","SS1619740091474","trial","","40","500","13194.909999961965","images/stimuli/spore_stims/complex_15_A_a.gif","images/stimuli/spore_stims/complex_01_A_b.gif","forced_long","","3","complex_dissimilar","images/stimuli/spore_stims/complex_01_A_b.gif","","","","",""
"","null","html-keyboard-response","50","427564","0.0-15.0-0.2","SS1619740091474","","","null","","","","","","<p><img src= images/blank.png width =""600"" height = ""600"" style=""position:fixed;top:50%; left:50%; transform: translate(-50%, -50%); border:5px solid black"">","","","","","","","",""
"","13392.41500000935","sequential-stimulus-presentation-old","51","441460","0.0-15.0-1.2","SS1619740091474","trial","","40","500","13892.41500000935","images/stimuli/spore_stims/complex_15_A_a.gif","images/stimuli/spore_stims/complex_01_A_b.gif","forced_long","","3","complex_dissimilar","images/stimuli/spore_stims/complex_01_A_b.gif","","","","",""
"","null","html-keyboard-response","52","442575","0.0-15.0-0.3","SS1619740091474","","","null","","","","","","<p><img src= images/blank.png width =""600"" height = ""600"" style=""position:fixed;top:50%; left:50%; transform: translate(-50%, -50%); border:5px solid black"">","","","","","","","",""
"","8538.89500000514","sequential-stimulus-presentation-old","53","451619","0.0-15.0-1.3","SS1619740091474","trial","","40","500","9038.89500000514","images/stimuli/spore_stims/complex_15_A_a.gif","images/stimuli/spore_stims/complex_01_A_b.gif","forced_long","","3","complex_dissimilar","images/stimuli/spore_stims/complex_15_A_a.gif","","","","",""
"","null","html-keyboard-response","54","452846","0.0-15.0-0.4","SS1619740091474","","","null","","","","","","<p><img src= images/blank.png width =""600"" height = ""600"" style=""position:fixed;top:50%; left:50%; transform: translate(-50%, -50%); border:5px solid black"">","","","","","","","",""
"","934.5599999651313","sequential-stimulus-presentation-old","55","454285","0.0-15.0-1.4","SS1619740091474","trial","","40","500","1434.5599999651313","images/stimuli/spore_stims/complex_15_A_a.gif","images/stimuli/spore_stims/complex_01_A_b.gif","forced_long","","3","complex_dissimilar","images/stimuli/spore_stims/complex_01_A_b.gif","","","","",""
"","null","html-keyboard-response","56","455218","0.0-15.0-0.5","SS1619740091474","","","null","","","","","","<p><img src= images/blank.png width =""600"" height = ""600"" style=""position:fixed;top:50%; left:50%; transform: translate(-50%, -50%); border:5px solid black"">","","","","","","","",""
"","548.6200000159442","sequential-stimulus-presentation-old","57","456271","0.0-15.0-1.5","SS1619740091474","trial","","40","500","1048.6200000159442","images/stimuli/spore_stims/complex_15_A_a.gif","images/stimuli/spore_stims/complex_01_A_b.gif","forced_long","","3","complex_dissimilar","images/stimuli/spore_stims/complex_01_A_b.gif","","","","",""
"","2796.394999953918","survey-multi-choice","58","459070","0.0-16.0","SS1619740091474","math_question","","","","","","","","","","","","{""Q0"":""9""}","[0]","9","",""
"","null","html-keyboard-response","59","460056","0.0-17.0-0.0","SS1619740091474","","","null","","","","","","<p><img src= images/blank.png width =""600"" height = ""600"" style=""position:fixed;top:50%; left:50%; transform: translate(-50%, -50%); border:5px solid black"">","","","","","","","",""
"","936.0800000140443","sequential-stimulus-presentation-old","60","461504","0.0-17.0-1.0","SS1619740091474","trial","","40","500","1436.0800000140443","images/stimuli/spore_stims/simple_14_A_b.gif","images/stimuli/spore_stims/simple_17_A_a.gif","forced_short","","4","simple_dissimilar","images/stimuli/spore_stims/simple_17_A_a.gif","","","","",""
"","null","html-keyboard-response","61","462489","0.0-17.0-0.1","SS1619740091474","","","null","","","","","","<p><img src= images/blank.png width =""600"" height = ""600"" style=""position:fixed;top:50%; left:50%; transform: translate(-50%, -50%); border:5px solid black"">","","","","","","","",""
"","3641.8200000189245","sequential-stimulus-presentation-old","62","466638","0.0-17.0-1.1","SS1619740091474","trial","","40","500","4141.8200000189245","images/stimuli/spore_stims/simple_14_A_b.gif","images/stimuli/spore_stims/simple_17_A_a.gif","forced_short","","4","simple_dissimilar","images/stimuli/spore_stims/simple_14_A_b.gif","","","","",""
"","null","html-keyboard-response","63","467705","0.0-17.0-0.2","SS1619740091474","","","null","","","","","","<p><img src= images/blank.png width =""600"" height = ""600"" style=""position:fixed;top:50%; left:50%; transform: translate(-50%, -50%); border:5px solid black"">","","","","","","","",""
"","4919.665000052191","sequential-stimulus-presentation-old","64","473134","0.0-17.0-1.2","SS1619740091474","trial","","40","500","5419.665000052191","images/stimuli/spore_stims/simple_14_A_b.gif","images/stimuli/spore_stims/simple_17_A_a.gif","forced_short","","4","simple_dissimilar","images/stimuli/spore_stims/simple_17_A_a.gif","","","","",""
"","null","html-keyboard-response","65","474248","0.0-17.0-0.3","SS1619740091474","","","null","","","","","","<p><img src= images/blank.png width =""600"" height = ""600"" style=""position:fixed;top:50%; left:50%; transform: translate(-50%, -50%); border:5px solid black"">","","","","","","","",""
"","3715.0100000435486","sequential-stimulus-presentation-old","66","478468","0.0-17.0-1.3","SS1619740091474","trial","","40","500","4215.010000043549","images/stimuli/spore_stims/simple_14_A_b.gif","images/stimuli/spore_stims/simple_17_A_a.gif","forced_short","","4","simple_dissimilar","images/stimuli/spore_stims/simple_17_A_a.gif","","","","",""
"","null","html-keyboard-response","67","479500","0.0-17.0-0.4","SS1619740091474","","","null","","","","","","<p><img src= images/blank.png width =""600"" height = ""600"" style=""position:fixed;top:50%; left:50%; transform: translate(-50%, -50%); border:5px solid black"">","","","","","","","",""
"","3448.199999984354","sequential-stimulus-presentation-old","68","483457","0.0-17.0-1.4","SS1619740091474","trial","","40","500","3948.199999984354","images/stimuli/spore_stims/simple_14_A_b.gif","images/stimuli/spore_stims/simple_17_A_a.gif","forced_short","","4","simple_dissimilar","images/stimuli/spore_stims/simple_14_A_b.gif","","","","",""
"","3523.619999992661","survey-multi-choice","69","486985","0.0-18.0","SS1619740091474","math_question","","","","","","","","","","","","{""Q0"":""9""}","[0]","9","",""
"","null","html-keyboard-response","70","488127","0.0-19.0-0.0","SS1619740091474","","","null","","","","","","<p><img src= images/blank.png width =""600"" height = ""600"" style=""position:fixed;top:50%; left:50%; transform: translate(-50%, -50%); border:5px solid black"">","","","","","","","",""
"","6293.999999994412","sequential-stimulus-presentation-old","71","494934","0.0-19.0-1.0","SS1619740091474","trial","","40","500","6793.999999994412","images/stimuli/spore_stims/complex_18_A_a.gif","images/stimuli/spore_stims/complex_15_A_b.gif","self_paced","","5","complex_dissimilar","images/stimuli/spore_stims/complex_15_A_b.gif","","","","",""
"","null","html-keyboard-response","72","495798","0.0-19.0-0.1","SS1619740091474","","","null","","","","","","<p><img src= images/blank.png width =""600"" height = ""600"" style=""position:fixed;top:50%; left:50%; transform: translate(-50%, -50%); border:5px solid black"">","","","","","","","",""
"","630.9100000653416","sequential-stimulus-presentation-old","73","496936","0.0-19.0-1.1","SS1619740091474","trial","","40","500","1130.9100000653416","images/stimuli/spore_stims/complex_18_A_a.gif","images/stimuli/spore_stims/complex_15_A_b.gif","self_paced","","5","complex_dissimilar","images/stimuli/spore_stims/complex_15_A_b.gif","","","","",""
"","null","html-keyboard-response","74","497845","0.0-19.0-0.2","SS1619740091474","","","null","","","","","","<p><img src= images/blank.png width =""600"" height = ""600"" style=""position:fixed;top:50%; left:50%; transform: translate(-50%, -50%); border:5px solid black"">","","","","","","","",""
"","6700.805000029504","sequential-stimulus-presentation-old","75","505049","0.0-19.0-1.2","SS1619740091474","trial","","40","500","7200.805000029504","images/stimuli/spore_stims/complex_18_A_a.gif","images/stimuli/spore_stims/complex_15_A_b.gif","self_paced","","5","complex_dissimilar","images/stimuli/spore_stims/complex_18_A_a.gif","","","","",""
"","null","html-keyboard-response","76","506163","0.0-19.0-0.3","SS1619740091474","","","null","","","","","","<p><img src= images/blank.png width =""600"" height = ""600"" style=""position:fixed;top:50%; left:50%; transform: translate(-50%, -50%); border:5px solid black"">","","","","","","","",""
"","1324.9799999175593","sequential-stimulus-presentation-old","77","507993","0.0-19.0-1.3","SS1619740091474","trial","","40","500","1824.9799999175593","images/stimuli/spore_stims/complex_18_A_a.gif","images/stimuli/spore_stims/complex_15_A_b.gif","self_paced","","5","complex_dissimilar","images/stimuli/spore_stims/complex_15_A_b.gif","","","","",""
"","null","html-keyboard-response","78","509247","0.0-19.0-0.4","SS1619740091474","","","null","","","","","","<p><img src= images/blank.png width =""600"" height = ""600"" style=""position:fixed;top:50%; left:50%; transform: translate(-50%, -50%); border:5px solid black"">","","","","","","","",""
"","970.1249999925494","sequential-stimulus-presentation-old","79","510723","0.0-19.0-1.4","SS1619740091474","trial","","40","500","1470.1249999925494","images/stimuli/spore_stims/complex_18_A_a.gif","images/stimuli/spore_stims/complex_15_A_b.gif","self_paced","","5","complex_dissimilar","images/stimuli/spore_stims/complex_18_A_a.gif","","","","",""
"","2486.7899999953806","survey-multi-choice","80","513213","0.0-20.0","SS1619740091474","math_question","","","","","","","","","","","","{""Q0"":""5""}","[0]","5","",""
"","null","html-keyboard-response","81","514094","0.0-21.0-0.0","SS1619740091474","","","null","","","","","","<p><img src= images/blank.png width =""600"" height = ""600"" style=""position:fixed;top:50%; left:50%; transform: translate(-50%, -50%); border:5px solid black"">","","","","","","","",""
"","4636.975000030361","sequential-stimulus-presentation-old","82","519235","0.0-21.0-1.0","SS1619740091474","trial","","40","500","5136.975000030361","images/stimuli/spore_stims/simple_04_A_b.gif","images/stimuli/spore_stims/simple_16_A_a.gif","self_paced","","6","simple_dissimilar","images/stimuli/spore_stims/simple_16_A_a.gif","","","","",""
"","null","html-keyboard-response","83","520351","0.0-21.0-0.1","SS1619740091474","","","null","","","","","","<p><img src= images/blank.png width =""600"" height = ""600"" style=""position:fixed;top:50%; left:50%; transform: translate(-50%, -50%); border:5px solid black"">","","","","","","","",""
"","413.6750000761822","sequential-stimulus-presentation-old","84","521277","0.0-21.0-1.1","SS1619740091474","trial","","40","500","913.6750000761822","images/stimuli/spore_stims/simple_04_A_b.gif","images/stimuli/spore_stims/simple_16_A_a.gif","self_paced","","6","simple_dissimilar","images/stimuli/spore_stims/simple_16_A_a.gif","","","","",""
"","null","html-keyboard-response","85","522244","0.0-21.0-0.2","SS1619740091474","","","null","","","","","","<p><img src= images/blank.png width =""600"" height = ""600"" style=""position:fixed;top:50%; left:50%; transform: translate(-50%, -50%); border:5px solid black"">","","","","","","","",""
"","13.504999922588468","sequential-stimulus-presentation-old","86","522769","0.0-21.0-1.2","SS1619740091474","trial","","40","500","513.5049999225885","images/stimuli/spore_stims/simple_04_A_b.gif","images/stimuli/spore_stims/simple_16_A_a.gif","self_paced","","6","simple_dissimilar","images/stimuli/spore_stims/simple_16_A_a.gif","","","","",""
"","null","html-keyboard-response","87","523734","0.0-21.0-0.3","SS1619740091474","","","null","","","","","","<p><img src= images/blank.png width =""600"" height = ""600"" style=""position:fixed;top:50%; left:50%; transform: translate(-50%, -50%); border:5px solid black"">","","","","","","","",""
"","5796.760000055656","sequential-stimulus-presentation-old","88","530035","0.0-21.0-1.3","SS1619740091474","trial","","40","500","6296.760000055656","images/stimuli/spore_stims/simple_04_A_b.gif","images/stimuli/spore_stims/simple_16_A_a.gif","self_paced","","6","simple_dissimilar","images/stimuli/spore_stims/simple_16_A_a.gif","","","","",""
"","null","html-keyboard-response","89","531184","0.0-21.0-0.4","SS1619740091474","","","null","","","","","","<p><img src= images/blank.png width =""600"" height = ""600"" style=""position:fixed;top:50%; left:50%; transform: translate(-50%, -50%); border:5px solid black"">","","","","","","","",""
"","5331.669999985024","sequential-stimulus-presentation-old","90","537021","0.0-21.0-1.4","SS1619740091474","trial","","40","500","5831.669999985024","images/stimuli/spore_stims/simple_04_A_b.gif","images/stimuli/spore_stims/simple_16_A_a.gif","self_paced","","6","simple_dissimilar","images/stimuli/spore_stims/simple_04_A_b.gif","","","","",""
"","2309.815000044182","survey-multi-choice","91","539335","0.0-22.0","SS1619740091474","math_question","","","","","","","","","","","","{""Q0"":""8""}","[0]","8","",""
"","null","html-keyboard-response","92","540161","0.0-23.0-0.0","SS1619740091474","","","null","","","","","","<p><img src= images/blank.png width =""600"" height = ""600"" style=""position:fixed;top:50%; left:50%; transform: translate(-50%, -50%); border:5px solid black"">","","","","","","","",""
"","1218.5300000710413","sequential-stimulus-presentation-old","93","541884","0.0-23.0-1.0","SS1619740091474","trial","","40","500","1718.5300000710413","images/stimuli/spore_stims/complex_17_A_a.gif","images/stimuli/spore_stims/complex_11_A_b.gif","forced_short","","7","complex_dissimilar","images/stimuli/spore_stims/complex_11_A_b.gif","","","","",""
"","null","html-keyboard-response","94","543023","0.0-23.0-0.1","SS1619740091474","","","null","","","","","","<p><img src= images/blank.png width =""600"" height = ""600"" style=""position:fixed;top:50%; left:50%; transform: translate(-50%, -50%); border:5px solid black"">","","","","","","","",""
"","11939.170000026934","sequential-stimulus-presentation-old","95","555467","0.0-23.0-1.1","SS1619740091474","trial","","40","500","12439.170000026934","images/stimuli/spore_stims/complex_17_A_a.gif","images/stimuli/spore_stims/complex_11_A_b.gif","forced_short","","7","complex_dissimilar","images/stimuli/spore_stims/complex_11_A_b.gif","","","","",""
"","null","html-keyboard-response","96","556609","0.0-23.0-0.2","SS1619740091474","","","null","","","","","","<p><img src= images/blank.png width =""600"" height = ""600"" style=""position:fixed;top:50%; left:50%; transform: translate(-50%, -50%); border:5px solid black"">","","","","","","","",""
"","1304.7250000527129","sequential-stimulus-presentation-old","97","558421","0.0-23.0-1.2","SS1619740091474","trial","","40","500","1804.7250000527129","images/stimuli/spore_stims/complex_17_A_a.gif","images/stimuli/spore_stims/complex_11_A_b.gif","forced_short","","7","complex_dissimilar","images/stimuli/spore_stims/complex_11_A_b.gif","","","","",""
"","null","html-keyboard-response","98","559317","0.0-23.0-0.3","SS1619740091474","","","null","","","","","","<p><img src= images/blank.png width =""600"" height = ""600"" style=""position:fixed;top:50%; left:50%; transform: translate(-50%, -50%); border:5px solid black"">","","","","","","","",""
"","4117.339999997057","sequential-stimulus-presentation-old","99","563939","0.0-23.0-1.3","SS1619740091474","trial","","40","500","4617.339999997057","images/stimuli/spore_stims/complex_17_A_a.gif","images/stimuli/spore_stims/complex_11_A_b.gif","forced_short","","7","complex_dissimilar","images/stimuli/spore_stims/complex_17_A_a.gif","","","","",""
"","null","html-keyboard-response","100","565117","0.0-23.0-0.4","SS1619740091474","","","null","","","","","","<p><img src= images/blank.png width =""600"" height = ""600"" style=""position:fixed;top:50%; left:50%; transform: translate(-50%, -50%); border:5px solid black"">","","","","","","","",""
"","2441.0949999000877","sequential-stimulus-presentation-old","101","568065","0.0-23.0-1.4","SS1619740091474","trial","","40","500","2941.0949999000877","images/stimuli/spore_stims/complex_17_A_a.gif","images/stimuli/spore_stims/complex_11_A_b.gif","forced_short","","7","complex_dissimilar","images/stimuli/spore_stims/complex_17_A_a.gif","","","","",""
"","30032.08999999333","survey-multi-choice","102","598101","0.0-24.0","SS1619740091474","math_question","","","","","","","","","","","","{""Q0"":""11""}","[0]","11","",""
"","null","html-keyboard-response","103","599310","0.0-25.0-0.0","SS1619740091474","","","null","","","","","","<p><img src= images/blank.png width =""600"" height = ""600"" style=""position:fixed;top:50%; left:50%; transform: translate(-50%, -50%); border:5px solid black"">","","","","","","","",""
"","5739.410000038333","sequential-stimulus-presentation-old","104","605559","0.0-25.0-1.0","SS1619740091474","trial","","40","500","6239.410000038333","images/stimuli/spore_stims/simple_09_A_a.gif","images/stimuli/spore_stims/simple_02_A_b.gif","self_paced","","8","simple_dissimilar","images/stimuli/spore_stims/simple_02_A_b.gif","","","","",""
"","null","html-keyboard-response","105","606650","0.0-25.0-0.1","SS1619740091474","","","null","","","","","","<p><img src= images/blank.png width =""600"" height = ""600"" style=""position:fixed;top:50%; left:50%; transform: translate(-50%, -50%); border:5px solid black"">","","","","","","","",""
"","2474.5549999643117","sequential-stimulus-presentation-old","106","609639","0.0-25.0-1.1","SS1619740091474","trial","","40","500","2974.5549999643117","images/stimuli/spore_stims/simple_09_A_a.gif","images/stimuli/spore_stims/simple_02_A_b.gif","self_paced","","8","simple_dissimilar","images/stimuli/spore_stims/simple_02_A_b.gif","","","","",""
"","null","html-keyboard-response","107","610829","0.0-25.0-0.2","SS1619740091474","","","null","","","","","","<p><img src= images/blank.png width =""600"" height = ""600"" style=""position:fixed;top:50%; left:50%; transform: translate(-50%, -50%); border:5px solid black"">","","","","","","","",""
"","3662.3549999203533","sequential-stimulus-presentation-old","108","614997","0.0-25.0-1.2","SS1619740091474","trial","","40","500","4162.354999920353","images/stimuli/spore_stims/simple_09_A_a.gif","images/stimuli/spore_stims/simple_02_A_b.gif","self_paced","","8","simple_dissimilar","images/stimuli/spore_stims/simple_09_A_a.gif","","","","",""
"","null","html-keyboard-response","109","615991","0.0-25.0-0.3","SS1619740091474","","","null","","","","","","<p><img src= images/blank.png width =""600"" height = ""600"" style=""position:fixed;top:50%; left:50%; transform: translate(-50%, -50%); border:5px solid black"">","","","","","","","",""
"","27305.495000095107","sequential-stimulus-presentation-old","110","643808","0.0-25.0-1.3","SS1619740091474","trial","","40","500","27805.495000095107","images/stimuli/spore_stims/simple_09_A_a.gif","images/stimuli/spore_stims/simple_02_A_b.gif","self_paced","","8","simple_dissimilar","images/stimuli/spore_stims/simple_02_A_b.gif","","","","",""
"","null","html-keyboard-response","111","645074","0.0-25.0-0.4","SS1619740091474","","","null","","","","","","<p><img src= images/blank.png width =""600"" height = ""600"" style=""position:fixed;top:50%; left:50%; transform: translate(-50%, -50%); border:5px solid black"">","","","","","","","",""
"","11694.060000008903","sequential-stimulus-presentation-old","112","657279","0.0-25.0-1.4","SS1619740091474","trial","","40","500","12194.060000008903","images/stimuli/spore_stims/simple_09_A_a.gif","images/stimuli/spore_stims/simple_02_A_b.gif","self_paced","","8","simple_dissimilar","images/stimuli/spore_stims/simple_09_A_a.gif","","","","",""
"","4183.184999972582","survey-multi-choice","113","661466","0.0-26.0","SS1619740091474","math_question","","","","","","","","","","","","{""Q0"":""8""}","[0]","8","",""
"","null","html-keyboard-response","114","662685","0.0-27.0-0.0","SS1619740091474","","","null","","","","","","<p><img src= images/blank.png width =""600"" height = ""600"" style=""position:fixed;top:50%; left:50%; transform: translate(-50%, -50%); border:5px solid black"">","","","","","","","",""
"","9452.189999981783","sequential-stimulus-presentation-old","115","672643","0.0-27.0-1.0","SS1619740091474","trial","","40","500","9952.189999981783","images/stimuli/spore_stims/simple_20_A_a.gif","images/stimuli/spore_stims/simple_15_A_b.gif","forced_short","","9","simple_dissimilar","images/stimuli/spore_stims/simple_15_A_b.gif","","","","",""
"","null","html-keyboard-response","116","673942","0.0-27.0-0.1","SS1619740091474","","","null","","","","","","<p><img src= images/blank.png width =""600"" height = ""600"" style=""position:fixed;top:50%; left:50%; transform: translate(-50%, -50%); border:5px solid black"">","","","","","","","",""
"","6602.954999892972","sequential-stimulus-presentation-old","117","681050","0.0-27.0-1.1","SS1619740091474","trial","","40","500","7102.954999892972","images/stimuli/spore_stims/simple_20_A_a.gif","images/stimuli/spore_stims/simple_15_A_b.gif","forced_short","","9","simple_dissimilar","images/stimuli/spore_stims/simple_20_A_a.gif","","","","",""
"","null","html-keyboard-response","118","682220","0.0-27.0-0.2","SS1619740091474","","","null","","","","","","<p><img src= images/blank.png width =""600"" height = ""600"" style=""position:fixed;top:50%; left:50%; transform: translate(-50%, -50%); border:5px solid black"">","","","","","","","",""
"","2761.8100000545382","sequential-stimulus-presentation-old","119","685489","0.0-27.0-1.2","SS1619740091474","trial","","40","500","3261.8100000545382","images/stimuli/spore_stims/simple_20_A_a.gif","images/stimuli/spore_stims/simple_15_A_b.gif","forced_short","","9","simple_dissimilar","images/stimuli/spore_stims/simple_15_A_b.gif","","","","",""
"","null","html-keyboard-response","120","686586","0.0-27.0-0.3","SS1619740091474","","","null","","","","","","<p><img src= images/blank.png width =""600"" height = ""600"" style=""position:fixed;top:50%; left:50%; transform: translate(-50%, -50%); border:5px solid black"">","","","","","","","",""
"","936.2200000323355","sequential-stimulus-presentation-old","121","688034","0.0-27.0-1.3","SS1619740091474","trial","","40","500","1436.2200000323355","images/stimuli/spore_stims/simple_20_A_a.gif","images/stimuli/spore_stims/simple_15_A_b.gif","forced_short","","9","simple_dissimilar","images/stimuli/spore_stims/simple_15_A_b.gif","","","","",""
"","null","html-keyboard-response","122","688914","0.0-27.0-0.4","SS1619740091474","","","null","","","","","","<p><img src= images/blank.png width =""600"" height = ""600"" style=""position:fixed;top:50%; left:50%; transform: translate(-50%, -50%); border:5px solid black"">","","","","","","","",""
"","515.3949999948964","sequential-stimulus-presentation-old","123","689933","0.0-27.0-1.4","SS1619740091474","trial","","40","500","1015.3949999948964","images/stimuli/spore_stims/simple_20_A_a.gif","images/stimuli/spore_stims/simple_15_A_b.gif","forced_short","","9","simple_dissimilar","images/stimuli/spore_stims/simple_15_A_b.gif","","","","",""
"","null","html-keyboard-response","124","690918","0.0-27.0-0.5","SS1619740091474","","","null","","","","","","<p><img src= images/blank.png width =""600"" height = ""600"" style=""position:fixed;top:50%; left:50%; transform: translate(-50%, -50%); border:5px solid black"">","","","","","","","",""
"","267.89999997708946","sequential-stimulus-presentation-old","125","691696","0.0-27.0-1.5","SS1619740091474","trial","","40","500","767.8999999770895","images/stimuli/spore_stims/simple_20_A_a.gif","images/stimuli/spore_stims/simple_15_A_b.gif","forced_short","","9","simple_dissimilar","images/stimuli/spore_stims/simple_20_A_a.gif","","","","",""
"","4855.740000028163","survey-multi-choice","126","696556","0.0-28.0","SS1619740091474","math_question","","","","","","","","","","","","{""Q0"":""12""}","[0]","12","",""
"","null","html-keyboard-response","127","697571","0.0-29.0-0.0","SS1619740091474","","","null","","","","","","<p><img src= images/blank.png width =""600"" height = ""600"" style=""position:fixed;top:50%; left:50%; transform: translate(-50%, -50%); border:5px solid black"">","","","","","","","",""
"","29906.285000033677","sequential-stimulus-presentation-old","128","742486","0.0-29.0-1.0","SS1619740091474","trial","","40","500","30406.285000033677","images/stimuli/spore_stims/complex_11_A_a.gif","images/stimuli/spore_stims/complex_06_A_b.gif","forced_long","","10","complex_dissimilar","images/stimuli/spore_stims/complex_06_A_b.gif","","","","",""
"","null","html-keyboard-response","129","743590","0.0-29.0-0.1","SS1619740091474","","","null","","","","","","<p><img src= images/blank.png width =""600"" height = ""600"" style=""position:fixed;top:50%; left:50%; transform: translate(-50%, -50%); border:5px solid black"">","","","","","","","",""
"","2993.2600000174716","sequential-stimulus-presentation-old","130","747091","0.0-29.0-1.1","SS1619740091474","trial","","40","500","3493.2600000174716","images/stimuli/spore_stims/complex_11_A_a.gif","images/stimuli/spore_stims/complex_06_A_b.gif","forced_long","","10","complex_dissimilar","images/stimuli/spore_stims/complex_06_A_b.gif","","","","",""
"","null","html-keyboard-response","131","748190","0.0-29.0-0.2","SS1619740091474","","","null","","","","","","<p><img src= images/blank.png width =""600"" height = ""600"" style=""position:fixed;top:50%; left:50%; transform: translate(-50%, -50%); border:5px solid black"">","","","","","","","",""
"","6698.440000065602","sequential-stimulus-presentation-old","132","755403","0.0-29.0-1.2","SS1619740091474","trial","","40","500","7198.440000065602","images/stimuli/spore_stims/complex_11_A_a.gif","images/stimuli/spore_stims/complex_06_A_b.gif","forced_long","","10","complex_dissimilar","images/stimuli/spore_stims/complex_06_A_b.gif","","","","",""
"","null","html-keyboard-response","133","756347","0.0-29.0-0.3","SS1619740091474","","","null","","","","","","<p><img src= images/blank.png width =""600"" height = ""600"" style=""position:fixed;top:50%; left:50%; transform: translate(-50%, -50%); border:5px solid black"">","","","","","","","",""
"","3835.064999992028","sequential-stimulus-presentation-old","134","760695","0.0-29.0-1.3","SS1619740091474","trial","","40","500","4335.064999992028","images/stimuli/spore_stims/complex_11_A_a.gif","images/stimuli/spore_stims/complex_06_A_b.gif","forced_long","","10","complex_dissimilar","images/stimuli/spore_stims/complex_06_A_b.gif","","","","",""
"","null","html-keyboard-response","135","761845","0.0-29.0-0.4","SS1619740091474","","","null","","","","","","<p><img src= images/blank.png width =""600"" height = ""600"" style=""position:fixed;top:50%; left:50%; transform: translate(-50%, -50%); border:5px solid black"">","","","","","","","",""
"","5159.624999971129","sequential-stimulus-presentation-old","136","767511","0.0-29.0-1.4","SS1619740091474","trial","","40","500","5659.624999971129","images/stimuli/spore_stims/complex_11_A_a.gif","images/stimuli/spore_stims/complex_06_A_b.gif","forced_long","","10","complex_dissimilar","images/stimuli/spore_stims/complex_11_A_a.gif","","","","",""
"","null","html-keyboard-response","137","768740","0.0-29.0-0.5","SS1619740091474","","","null","","","","","","<p><img src= images/blank.png width =""600"" height = ""600"" style=""position:fixed;top:50%; left:50%; transform: translate(-50%, -50%); border:5px solid black"">","","","","","","","",""
"","215.96499998122454","sequential-stimulus-presentation-old","138","769460","0.0-29.0-1.5","SS1619740091474","trial","","40","500","715.9649999812245","images/stimuli/spore_stims/complex_11_A_a.gif","images/stimuli/spore_stims/complex_06_A_b.gif","forced_long","","10","complex_dissimilar","images/stimuli/spore_stims/complex_11_A_a.gif","","","","",""
"","3828.9199999999255","survey-multi-choice","139","773294","0.0-30.0","SS1619740091474","math_question","","","","","","","","","","","","{""Q0"":""8""}","[0]","8","",""
"","null","html-keyboard-response","140","774321","0.0-31.0-0.0","SS1619740091474","","","null","","","","","","<p><img src= images/blank.png width =""600"" height = ""600"" style=""position:fixed;top:50%; left:50%; transform: translate(-50%, -50%); border:5px solid black"">","","","","","","","",""
"","18346.600000048056","sequential-stimulus-presentation-old","141","793173","0.0-31.0-1.0","SS1619740091474","trial","","40","500","18846.600000048056","images/stimuli/spore_stims/complex_09_A_b.gif","images/stimuli/spore_stims/complex_02_A_a.gif","self_paced","","11","complex_dissimilar","images/stimuli/spore_stims/complex_02_A_a.gif","","","","",""
"","null","html-keyboard-response","142","794393","0.0-31.0-0.1","SS1619740091474","","","null","","","","","","<p><img src= images/blank.png width =""600"" height = ""600"" style=""position:fixed;top:50%; left:50%; transform: translate(-50%, -50%); border:5px solid black"">","","","","","","","",""
"","2405.9200000483543","sequential-stimulus-presentation-old","143","797309","0.0-31.0-1.1","SS1619740091474","trial","","40","500","2905.9200000483543","images/stimuli/spore_stims/complex_09_A_b.gif","images/stimuli/spore_stims/complex_02_A_a.gif","self_paced","","11","complex_dissimilar","images/stimuli/spore_stims/complex_02_A_a.gif","","","","",""
"","null","html-keyboard-response","144","798161","0.0-31.0-0.2","SS1619740091474","","","null","","","","","","<p><img src= images/blank.png width =""600"" height = ""600"" style=""position:fixed;top:50%; left:50%; transform: translate(-50%, -50%); border:5px solid black"">","","","","","","","",""
"","1540.4450000496581","sequential-stimulus-presentation-old","145","800206","0.0-31.0-1.2","SS1619740091474","trial","","40","500","2040.4450000496581","images/stimuli/spore_stims/complex_09_A_b.gif","images/stimuli/spore_stims/complex_02_A_a.gif","self_paced","","11","complex_dissimilar","images/stimuli/spore_stims/complex_02_A_a.gif","","","","",""
"","null","html-keyboard-response","146","801471","0.0-31.0-0.3","SS1619740091474","","","null","","","","","","<p><img src= images/blank.png width =""600"" height = ""600"" style=""position:fixed;top:50%; left:50%; transform: translate(-50%, -50%); border:5px solid black"">","","","","","","","",""
"","2461.4849999779835","sequential-stimulus-presentation-old","147","804438","0.0-31.0-1.3","SS1619740091474","trial","","40","500","2961.4849999779835","images/stimuli/spore_stims/complex_09_A_b.gif","images/stimuli/spore_stims/complex_02_A_a.gif","self_paced","","11","complex_dissimilar","images/stimuli/spore_stims/complex_02_A_a.gif","","","","",""
"","null","html-keyboard-response","148","805463","0.0-31.0-0.4","SS1619740091474","","","null","","","","","","<p><img src= images/blank.png width =""600"" height = ""600"" style=""position:fixed;top:50%; left:50%; transform: translate(-50%, -50%); border:5px solid black"">","","","","","","","",""
"","86099.664999987","sequential-stimulus-presentation-old","149","892071","0.0-31.0-1.4","SS1619740091474","trial","","40","500","86599.664999987","images/stimuli/spore_stims/complex_09_A_b.gif","images/stimuli/spore_stims/complex_02_A_a.gif","self_paced","","11","complex_dissimilar","images/stimuli/spore_stims/complex_02_A_a.gif","","","","",""
"","null","html-keyboard-response","150","892892","0.0-31.0-0.5","SS1619740091474","","","null","","","","","","<p><img src= images/blank.png width =""600"" height = ""600"" style=""position:fixed;top:50%; left:50%; transform: translate(-50%, -50%); border:5px solid black"">","","","","","","","",""
"","3132.7100000344217","sequential-stimulus-presentation-old","151","896533","0.0-31.0-1.5","SS1619740091474","trial","","40","500","3632.7100000344217","images/stimuli/spore_stims/complex_09_A_b.gif","images/stimuli/spore_stims/complex_02_A_a.gif","self_paced","","11","complex_dissimilar","images/stimuli/spore_stims/complex_09_A_b.gif","","","","",""
"[{""page_index"":0,""viewing_time"":9646.324999979697}]","9646.594999940135","instructions","152","906183","0.0-32.0","SS1619740091474","instructions","","","","","","","","","","","","","","","",""
"","7395.704999915324","survey-likert","153","913584","0.0-33.0","SS1619740091474","similarity_question","","","","","","","","","","","","{""Q0"":1}","[0]","","images/stimuli/spore_stims/complex_06_A_b.gif","images/stimuli/spore_stims/complex_11_A_a.gif"
"","5168.049999978393","survey-likert","154","918761","0.0-34.0","SS1619740091474","similarity_question","","","","","","","","","","","","{""Q0"":1}","[0]","","images/stimuli/spore_stims/complex_11_A_b.gif","images/stimuli/spore_stims/complex_17_A_a.gif"
"","5339.310000068508","survey-likert","155","924105","0.0-35.0","SS1619740091474","similarity_question","","","","","","","","","","","","{""Q0"":1}","[0]","","images/stimuli/spore_stims/complex_14_A_a.gif","images/stimuli/spore_stims/complex_16_A_b.gif"
"","9394.734999979846","survey-likert","156","933504","0.0-36.0","SS1619740091474","similarity_question","","","","","","","","","","","","{""Q0"":4}","[0]","","images/stimuli/spore_stims/simple_02_A_b.gif","images/stimuli/spore_stims/simple_09_A_a.gif"
"","7400.870000012219","survey-likert","157","940912","0.0-37.0","SS1619740091474","similarity_question","","","","","","","","","","","","{""Q0"":4}","[0]","","images/stimuli/spore_stims/simple_05_A_a.gif","images/stimuli/spore_stims/simple_20_A_b.gif"
"","2700.804999913089","survey-likert","158","943618","0.0-38.0","SS1619740091474","similarity_question","","","","","","","","","","","","{""Q0"":4}","[0]","","images/stimuli/spore_stims/simple_01_A_b.gif","images/stimuli/spore_stims/simple_08_A_a.gif"
"","12254.564999951981","survey-likert","159","955880","0.0-39.0","SS1619740091474","similarity_question","","","","","","","","","","","","{""Q0"":4}","[0]","","images/stimuli/spore_stims/simple_14_A_b.gif","images/stimuli/spore_stims/simple_17_A_a.gif"
"","6898.649999988265","survey-likert","160","962783","0.0-40.0","SS1619740091474","similarity_question","","","","","","","","","","","","{""Q0"":2}","[0]","","images/stimuli/spore_stims/complex_09_A_b.gif","images/stimuli/spore_stims/complex_02_A_a.gif"
"","8146.56499994453","survey-likert","161","970935","0.0-41.0","SS1619740091474","similarity_question","","","","","","","","","","","","{""Q0"":1}","[0]","","images/stimuli/spore_stims/complex_18_A_a.gif","images/stimuli/spore_stims/complex_15_A_b.gif"
"","13553.8200000301","survey-likert","162","984495","0.0-42.0","SS1619740091474","similarity_question","","","","","","","","","","","","{""Q0"":0}","[0]","","images/stimuli/spore_stims/simple_15_A_b.gif","images/stimuli/spore_stims/simple_20_A_a.gif"
"","6825.865000020713","survey-likert","163","991327","0.0-43.0","SS1619740091474","similarity_question","","","","","","","","","","","","{""Q0"":4}","[0]","","images/stimuli/spore_stims/complex_01_A_b.gif","images/stimuli/spore_stims/complex_15_A_a.gif"
"","4481.894999975339","survey-likert","164","995815","0.0-44.0","SS1619740091474","similarity_question","","","","","","","","","","","","{""Q0"":4}","[0]","","images/stimuli/spore_stims/simple_04_A_b.gif","images/stimuli/spore_stims/simple_16_A_a.gif"
"[{""page_index"":0,""viewing_time"":2867.2800000058487}]","2867.7450000541285","instructions","165","998687","0.0-45.0","SS1619740091474","instructions","","","","","","","","","","","","","","","",""
"","4931.99499999173","survey-likert","166","1003624","0.0-46.0","SS1619740091474","","","","","","","","","images/stimuli/spore_stims/simple_15_A_b.gif","","","","{""Q0"":1}","[0]","","",""
"","11983.56999992393","survey-likert","167","1015616","0.0-47.0","SS1619740091474","","","","","","","","","images/stimuli/spore_stims/simple_17_A_a.gif","","","","{""Q0"":2}","[0]","","",""
"","3418.9200000837445","survey-likert","168","1019040","0.0-48.0","SS1619740091474","","","","","","","","","images/stimuli/spore_stims/simple_02_A_b.gif","","","","{""Q0"":1}","[0]","","",""
"","5689.750000019558","survey-likert","169","1024736","0.0-49.0","SS1619740091474","","","","","","","","","images/stimuli/spore_stims/complex_18_A_a.gif","","","","{""Q0"":4}","[0]","","",""
"","8217.59499993641","survey-likert","170","1032960","0.0-50.0","SS1619740091474","","","","","","","","","images/stimuli/spore_stims/simple_01_A_b.gif","","","","{""Q0"":1}","[0]","","",""
"","5376.99999997858","survey-likert","171","1038344","0.0-51.0","SS1619740091474","","","","","","","","","images/stimuli/spore_stims/complex_17_A_a.gif","","","","{""Q0"":4}","[0]","","",""
"","5002.770000020973","survey-likert","172","1043351","0.0-52.0","SS1619740091474","","","","","","","","","images/stimuli/spore_stims/complex_14_A_a.gif","","","","{""Q0"":5}","[0]","","",""
"","3633.0999999772757","survey-likert","173","1046992","0.0-53.0","SS1619740091474","","","","","","","","","images/stimuli/spore_stims/complex_09_A_b.gif","","","","{""Q0"":5}","[0]","","",""
"","2890.544999972917","survey-likert","174","1049887","0.0-54.0","SS1619740091474","","","","","","","","","images/stimuli/spore_stims/simple_05_A_a.gif","","","","{""Q0"":0}","[0]","","",""
"","3875.415000016801","survey-likert","175","1053768","0.0-55.0","SS1619740091474","","","","","","","","","images/stimuli/spore_stims/complex_15_A_a.gif","","","","{""Q0"":6}","[0]","","",""
"","3642.314999946393","survey-likert","176","1057416","0.0-56.0","SS1619740091474","","","","","","","","","images/stimuli/spore_stims/simple_04_A_b.gif","","","","{""Q0"":1}","[0]","","",""
"","4408.424999914132","survey-likert","177","1061832","0.0-57.0","SS1619740091474","","","","","","","","","images/stimuli/spore_stims/complex_11_A_a.gif","","","","{""Q0"":4}","[0]","","",""
"[{""page_index"":0,""viewing_time"":1617.3999999882653}]","1617.7949999691918","instructions","178","1063455","0.0-58.0","SS1619740091474","instructions","","","","","","","","","","","","","","","",""
"","2670.0699999928474","demog-age","179","1066140","0.0-59.0","SS1619740091474","","","","","","","","","","","","","{""age"":""21""}","","","",""
"","8505.58999995701","demog-ethnic-US","180","1074659","0.0-60.0","SS1619740091474","","","","","","","","","","","","","{""ethnicity"":[""White""]}","[0]","","",""
"","7819.890000042506","demog-gender-and-education","181","1082488","0.0-61.0","SS1619740091474","","","","","","","","","","","","","{""gender"":""Male"",""education"":""High school diploma""}","[0,1]","","",""
"","21470.310000004247","survey-text","182","1103967","0.0-62.0","SS1619740091474","feedback","","","","","","","","","","","","{""Q0"":""no but i found nice you used spore creatures""}","","","",""
"[{""page_index"":0,""viewing_time"":1458.515000063926}]","1458.8950000470504","instructions","183","1105430","0.0-63.0","SS1619740091474","instructions","","","","","","","","","","","","","","","",""
