"view_history","rt","trial_type","trial_index","time_elapsed","internal_node_id","subject","stimulus_type","trial_stimulus","key_press","minimum_viewing_duration","trial_looking_time","block_deviant","block_background","exposure_type","stimulus","block_number","block_type","stimulus_displayed","responses","question_order","math_correct_answer","stimulus_left","stimulus_right"
"[{""page_index"":0,""viewing_time"":10495.834999950603}]","10496.479999972507","instructions","0","10497","0.0-0.0","SS1619739837763","","","","","","","","","","","","","","","","",""
"[{""page_index"":0,""viewing_time"":14724.525000085123},{""page_index"":1,""viewing_time"":8747.574999928474}]","23472.31000009924","instructions","1","35985","0.0-1.0","SS1619739837763","instructions","","","","","","","","","","","","","","","",""
"","9158.04000000935","sequential-stimulus-presentation-old","2","45646","0.0-2.0","SS1619739837763","","","40","500","9658.04000000935","null","null","self_paced","","","","","","","","",""
"","6114.665000000969","sequential-stimulus-presentation-old","3","52263","0.0-3.0","SS1619739837763","","","40","500","6614.665000000969","null","null","self_paced","","","","","","","","",""
"[{""page_index"":0,""viewing_time"":24567.990000010468}]","24568.210000055842","instructions","4","76832","0.0-4.0","SS1619739837763","instructions","","","","","","","","","","","","","","","",""
"","28.25999993365258","sequential-stimulus-presentation-old","5","91862","0.0-5.0","SS1619739837763","","","40","500","528.2599999336526","null","null","forced_long","","","","","","","","",""
"","5099.8799999943","sequential-stimulus-presentation-old","6","97476","0.0-6.0","SS1619739837763","","","40","500","5599.8799999943","null","null","forced_long","","","","","","","","",""
"[{""page_index"":0,""viewing_time"":5352.440000046045}]","5352.665000013076","instructions","7","102829","0.0-7.0","SS1619739837763","instructions","","","","","","","","","","","","","","","",""
"[{""page_index"":0,""viewing_time"":15053.01499995403},{""page_index"":1,""viewing_time"":12835.205000010319},{""page_index"":2,""viewing_time"":8398.574999999255},{""page_index"":3,""viewing_time"":3051.0400000493973},{""page_index"":4,""viewing_time"":1768.9549999777228}]","41107.014999957755","instructions","8","143937","0.0-8.0","SS1619739837763","instructions","","","","","","","","","","","","","","","",""
"","null","html-keyboard-response","9","145011","0.0-9.0-0.0","SS1619739837763","","","null","","","","","","<p><img src= images/blank.png width =""600"" height = ""600"" style=""position:fixed;top:50%; left:50%; transform: translate(-50%, -50%); border:5px solid black"">","","","","","","","",""
"","511.3649999257177","sequential-stimulus-presentation-old","10","160526","0.0-9.0-1.0","SS1619739837763","trial","","40","500","1011.3649999257177","images/stimuli/spore_stims/complex_12_A_a.gif","images/stimuli/spore_stims/complex_10_A_b.gif","forced_long","","0","complex_dissimilar","images/stimuli/spore_stims/complex_10_A_b.gif","","","","",""
"","null","html-keyboard-response","11","161753","0.0-9.0-0.1","SS1619739837763","","","null","","","","","","<p><img src= images/blank.png width =""600"" height = ""600"" style=""position:fixed;top:50%; left:50%; transform: translate(-50%, -50%); border:5px solid black"">","","","","","","","",""
"","13000.724999932572","sequential-stimulus-presentation-old","12","175256","0.0-9.0-1.1","SS1619739837763","trial","","40","500","13500.724999932572","images/stimuli/spore_stims/complex_12_A_a.gif","images/stimuli/spore_stims/complex_10_A_b.gif","forced_long","","0","complex_dissimilar","images/stimuli/spore_stims/complex_10_A_b.gif","","","","",""
"","null","html-keyboard-response","13","176251","0.0-9.0-0.2","SS1619739837763","","","null","","","","","","<p><img src= images/blank.png width =""600"" height = ""600"" style=""position:fixed;top:50%; left:50%; transform: translate(-50%, -50%); border:5px solid black"">","","","","","","","",""
"","1843.8699999824166","sequential-stimulus-presentation-old","14","178597","0.0-9.0-1.2","SS1619739837763","trial","","40","500","2343.8699999824166","images/stimuli/spore_stims/complex_12_A_a.gif","images/stimuli/spore_stims/complex_10_A_b.gif","forced_long","","0","complex_dissimilar","images/stimuli/spore_stims/complex_10_A_b.gif","","","","",""
"","null","html-keyboard-response","15","179891","0.0-9.0-0.3","SS1619739837763","","","null","","","","","","<p><img src= images/blank.png width =""600"" height = ""600"" style=""position:fixed;top:50%; left:50%; transform: translate(-50%, -50%); border:5px solid black"">","","","","","","","",""
"","6610.300000058487","sequential-stimulus-presentation-old","16","187004","0.0-9.0-1.3","SS1619739837763","trial","","40","500","7110.300000058487","images/stimuli/spore_stims/complex_12_A_a.gif","images/stimuli/spore_stims/complex_10_A_b.gif","forced_long","","0","complex_dissimilar","images/stimuli/spore_stims/complex_10_A_b.gif","","","","",""
"","null","html-keyboard-response","17","187813","0.0-9.0-0.4","SS1619739837763","","","null","","","","","","<p><img src= images/blank.png width =""600"" height = ""600"" style=""position:fixed;top:50%; left:50%; transform: translate(-50%, -50%); border:5px solid black"">","","","","","","","",""
"","678.5849999869242","sequential-stimulus-presentation-old","18","188994","0.0-9.0-1.4","SS1619739837763","trial","","40","500","1178.5849999869242","images/stimuli/spore_stims/complex_12_A_a.gif","images/stimuli/spore_stims/complex_10_A_b.gif","forced_long","","0","complex_dissimilar","images/stimuli/spore_stims/complex_10_A_b.gif","","","","",""
"","4741.855000029318","survey-multi-choice","19","193739","0.0-10.0","SS1619739837763","math_question","","","","","","","","","","","","{""Q0"":""13""}","[0]","13","",""
"","null","html-keyboard-response","20","194608","0.0-11.0-0.0","SS1619739837763","","","null","","","","","","<p><img src= images/blank.png width =""600"" height = ""600"" style=""position:fixed;top:50%; left:50%; transform: translate(-50%, -50%); border:5px solid black"">","","","","","","","",""
"","19442.195000010543","sequential-stimulus-presentation-old","21","214552","0.0-11.0-1.0","SS1619739837763","trial","","40","500","19942.195000010543","images/stimuli/spore_stims/complex_02_A_a.gif","images/stimuli/spore_stims/complex_09_A_b.gif","self_paced","","1","complex_dissimilar","images/stimuli/spore_stims/complex_09_A_b.gif","","","","",""
"","null","html-keyboard-response","22","215571","0.0-11.0-0.1","SS1619739837763","","","null","","","","","","<p><img src= images/blank.png width =""600"" height = ""600"" style=""position:fixed;top:50%; left:50%; transform: translate(-50%, -50%); border:5px solid black"">","","","","","","","",""
"","4653.485000017099","sequential-stimulus-presentation-old","23","220726","0.0-11.0-1.1","SS1619739837763","trial","","40","500","5153.485000017099","images/stimuli/spore_stims/complex_02_A_a.gif","images/stimuli/spore_stims/complex_09_A_b.gif","self_paced","","1","complex_dissimilar","images/stimuli/spore_stims/complex_09_A_b.gif","","","","",""
"","null","html-keyboard-response","24","221721","0.0-11.0-0.2","SS1619739837763","","","null","","","","","","<p><img src= images/blank.png width =""600"" height = ""600"" style=""position:fixed;top:50%; left:50%; transform: translate(-50%, -50%); border:5px solid black"">","","","","","","","",""
"","7289.190000039525","sequential-stimulus-presentation-old","25","229513","0.0-11.0-1.2","SS1619739837763","trial","","40","500","7789.190000039525","images/stimuli/spore_stims/complex_02_A_a.gif","images/stimuli/spore_stims/complex_09_A_b.gif","self_paced","","1","complex_dissimilar","images/stimuli/spore_stims/complex_02_A_a.gif","","","","",""
"","null","html-keyboard-response","26","230505","0.0-11.0-0.3","SS1619739837763","","","null","","","","","","<p><img src= images/blank.png width =""600"" height = ""600"" style=""position:fixed;top:50%; left:50%; transform: translate(-50%, -50%); border:5px solid black"">","","","","","","","",""
"","753.9349999278784","sequential-stimulus-presentation-old","27","231762","0.0-11.0-1.3","SS1619739837763","trial","","40","500","1253.9349999278784","images/stimuli/spore_stims/complex_02_A_a.gif","images/stimuli/spore_stims/complex_09_A_b.gif","self_paced","","1","complex_dissimilar","images/stimuli/spore_stims/complex_09_A_b.gif","","","","",""
"","null","html-keyboard-response","28","232626","0.0-11.0-0.4","SS1619739837763","","","null","","","","","","<p><img src= images/blank.png width =""600"" height = ""600"" style=""position:fixed;top:50%; left:50%; transform: translate(-50%, -50%); border:5px solid black"">","","","","","","","",""
"","2760.7950000092387","sequential-stimulus-presentation-old","29","235889","0.0-11.0-1.4","SS1619739837763","trial","","40","500","3260.7950000092387","images/stimuli/spore_stims/complex_02_A_a.gif","images/stimuli/spore_stims/complex_09_A_b.gif","self_paced","","1","complex_dissimilar","images/stimuli/spore_stims/complex_09_A_b.gif","","","","",""
"","null","html-keyboard-response","30","236853","0.0-11.0-0.5","SS1619739837763","","","null","","","","","","<p><img src= images/blank.png width =""600"" height = ""600"" style=""position:fixed;top:50%; left:50%; transform: translate(-50%, -50%); border:5px solid black"">","","","","","","","",""
"","1927.5899999774992","sequential-stimulus-presentation-old","31","239283","0.0-11.0-1.5","SS1619739837763","trial","","40","500","2427.5899999774992","images/stimuli/spore_stims/complex_02_A_a.gif","images/stimuli/spore_stims/complex_09_A_b.gif","self_paced","","1","complex_dissimilar","images/stimuli/spore_stims/complex_09_A_b.gif","","","","",""
"","2919.514999957755","survey-multi-choice","32","242204","0.0-12.0","SS1619739837763","math_question","","","","","","","","","","","","{""Q0"":""10""}","[0]","10","",""
"","null","html-keyboard-response","33","243045","0.0-13.0-0.0","SS1619739837763","","","null","","","","","","<p><img src= images/blank.png width =""600"" height = ""600"" style=""position:fixed;top:50%; left:50%; transform: translate(-50%, -50%); border:5px solid black"">","","","","","","","",""
"","1460.2650000015274","sequential-stimulus-presentation-old","34","245009","0.0-13.0-1.0","SS1619739837763","trial","","40","500","1960.2650000015274","images/stimuli/spore_stims/simple_17_A_b.gif","images/stimuli/spore_stims/simple_03_A_a.gif","forced_short","","2","simple_dissimilar","images/stimuli/spore_stims/simple_03_A_a.gif","","","","",""
"","null","html-keyboard-response","35","246140","0.0-13.0-0.1","SS1619739837763","","","null","","","","","","<p><img src= images/blank.png width =""600"" height = ""600"" style=""position:fixed;top:50%; left:50%; transform: translate(-50%, -50%); border:5px solid black"">","","","","","","","",""
"","4931.895000045188","sequential-stimulus-presentation-old","36","251574","0.0-13.0-1.1","SS1619739837763","trial","","40","500","5431.895000045188","images/stimuli/spore_stims/simple_17_A_b.gif","images/stimuli/spore_stims/simple_03_A_a.gif","forced_short","","2","simple_dissimilar","images/stimuli/spore_stims/simple_03_A_a.gif","","","","",""
"","null","html-keyboard-response","37","252495","0.0-13.0-0.2","SS1619739837763","","","null","","","","","","<p><img src= images/blank.png width =""600"" height = ""600"" style=""position:fixed;top:50%; left:50%; transform: translate(-50%, -50%); border:5px solid black"">","","","","","","","",""
"","44.639999978244305","sequential-stimulus-presentation-old","38","253042","0.0-13.0-1.2","SS1619739837763","trial","","40","500","544.6399999782443","images/stimuli/spore_stims/simple_17_A_b.gif","images/stimuli/spore_stims/simple_03_A_a.gif","forced_short","","2","simple_dissimilar","images/stimuli/spore_stims/simple_03_A_a.gif","","","","",""
"","null","html-keyboard-response","39","254110","0.0-13.0-0.3","SS1619739837763","","","null","","","","","","<p><img src= images/blank.png width =""600"" height = ""600"" style=""position:fixed;top:50%; left:50%; transform: translate(-50%, -50%); border:5px solid black"">","","","","","","","",""
"","314.72499994561076","sequential-stimulus-presentation-old","40","254927","0.0-13.0-1.3","SS1619739837763","trial","","40","500","814.7249999456108","images/stimuli/spore_stims/simple_17_A_b.gif","images/stimuli/spore_stims/simple_03_A_a.gif","forced_short","","2","simple_dissimilar","images/stimuli/spore_stims/simple_03_A_a.gif","","","","",""
"","2556.9350000005215","survey-multi-choice","41","257486","0.0-14.0","SS1619739837763","math_question","","","","","","","","","","","","{""Q0"":""11""}","[0]","11","",""
"","null","html-keyboard-response","42","258420","0.0-15.0-0.0","SS1619739837763","","","null","","","","","","<p><img src= images/blank.png width =""600"" height = ""600"" style=""position:fixed;top:50%; left:50%; transform: translate(-50%, -50%); border:5px solid black"">","","","","","","","",""
"","396.88499993644655","sequential-stimulus-presentation-old","43","273820","0.0-15.0-1.0","SS1619739837763","trial","","40","500","896.8849999364465","images/stimuli/spore_stims/simple_17_A_a.gif","images/stimuli/spore_stims/simple_06_A_b.gif","forced_long","","3","simple_dissimilar","images/stimuli/spore_stims/simple_06_A_b.gif","","","","",""
"","null","html-keyboard-response","44","274820","0.0-15.0-0.1","SS1619739837763","","","null","","","","","","<p><img src= images/blank.png width =""600"" height = ""600"" style=""position:fixed;top:50%; left:50%; transform: translate(-50%, -50%); border:5px solid black"">","","","","","","","",""
"","450.75000007636845","sequential-stimulus-presentation-old","45","275773","0.0-15.0-1.1","SS1619739837763","trial","","40","500","950.7500000763685","images/stimuli/spore_stims/simple_17_A_a.gif","images/stimuli/spore_stims/simple_06_A_b.gif","forced_long","","3","simple_dissimilar","images/stimuli/spore_stims/simple_06_A_b.gif","","","","",""
"","null","html-keyboard-response","46","276599","0.0-15.0-0.2","SS1619739837763","","","null","","","","","","<p><img src= images/blank.png width =""600"" height = ""600"" style=""position:fixed;top:50%; left:50%; transform: translate(-50%, -50%); border:5px solid black"">","","","","","","","",""
"","6797.335000010207","sequential-stimulus-presentation-old","47","283898","0.0-15.0-1.2","SS1619739837763","trial","","40","500","7297.335000010207","images/stimuli/spore_stims/simple_17_A_a.gif","images/stimuli/spore_stims/simple_06_A_b.gif","forced_long","","3","simple_dissimilar","images/stimuli/spore_stims/simple_17_A_a.gif","","","","",""
"","null","html-keyboard-response","48","285104","0.0-15.0-0.3","SS1619739837763","","","null","","","","","","<p><img src= images/blank.png width =""600"" height = ""600"" style=""position:fixed;top:50%; left:50%; transform: translate(-50%, -50%); border:5px solid black"">","","","","","","","",""
"","2897.3349999869242","sequential-stimulus-presentation-old","49","288503","0.0-15.0-1.3","SS1619739837763","trial","","40","500","3397.3349999869242","images/stimuli/spore_stims/simple_17_A_a.gif","images/stimuli/spore_stims/simple_06_A_b.gif","forced_long","","3","simple_dissimilar","images/stimuli/spore_stims/simple_06_A_b.gif","","","","",""
"","null","html-keyboard-response","50","289655","0.0-15.0-0.4","SS1619739837763","","","null","","","","","","<p><img src= images/blank.png width =""600"" height = ""600"" style=""position:fixed;top:50%; left:50%; transform: translate(-50%, -50%); border:5px solid black"">","","","","","","","",""
"","844.4949999684468","sequential-stimulus-presentation-old","51","291001","0.0-15.0-1.4","SS1619739837763","trial","","40","500","1344.4949999684468","images/stimuli/spore_stims/simple_17_A_a.gif","images/stimuli/spore_stims/simple_06_A_b.gif","forced_long","","3","simple_dissimilar","images/stimuli/spore_stims/simple_17_A_a.gif","","","","",""
"","2705.7199999690056","survey-multi-choice","52","293708","0.0-16.0","SS1619739837763","math_question","","","","","","","","","","","","{""Q0"":""10""}","[0]","10","",""
"","null","html-keyboard-response","53","294975","0.0-17.0-0.0","SS1619739837763","","","null","","","","","","<p><img src= images/blank.png width =""600"" height = ""600"" style=""position:fixed;top:50%; left:50%; transform: translate(-50%, -50%); border:5px solid black"">","","","","","","","",""
"","623.3099999371916","sequential-stimulus-presentation-old","54","310601","0.0-17.0-1.0","SS1619739837763","trial","","40","500","1123.3099999371916","images/stimuli/spore_stims/simple_20_A_b.gif","images/stimuli/spore_stims/simple_08_A_a.gif","forced_long","","4","simple_dissimilar","images/stimuli/spore_stims/simple_08_A_a.gif","","","","",""
"","null","html-keyboard-response","55","311728","0.0-17.0-0.1","SS1619739837763","","","null","","","","","","<p><img src= images/blank.png width =""600"" height = ""600"" style=""position:fixed;top:50%; left:50%; transform: translate(-50%, -50%); border:5px solid black"">","","","","","","","",""
"","22839.47500004433","sequential-stimulus-presentation-old","56","335070","0.0-17.0-1.1","SS1619739837763","trial","","40","500","23339.47500004433","images/stimuli/spore_stims/simple_20_A_b.gif","images/stimuli/spore_stims/simple_08_A_a.gif","forced_long","","4","simple_dissimilar","images/stimuli/spore_stims/simple_20_A_b.gif","","","","",""
"","null","html-keyboard-response","57","336029","0.0-17.0-0.2","SS1619739837763","","","null","","","","","","<p><img src= images/blank.png width =""600"" height = ""600"" style=""position:fixed;top:50%; left:50%; transform: translate(-50%, -50%); border:5px solid black"">","","","","","","","",""
"","508.7899999925867","sequential-stimulus-presentation-old","58","337040","0.0-17.0-1.2","SS1619739837763","trial","","40","500","1008.7899999925867","images/stimuli/spore_stims/simple_20_A_b.gif","images/stimuli/spore_stims/simple_08_A_a.gif","forced_long","","4","simple_dissimilar","images/stimuli/spore_stims/simple_08_A_a.gif","","","","",""
"","null","html-keyboard-response","59","338318","0.0-17.0-0.3","SS1619739837763","","","null","","","","","","<p><img src= images/blank.png width =""600"" height = ""600"" style=""position:fixed;top:50%; left:50%; transform: translate(-50%, -50%); border:5px solid black"">","","","","","","","",""
"","976.7449999926612","sequential-stimulus-presentation-old","60","339798","0.0-17.0-1.3","SS1619739837763","trial","","40","500","1476.7449999926612","images/stimuli/spore_stims/simple_20_A_b.gif","images/stimuli/spore_stims/simple_08_A_a.gif","forced_long","","4","simple_dissimilar","images/stimuli/spore_stims/simple_08_A_a.gif","","","","",""
"","5596.254999982193","survey-multi-choice","61","345395","0.0-18.0","SS1619739837763","math_question","","","","","","","","","","","","{""Q0"":""15""}","[0]","15","",""
"","null","html-keyboard-response","62","346451","0.0-19.0-0.0","SS1619739837763","","","null","","","","","","<p><img src= images/blank.png width =""600"" height = ""600"" style=""position:fixed;top:50%; left:50%; transform: translate(-50%, -50%); border:5px solid black"">","","","","","","","",""
"","990.834999945946","sequential-stimulus-presentation-old","63","347945","0.0-19.0-1.0","SS1619739837763","trial","","40","500","1490.834999945946","images/stimuli/spore_stims/complex_08_A_a.gif","images/stimuli/spore_stims/complex_03_A_b.gif","forced_short","","5","complex_dissimilar","images/stimuli/spore_stims/complex_03_A_b.gif","","","","",""
"","null","html-keyboard-response","64","348922","0.0-19.0-0.1","SS1619739837763","","","null","","","","","","<p><img src= images/blank.png width =""600"" height = ""600"" style=""position:fixed;top:50%; left:50%; transform: translate(-50%, -50%); border:5px solid black"">","","","","","","","",""
"","5289.2100000754","sequential-stimulus-presentation-old","65","354714","0.0-19.0-1.1","SS1619739837763","trial","","40","500","5789.2100000754","images/stimuli/spore_stims/complex_08_A_a.gif","images/stimuli/spore_stims/complex_03_A_b.gif","forced_short","","5","complex_dissimilar","images/stimuli/spore_stims/complex_03_A_b.gif","","","","",""
"","null","html-keyboard-response","66","355812","0.0-19.0-0.2","SS1619739837763","","","null","","","","","","<p><img src= images/blank.png width =""600"" height = ""600"" style=""position:fixed;top:50%; left:50%; transform: translate(-50%, -50%); border:5px solid black"">","","","","","","","",""
"","960.7900000410154","sequential-stimulus-presentation-old","67","357278","0.0-19.0-1.2","SS1619739837763","trial","","40","500","1460.7900000410154","images/stimuli/spore_stims/complex_08_A_a.gif","images/stimuli/spore_stims/complex_03_A_b.gif","forced_short","","5","complex_dissimilar","images/stimuli/spore_stims/complex_03_A_b.gif","","","","",""
"","null","html-keyboard-response","68","358114","0.0-19.0-0.3","SS1619739837763","","","null","","","","","","<p><img src= images/blank.png width =""600"" height = ""600"" style=""position:fixed;top:50%; left:50%; transform: translate(-50%, -50%); border:5px solid black"">","","","","","","","",""
"","11008.230000035837","sequential-stimulus-presentation-old","69","369625","0.0-19.0-1.3","SS1619739837763","trial","","40","500","11508.230000035837","images/stimuli/spore_stims/complex_08_A_a.gif","images/stimuli/spore_stims/complex_03_A_b.gif","forced_short","","5","complex_dissimilar","images/stimuli/spore_stims/complex_08_A_a.gif","","","","",""
"","2806.3799999654293","survey-multi-choice","70","372433","0.0-20.0","SS1619739837763","math_question","","","","","","","","","","","","{""Q0"":""7""}","[0]","7","",""
"","null","html-keyboard-response","71","373734","0.0-21.0-0.0","SS1619739837763","","","null","","","","","","<p><img src= images/blank.png width =""600"" height = ""600"" style=""position:fixed;top:50%; left:50%; transform: translate(-50%, -50%); border:5px solid black"">","","","","","","","",""
"","6982.989999931306","sequential-stimulus-presentation-old","72","381220","0.0-21.0-1.0","SS1619739837763","trial","","40","500","7482.989999931306","images/stimuli/spore_stims/complex_03_A_a.gif","images/stimuli/spore_stims/complex_12_A_b.gif","self_paced","","6","complex_dissimilar","images/stimuli/spore_stims/complex_12_A_b.gif","","","","",""
"","null","html-keyboard-response","73","382300","0.0-21.0-0.1","SS1619739837763","","","null","","","","","","<p><img src= images/blank.png width =""600"" height = ""600"" style=""position:fixed;top:50%; left:50%; transform: translate(-50%, -50%); border:5px solid black"">","","","","","","","",""
"","520.0099999783561","sequential-stimulus-presentation-old","74","383322","0.0-21.0-1.1","SS1619739837763","trial","","40","500","1020.0099999783561","images/stimuli/spore_stims/complex_03_A_a.gif","images/stimuli/spore_stims/complex_12_A_b.gif","self_paced","","6","complex_dissimilar","images/stimuli/spore_stims/complex_12_A_b.gif","","","","",""
"","null","html-keyboard-response","75","384365","0.0-21.0-0.2","SS1619739837763","","","null","","","","","","<p><img src= images/blank.png width =""600"" height = ""600"" style=""position:fixed;top:50%; left:50%; transform: translate(-50%, -50%); border:5px solid black"">","","","","","","","",""
"","886.5849999710917","sequential-stimulus-presentation-old","76","385755","0.0-21.0-1.2","SS1619739837763","trial","","40","500","1386.5849999710917","images/stimuli/spore_stims/complex_03_A_a.gif","images/stimuli/spore_stims/complex_12_A_b.gif","self_paced","","6","complex_dissimilar","images/stimuli/spore_stims/complex_12_A_b.gif","","","","",""
"","null","html-keyboard-response","77","386787","0.0-21.0-0.3","SS1619739837763","","","null","","","","","","<p><img src= images/blank.png width =""600"" height = ""600"" style=""position:fixed;top:50%; left:50%; transform: translate(-50%, -50%); border:5px solid black"">","","","","","","","",""
"","191.94499996956438","sequential-stimulus-presentation-old","78","387481","0.0-21.0-1.3","SS1619739837763","trial","","40","500","691.9449999695644","images/stimuli/spore_stims/complex_03_A_a.gif","images/stimuli/spore_stims/complex_12_A_b.gif","self_paced","","6","complex_dissimilar","images/stimuli/spore_stims/complex_12_A_b.gif","","","","",""
"","null","html-keyboard-response","79","388320","0.0-21.0-0.4","SS1619739837763","","","null","","","","","","<p><img src= images/blank.png width =""600"" height = ""600"" style=""position:fixed;top:50%; left:50%; transform: translate(-50%, -50%); border:5px solid black"">","","","","","","","",""
"","536.3900000229478","sequential-stimulus-presentation-old","80","389358","0.0-21.0-1.4","SS1619739837763","trial","","40","500","1036.3900000229478","images/stimuli/spore_stims/complex_03_A_a.gif","images/stimuli/spore_stims/complex_12_A_b.gif","self_paced","","6","complex_dissimilar","images/stimuli/spore_stims/complex_03_A_a.gif","","","","",""
"","3791.689999983646","survey-multi-choice","81","393151","0.0-22.0","SS1619739837763","math_question","","","","","","","","","","","","{""Q0"":""12""}","[0]","11","",""
"","null","html-keyboard-response","82","394120","0.0-23.0-0.0","SS1619739837763","","","null","","","","","","<p><img src= images/blank.png width =""600"" height = ""600"" style=""position:fixed;top:50%; left:50%; transform: translate(-50%, -50%); border:5px solid black"">","","","","","","","",""
"","687.1300000930205","sequential-stimulus-presentation-old","83","395310","0.0-23.0-1.0","SS1619739837763","trial","","40","500","1187.1300000930205","images/stimuli/spore_stims/simple_04_A_a.gif","images/stimuli/spore_stims/simple_08_A_b.gif","forced_short","","7","simple_dissimilar","images/stimuli/spore_stims/simple_08_A_b.gif","","","","",""
"","null","html-keyboard-response","84","396580","0.0-23.0-0.1","SS1619739837763","","","null","","","","","","<p><img src= images/blank.png width =""600"" height = ""600"" style=""position:fixed;top:50%; left:50%; transform: translate(-50%, -50%); border:5px solid black"">","","","","","","","",""
"","4924.534999998286","sequential-stimulus-presentation-old","85","402008","0.0-23.0-1.1","SS1619739837763","trial","","40","500","5424.534999998286","images/stimuli/spore_stims/simple_04_A_a.gif","images/stimuli/spore_stims/simple_08_A_b.gif","forced_short","","7","simple_dissimilar","images/stimuli/spore_stims/simple_08_A_b.gif","","","","",""
"","null","html-keyboard-response","86","402977","0.0-23.0-0.2","SS1619739837763","","","null","","","","","","<p><img src= images/blank.png width =""600"" height = ""600"" style=""position:fixed;top:50%; left:50%; transform: translate(-50%, -50%); border:5px solid black"">","","","","","","","",""
"","253.26000002678484","sequential-stimulus-presentation-old","87","403734","0.0-23.0-1.2","SS1619739837763","trial","","40","500","753.2600000267848","images/stimuli/spore_stims/simple_04_A_a.gif","images/stimuli/spore_stims/simple_08_A_b.gif","forced_short","","7","simple_dissimilar","images/stimuli/spore_stims/simple_08_A_b.gif","","","","",""
"","null","html-keyboard-response","88","405007","0.0-23.0-0.3","SS1619739837763","","","null","","","","","","<p><img src= images/blank.png width =""600"" height = ""600"" style=""position:fixed;top:50%; left:50%; transform: translate(-50%, -50%); border:5px solid black"">","","","","","","","",""
"","363.23999997694045","sequential-stimulus-presentation-old","89","405874","0.0-23.0-1.3","SS1619739837763","trial","","40","500","863.2399999769405","images/stimuli/spore_stims/simple_04_A_a.gif","images/stimuli/spore_stims/simple_08_A_b.gif","forced_short","","7","simple_dissimilar","images/stimuli/spore_stims/simple_08_A_b.gif","","","","",""
"","3373.8449999364093","survey-multi-choice","90","409251","0.0-24.0","SS1619739837763","math_question","","","","","","","","","","","","{""Q0"":""10""}","[0]","10","",""
"","null","html-keyboard-response","91","410119","0.0-25.0-0.0","SS1619739837763","","","null","","","","","","<p><img src= images/blank.png width =""600"" height = ""600"" style=""position:fixed;top:50%; left:50%; transform: translate(-50%, -50%); border:5px solid black"">","","","","","","","",""
"","2431.8650000495836","sequential-stimulus-presentation-old","92","427556","0.0-25.0-1.0","SS1619739837763","trial","","40","500","2931.8650000495836","images/stimuli/spore_stims/complex_15_A_b.gif","images/stimuli/spore_stims/complex_14_A_a.gif","forced_long","","8","complex_dissimilar","images/stimuli/spore_stims/complex_14_A_a.gif","","","","",""
"","null","html-keyboard-response","93","428693","0.0-25.0-0.1","SS1619739837763","","","null","","","","","","<p><img src= images/blank.png width =""600"" height = ""600"" style=""position:fixed;top:50%; left:50%; transform: translate(-50%, -50%); border:5px solid black"">","","","","","","","",""
"","6506.984999985434","sequential-stimulus-presentation-old","94","435703","0.0-25.0-1.1","SS1619739837763","trial","","40","500","7006.984999985434","images/stimuli/spore_stims/complex_15_A_b.gif","images/stimuli/spore_stims/complex_14_A_a.gif","forced_long","","8","complex_dissimilar","images/stimuli/spore_stims/complex_14_A_a.gif","","","","",""
"","null","html-keyboard-response","95","436736","0.0-25.0-0.2","SS1619739837763","","","null","","","","","","<p><img src= images/blank.png width =""600"" height = ""600"" style=""position:fixed;top:50%; left:50%; transform: translate(-50%, -50%); border:5px solid black"">","","","","","","","",""
"","10478.995000012219","sequential-stimulus-presentation-old","96","447718","0.0-25.0-1.2","SS1619739837763","trial","","40","500","10978.995000012219","images/stimuli/spore_stims/complex_15_A_b.gif","images/stimuli/spore_stims/complex_14_A_a.gif","forced_long","","8","complex_dissimilar","images/stimuli/spore_stims/complex_15_A_b.gif","","","","",""
"","null","html-keyboard-response","97","448867","0.0-25.0-0.3","SS1619739837763","","","null","","","","","","<p><img src= images/blank.png width =""600"" height = ""600"" style=""position:fixed;top:50%; left:50%; transform: translate(-50%, -50%); border:5px solid black"">","","","","","","","",""
"","5672.725000069477","sequential-stimulus-presentation-old","98","455044","0.0-25.0-1.3","SS1619739837763","trial","","40","500","6172.725000069477","images/stimuli/spore_stims/complex_15_A_b.gif","images/stimuli/spore_stims/complex_14_A_a.gif","forced_long","","8","complex_dissimilar","images/stimuli/spore_stims/complex_14_A_a.gif","","","","",""
"","null","html-keyboard-response","99","456305","0.0-25.0-0.4","SS1619739837763","","","null","","","","","","<p><img src= images/blank.png width =""600"" height = ""600"" style=""position:fixed;top:50%; left:50%; transform: translate(-50%, -50%); border:5px solid black"">","","","","","","","",""
"","102.5750000262633","sequential-stimulus-presentation-old","100","456911","0.0-25.0-1.4","SS1619739837763","trial","","40","500","602.5750000262633","images/stimuli/spore_stims/complex_15_A_b.gif","images/stimuli/spore_stims/complex_14_A_a.gif","forced_long","","8","complex_dissimilar","images/stimuli/spore_stims/complex_15_A_b.gif","","","","",""
"","2654.9250000389293","survey-multi-choice","101","459568","0.0-26.0","SS1619739837763","math_question","","","","","","","","","","","","{""Q0"":""10""}","[0]","10","",""
"","null","html-keyboard-response","102","460847","0.0-27.0-0.0","SS1619739837763","","","null","","","","","","<p><img src= images/blank.png width =""600"" height = ""600"" style=""position:fixed;top:50%; left:50%; transform: translate(-50%, -50%); border:5px solid black"">","","","","","","","",""
"","8419.634999940172","sequential-stimulus-presentation-old","103","469769","0.0-27.0-1.0","SS1619739837763","trial","","40","500","8919.634999940172","images/stimuli/spore_stims/simple_02_A_a.gif","images/stimuli/spore_stims/simple_11_A_b.gif","self_paced","","9","simple_dissimilar","images/stimuli/spore_stims/simple_11_A_b.gif","","","","",""
"","null","html-keyboard-response","104","470949","0.0-27.0-0.1","SS1619739837763","","","null","","","","","","<p><img src= images/blank.png width =""600"" height = ""600"" style=""position:fixed;top:50%; left:50%; transform: translate(-50%, -50%); border:5px solid black"">","","","","","","","",""
"","1813.5699999984354","sequential-stimulus-presentation-old","105","473266","0.0-27.0-1.1","SS1619739837763","trial","","40","500","2313.5699999984354","images/stimuli/spore_stims/simple_02_A_a.gif","images/stimuli/spore_stims/simple_11_A_b.gif","self_paced","","9","simple_dissimilar","images/stimuli/spore_stims/simple_02_A_a.gif","","","","",""
"","null","html-keyboard-response","106","474548","0.0-27.0-0.2","SS1619739837763","","","null","","","","","","<p><img src= images/blank.png width =""600"" height = ""600"" style=""position:fixed;top:50%; left:50%; transform: translate(-50%, -50%); border:5px solid black"">","","","","","","","",""
"","488.3799999952316","sequential-stimulus-presentation-old","107","475539","0.0-27.0-1.2","SS1619739837763","trial","","40","500","988.3799999952316","images/stimuli/spore_stims/simple_02_A_a.gif","images/stimuli/spore_stims/simple_11_A_b.gif","self_paced","","9","simple_dissimilar","images/stimuli/spore_stims/simple_11_A_b.gif","","","","",""
"","null","html-keyboard-response","108","476392","0.0-27.0-0.3","SS1619739837763","","","null","","","","","","<p><img src= images/blank.png width =""600"" height = ""600"" style=""position:fixed;top:50%; left:50%; transform: translate(-50%, -50%); border:5px solid black"">","","","","","","","",""
"","296.75500001758337","sequential-stimulus-presentation-old","109","477191","0.0-27.0-1.3","SS1619739837763","trial","","40","500","796.7550000175834","images/stimuli/spore_stims/simple_02_A_a.gif","images/stimuli/spore_stims/simple_11_A_b.gif","self_paced","","9","simple_dissimilar","images/stimuli/spore_stims/simple_02_A_a.gif","","","","",""
"","null","html-keyboard-response","110","478325","0.0-27.0-0.4","SS1619739837763","","","null","","","","","","<p><img src= images/blank.png width =""600"" height = ""600"" style=""position:fixed;top:50%; left:50%; transform: translate(-50%, -50%); border:5px solid black"">","","","","","","","",""
"","684.4600000185892","sequential-stimulus-presentation-old","111","479513","0.0-27.0-1.4","SS1619739837763","trial","","40","500","1184.4600000185892","images/stimuli/spore_stims/simple_02_A_a.gif","images/stimuli/spore_stims/simple_11_A_b.gif","self_paced","","9","simple_dissimilar","images/stimuli/spore_stims/simple_11_A_b.gif","","","","",""
"","2689.394999993965","survey-multi-choice","112","482204","0.0-28.0","SS1619739837763","math_question","","","","","","","","","","","","{""Q0"":""10""}","[0]","10","",""
"","null","html-keyboard-response","113","483171","0.0-29.0-0.0","SS1619739837763","","","null","","","","","","<p><img src= images/blank.png width =""600"" height = ""600"" style=""position:fixed;top:50%; left:50%; transform: translate(-50%, -50%); border:5px solid black"">","","","","","","","",""
"","543.2499999878928","sequential-stimulus-presentation-old","114","484218","0.0-29.0-1.0","SS1619739837763","trial","","40","500","1043.2499999878928","images/stimuli/spore_stims/simple_02_A_b.gif","images/stimuli/spore_stims/simple_20_A_a.gif","self_paced","","10","simple_dissimilar","images/stimuli/spore_stims/simple_20_A_a.gif","","","","",""
"","null","html-keyboard-response","115","485336","0.0-29.0-0.1","SS1619739837763","","","null","","","","","","<p><img src= images/blank.png width =""600"" height = ""600"" style=""position:fixed;top:50%; left:50%; transform: translate(-50%, -50%); border:5px solid black"">","","","","","","","",""
"","3420.589999994263","sequential-stimulus-presentation-old","116","489259","0.0-29.0-1.1","SS1619739837763","trial","","40","500","3920.589999994263","images/stimuli/spore_stims/simple_02_A_b.gif","images/stimuli/spore_stims/simple_20_A_a.gif","self_paced","","10","simple_dissimilar","images/stimuli/spore_stims/simple_20_A_a.gif","","","","",""
"","null","html-keyboard-response","117","490508","0.0-29.0-0.2","SS1619739837763","","","null","","","","","","<p><img src= images/blank.png width =""600"" height = ""600"" style=""position:fixed;top:50%; left:50%; transform: translate(-50%, -50%); border:5px solid black"">","","","","","","","",""
"","4715.495000011288","sequential-stimulus-presentation-old","118","495727","0.0-29.0-1.2","SS1619739837763","trial","","40","500","5215.495000011288","images/stimuli/spore_stims/simple_02_A_b.gif","images/stimuli/spore_stims/simple_20_A_a.gif","self_paced","","10","simple_dissimilar","images/stimuli/spore_stims/simple_20_A_a.gif","","","","",""
"","null","html-keyboard-response","119","496769","0.0-29.0-0.3","SS1619739837763","","","null","","","","","","<p><img src= images/blank.png width =""600"" height = ""600"" style=""position:fixed;top:50%; left:50%; transform: translate(-50%, -50%); border:5px solid black"">","","","","","","","",""
"","1628.3549999352545","sequential-stimulus-presentation-old","120","498900","0.0-29.0-1.3","SS1619739837763","trial","","40","500","2128.3549999352545","images/stimuli/spore_stims/simple_02_A_b.gif","images/stimuli/spore_stims/simple_20_A_a.gif","self_paced","","10","simple_dissimilar","images/stimuli/spore_stims/simple_20_A_a.gif","","","","",""
"","null","html-keyboard-response","121","499785","0.0-29.0-0.4","SS1619739837763","","","null","","","","","","<p><img src= images/blank.png width =""600"" height = ""600"" style=""position:fixed;top:50%; left:50%; transform: translate(-50%, -50%); border:5px solid black"">","","","","","","","",""
"","2050.49500009045","sequential-stimulus-presentation-old","122","502338","0.0-29.0-1.4","SS1619739837763","trial","","40","500","2550.49500009045","images/stimuli/spore_stims/simple_02_A_b.gif","images/stimuli/spore_stims/simple_20_A_a.gif","self_paced","","10","simple_dissimilar","images/stimuli/spore_stims/simple_20_A_a.gif","","","","",""
"","null","html-keyboard-response","123","503154","0.0-29.0-0.5","SS1619739837763","","","null","","","","","","<p><img src= images/blank.png width =""600"" height = ""600"" style=""position:fixed;top:50%; left:50%; transform: translate(-50%, -50%); border:5px solid black"">","","","","","","","",""
"","1721.2900000158697","sequential-stimulus-presentation-old","124","505384","0.0-29.0-1.5","SS1619739837763","trial","","40","500","2221.2900000158697","images/stimuli/spore_stims/simple_02_A_b.gif","images/stimuli/spore_stims/simple_20_A_a.gif","self_paced","","10","simple_dissimilar","images/stimuli/spore_stims/simple_02_A_b.gif","","","","",""
"","3464.7499999264255","survey-multi-choice","125","508852","0.0-30.0","SS1619739837763","math_question","","","","","","","","","","","","{""Q0"":""16""}","[0]","16","",""
"","null","html-keyboard-response","126","509846","0.0-31.0-0.0","SS1619739837763","","","null","","","","","","<p><img src= images/blank.png width =""600"" height = ""600"" style=""position:fixed;top:50%; left:50%; transform: translate(-50%, -50%); border:5px solid black"">","","","","","","","",""
"","998.6949999583885","sequential-stimulus-presentation-old","127","511349","0.0-31.0-1.0","SS1619739837763","trial","","40","500","1498.6949999583885","images/stimuli/spore_stims/complex_17_A_a.gif","images/stimuli/spore_stims/complex_20_A_b.gif","forced_short","","11","complex_dissimilar","images/stimuli/spore_stims/complex_20_A_b.gif","","","","",""
"","null","html-keyboard-response","128","512331","0.0-31.0-0.1","SS1619739837763","","","null","","","","","","<p><img src= images/blank.png width =""600"" height = ""600"" style=""position:fixed;top:50%; left:50%; transform: translate(-50%, -50%); border:5px solid black"">","","","","","","","",""
"","3191.950000007637","sequential-stimulus-presentation-old","129","516026","0.0-31.0-1.1","SS1619739837763","trial","","40","500","3691.950000007637","images/stimuli/spore_stims/complex_17_A_a.gif","images/stimuli/spore_stims/complex_20_A_b.gif","forced_short","","11","complex_dissimilar","images/stimuli/spore_stims/complex_20_A_b.gif","","","","",""
"","null","html-keyboard-response","130","517027","0.0-31.0-0.2","SS1619739837763","","","null","","","","","","<p><img src= images/blank.png width =""600"" height = ""600"" style=""position:fixed;top:50%; left:50%; transform: translate(-50%, -50%); border:5px solid black"">","","","","","","","",""
"","1106.6199999768287","sequential-stimulus-presentation-old","131","518637","0.0-31.0-1.2","SS1619739837763","trial","","40","500","1606.6199999768287","images/stimuli/spore_stims/complex_17_A_a.gif","images/stimuli/spore_stims/complex_20_A_b.gif","forced_short","","11","complex_dissimilar","images/stimuli/spore_stims/complex_20_A_b.gif","","","","",""
"","null","html-keyboard-response","132","519896","0.0-31.0-0.3","SS1619739837763","","","null","","","","","","<p><img src= images/blank.png width =""600"" height = ""600"" style=""position:fixed;top:50%; left:50%; transform: translate(-50%, -50%); border:5px solid black"">","","","","","","","",""
"","289.615000016056","sequential-stimulus-presentation-old","133","520689","0.0-31.0-1.3","SS1619739837763","trial","","40","500","789.615000016056","images/stimuli/spore_stims/complex_17_A_a.gif","images/stimuli/spore_stims/complex_20_A_b.gif","forced_short","","11","complex_dissimilar","images/stimuli/spore_stims/complex_20_A_b.gif","","","","",""
"","null","html-keyboard-response","134","521694","0.0-31.0-0.4","SS1619739837763","","","null","","","","","","<p><img src= images/blank.png width =""600"" height = ""600"" style=""position:fixed;top:50%; left:50%; transform: translate(-50%, -50%); border:5px solid black"">","","","","","","","",""
"","581.2549999682233","sequential-stimulus-presentation-old","135","522778","0.0-31.0-1.4","SS1619739837763","trial","","40","500","1081.2549999682233","images/stimuli/spore_stims/complex_17_A_a.gif","images/stimuli/spore_stims/complex_20_A_b.gif","forced_short","","11","complex_dissimilar","images/stimuli/spore_stims/complex_20_A_b.gif","","","","",""
"","null","html-keyboard-response","136","523598","0.0-31.0-0.5","SS1619739837763","","","null","","","","","","<p><img src= images/blank.png width =""600"" height = ""600"" style=""position:fixed;top:50%; left:50%; transform: translate(-50%, -50%); border:5px solid black"">","","","","","","","",""
"","989.9649999570101","sequential-stimulus-presentation-old","137","525092","0.0-31.0-1.5","SS1619739837763","trial","","40","500","1489.9649999570101","images/stimuli/spore_stims/complex_17_A_a.gif","images/stimuli/spore_stims/complex_20_A_b.gif","forced_short","","11","complex_dissimilar","images/stimuli/spore_stims/complex_20_A_b.gif","","","","",""
"[{""page_index"":0,""viewing_time"":7514.789999928325}]","7515.039999969304","instructions","138","532608","0.0-32.0","SS1619739837763","instructions","","","","","","","","","","","","","","","",""
"","8584.314999985509","survey-likert","139","541196","0.0-33.0","SS1619739837763","similarity_question","","","","","","","","","","","","{""Q0"":5}","[0]","","images/stimuli/spore_stims/simple_03_A_a.gif","images/stimuli/spore_stims/simple_17_A_b.gif"
"","6567.015000036918","survey-likert","140","547766","0.0-34.0","SS1619739837763","similarity_question","","","","","","","","","","","","{""Q0"":0}","[0]","","images/stimuli/spore_stims/complex_10_A_b.gif","images/stimuli/spore_stims/complex_12_A_a.gif"
"","6577.889999956824","survey-likert","141","554347","0.0-35.0","SS1619739837763","similarity_question","","","","","","","","","","","","{""Q0"":5}","[0]","","images/stimuli/spore_stims/simple_11_A_b.gif","images/stimuli/spore_stims/simple_02_A_a.gif"
"","9445.605000015348","survey-likert","142","563796","0.0-36.0","SS1619739837763","similarity_question","","","","","","","","","","","","{""Q0"":0}","[0]","","images/stimuli/spore_stims/complex_02_A_a.gif","images/stimuli/spore_stims/complex_09_A_b.gif"
"","3192.975000012666","survey-likert","143","566992","0.0-37.0","SS1619739837763","similarity_question","","","","","","","","","","","","{""Q0"":6}","[0]","","images/stimuli/spore_stims/simple_02_A_b.gif","images/stimuli/spore_stims/simple_20_A_a.gif"
"","3167.365000001155","survey-likert","144","570162","0.0-38.0","SS1619739837763","similarity_question","","","","","","","","","","","","{""Q0"":0}","[0]","","images/stimuli/spore_stims/complex_15_A_b.gif","images/stimuli/spore_stims/complex_14_A_a.gif"
"","4854.594999924302","survey-likert","145","575020","0.0-39.0","SS1619739837763","similarity_question","","","","","","","","","","","","{""Q0"":0}","[0]","","images/stimuli/spore_stims/complex_03_A_a.gif","images/stimuli/spore_stims/complex_12_A_b.gif"
"","3280.3999999305233","survey-likert","146","578303","0.0-40.0","SS1619739837763","similarity_question","","","","","","","","","","","","{""Q0"":6}","[0]","","images/stimuli/spore_stims/simple_20_A_b.gif","images/stimuli/spore_stims/simple_08_A_a.gif"
"","3026.9300000509247","survey-likert","147","581333","0.0-41.0","SS1619739837763","similarity_question","","","","","","","","","","","","{""Q0"":6}","[0]","","images/stimuli/spore_stims/simple_17_A_a.gif","images/stimuli/spore_stims/simple_06_A_b.gif"
"","8432.209999999031","survey-likert","148","589769","0.0-42.0","SS1619739837763","similarity_question","","","","","","","","","","","","{""Q0"":0}","[0]","","images/stimuli/spore_stims/complex_03_A_b.gif","images/stimuli/spore_stims/complex_08_A_a.gif"
"","4150.254999985918","survey-likert","149","593922","0.0-43.0","SS1619739837763","similarity_question","","","","","","","","","","","","{""Q0"":0}","[0]","","images/stimuli/spore_stims/complex_20_A_b.gif","images/stimuli/spore_stims/complex_17_A_a.gif"
"","5230.740000028163","survey-likert","150","599156","0.0-44.0","SS1619739837763","similarity_question","","","","","","","","","","","","{""Q0"":4}","[0]","","images/stimuli/spore_stims/simple_08_A_b.gif","images/stimuli/spore_stims/simple_04_A_a.gif"
"[{""page_index"":0,""viewing_time"":7212.474999949336}]","7212.754999985918","instructions","151","606370","0.0-45.0","SS1619739837763","instructions","","","","","","","","","","","","","","","",""
"","2719.3950000219047","survey-likert","152","609092","0.0-46.0","SS1619739837763","","","","","","","","","images/stimuli/spore_stims/simple_20_A_b.gif","","","","{""Q0"":0}","[0]","","",""
"","1385.7400000561029","survey-likert","153","610481","0.0-47.0","SS1619739837763","","","","","","","","","images/stimuli/spore_stims/simple_08_A_b.gif","","","","{""Q0"":0}","[0]","","",""
"","5728.434999939054","survey-likert","154","616212","0.0-48.0","SS1619739837763","","","","","","","","","images/stimuli/spore_stims/complex_08_A_a.gif","","","","{""Q0"":5}","[0]","","",""
"","3979.2550000129268","survey-likert","155","620195","0.0-49.0","SS1619739837763","","","","","","","","","images/stimuli/spore_stims/complex_03_A_a.gif","","","","{""Q0"":4}","[0]","","",""
"","2142.935000010766","survey-likert","156","622341","0.0-50.0","SS1619739837763","","","","","","","","","images/stimuli/spore_stims/complex_10_A_b.gif","","","","{""Q0"":4}","[0]","","",""
"","1745.4299998935312","survey-likert","157","624089","0.0-51.0","SS1619739837763","","","","","","","","","images/stimuli/spore_stims/simple_06_A_b.gif","","","","{""Q0"":0}","[0]","","",""
"","3655.5350000271574","survey-likert","158","627748","0.0-52.0","SS1619739837763","","","","","","","","","images/stimuli/spore_stims/complex_20_A_b.gif","","","","{""Q0"":5}","[0]","","",""
"","2123.109999927692","survey-likert","159","629874","0.0-53.0","SS1619739837763","","","","","","","","","images/stimuli/spore_stims/complex_15_A_b.gif","","","","{""Q0"":5}","[0]","","",""
"","3510.2399999741465","survey-likert","160","633388","0.0-54.0","SS1619739837763","","","","","","","","","images/stimuli/spore_stims/simple_20_A_a.gif","","","","{""Q0"":0}","[0]","","",""
"","2152.955000055954","survey-likert","161","635544","0.0-55.0","SS1619739837763","","","","","","","","","images/stimuli/spore_stims/simple_02_A_a.gif","","","","{""Q0"":0}","[0]","","",""
"","7193.530000047758","survey-likert","162","642741","0.0-56.0","SS1619739837763","","","","","","","","","images/stimuli/spore_stims/complex_09_A_b.gif","","","","{""Q0"":5}","[0]","","",""
"","1586.4400001009926","survey-likert","163","644330","0.0-57.0","SS1619739837763","","","","","","","","","images/stimuli/spore_stims/simple_03_A_a.gif","","","","{""Q0"":0}","[0]","","",""
"[{""page_index"":0,""viewing_time"":2453.594999969937}]","2453.830000013113","instructions","164","646787","0.0-58.0","SS1619739837763","instructions","","","","","","","","","","","","","","","",""
"","5614.6500000031665","demog-age","165","652407","0.0-59.0","SS1619739837763","","","","","","","","","","","","","{""age"":""20""}","","","",""
"","4661.809999961406","demog-ethnic-US","166","657073","0.0-60.0","SS1619739837763","","","","","","","","","","","","","{""ethnicity"":[""White""]}","[0]","","",""
"","6798.545000026934","demog-gender-and-education","167","663875","0.0-61.0","SS1619739837763","","","","","","","","","","","","","{""gender"":""Male"",""education"":""High school diploma""}","[0,1]","","",""
"","29386.655000038445","survey-text","168","693267","0.0-62.0","SS1619739837763","feedback","","","","","","","","","","","","{""Q0"":""everything was fine""}","","","",""
"[{""page_index"":0,""viewing_time"":1341.3500000024214}]","1341.5699999313802","instructions","169","694611","0.0-63.0","SS1619739837763","instructions","","","","","","","","","","","","","","","",""
