"view_history","rt","trial_type","trial_index","time_elapsed","internal_node_id","subject","stimulus_type","trial_stimulus","key_press","minimum_viewing_duration","trial_looking_time","block_deviant","block_background","exposure_type","stimulus","block_number","block_type","stimulus_displayed","responses","question_order","math_correct_answer","stimulus_left","stimulus_right"
"[{""page_index"":0,""viewing_time"":38071.15500001237}]","38075.24500001455","instructions","0","38081","0.0-0.0","SS1619739428554","","","","","","","","","","","","","","","","",""
"[{""page_index"":0,""viewing_time"":29848.945000005187},{""page_index"":1,""viewing_time"":17784.29499999038}]","47634.46999998996","instructions","1","87725","0.0-1.0","SS1619739428554","instructions","","","","","","","","","","","","","","","",""
"","31851.75000000163","sequential-stimulus-presentation-old","2","120093","0.0-2.0","SS1619739428554","","","40","500","32351.75000000163","null","null","self_paced","","","","","","","","",""
"","22709.659999993164","sequential-stimulus-presentation-old","3","143311","0.0-3.0","SS1619739428554","","","40","500","23209.659999993164","null","null","self_paced","","","","","","","","",""
"[{""page_index"":0,""viewing_time"":29296.665000001667}]","29297.57999998401","instructions","4","172612","0.0-4.0","SS1619739428554","instructions","","","","","","","","","","","","","","","",""
"","8041.029999993043","sequential-stimulus-presentation-old","5","195943","0.0-5.0","SS1619739428554","","","40","500","8541.029999993043","null","null","forced_long","","","","","","","","",""
"","6690.130000002682","sequential-stimulus-presentation-old","6","203145","0.0-6.0","SS1619739428554","","","40","500","7190.130000002682","null","null","forced_long","","","","","","","","",""
"[{""page_index"":0,""viewing_time"":15797.655000002123}]","15798.494999995455","instructions","7","218948","0.0-7.0","SS1619739428554","instructions","","","","","","","","","","","","","","","",""
"[{""page_index"":0,""viewing_time"":20882.500000006985},{""page_index"":1,""viewing_time"":22585.42999997735},{""page_index"":2,""viewing_time"":5183.515000011539},{""page_index"":3,""viewing_time"":1512.0349999924656},{""page_index"":4,""viewing_time"":1343.9700000162702}]","51508.35499999812","instructions","8","270461","0.0-8.0","SS1619739428554","instructions","","","","","","","","","","","","","","","",""
"","null","html-keyboard-response","9","271631","0.0-9.0-0.0","SS1619739428554","","","null","","","","","","<p><img src= images/blank.png width =""600"" height = ""600"" style=""position:fixed;top:50%; left:50%; transform: translate(-50%, -50%); border:5px solid black"">","","","","","","","",""
"","969.4599999929778","sequential-stimulus-presentation-old","10","287618","0.0-9.0-1.0","SS1619739428554","trial","","40","500","1469.4599999929778","images/stimuli/spore_stims/complex_15_A_b.gif","images/stimuli/spore_stims/complex_17_A_a.gif","forced_long","","0","complex_dissimilar","images/stimuli/spore_stims/complex_17_A_a.gif","","","","",""
"","null","html-keyboard-response","11","288580","0.0-9.0-0.1","SS1619739428554","","","null","","","","","","<p><img src= images/blank.png width =""600"" height = ""600"" style=""position:fixed;top:50%; left:50%; transform: translate(-50%, -50%); border:5px solid black"">","","","","","","","",""
"","127964.07000001636","sequential-stimulus-presentation-old","12","417054","0.0-9.0-1.1","SS1619739428554","trial","","40","500","128464.07000001636","images/stimuli/spore_stims/complex_15_A_b.gif","images/stimuli/spore_stims/complex_17_A_a.gif","forced_long","","0","complex_dissimilar","images/stimuli/spore_stims/complex_15_A_b.gif","","","","",""
"","null","html-keyboard-response","13","418306","0.0-9.0-0.2","SS1619739428554","","","null","","","","","","<p><img src= images/blank.png width =""600"" height = ""600"" style=""position:fixed;top:50%; left:50%; transform: translate(-50%, -50%); border:5px solid black"">","","","","","","","",""
"","32748.194999992847","sequential-stimulus-presentation-old","14","451567","0.0-9.0-1.2","SS1619739428554","trial","","40","500","33248.19499999285","images/stimuli/spore_stims/complex_15_A_b.gif","images/stimuli/spore_stims/complex_17_A_a.gif","forced_long","","0","complex_dissimilar","images/stimuli/spore_stims/complex_15_A_b.gif","","","","",""
"","null","html-keyboard-response","15","452382","0.0-9.0-0.3","SS1619739428554","","","null","","","","","","<p><img src= images/blank.png width =""600"" height = ""600"" style=""position:fixed;top:50%; left:50%; transform: translate(-50%, -50%); border:5px solid black"">","","","","","","","",""
"","43017.0849999995","sequential-stimulus-presentation-old","16","495915","0.0-9.0-1.3","SS1619739428554","trial","","40","500","43517.0849999995","images/stimuli/spore_stims/complex_15_A_b.gif","images/stimuli/spore_stims/complex_17_A_a.gif","forced_long","","0","complex_dissimilar","images/stimuli/spore_stims/complex_17_A_a.gif","","","","",""
"","4184.145000006538","survey-multi-choice","17","500116","0.0-10.0","SS1619739428554","math_question","","","","","","","","","","","","{""Q0"":""9""}","[0]","9","",""
"","null","html-keyboard-response","18","501134","0.0-11.0-0.0","SS1619739428554","","","null","","","","","","<p><img src= images/blank.png width =""600"" height = ""600"" style=""position:fixed;top:50%; left:50%; transform: translate(-50%, -50%); border:5px solid black"">","","","","","","","",""
"","772.9049999907147","sequential-stimulus-presentation-old","19","502433","0.0-11.0-1.0","SS1619739428554","trial","","40","500","1272.9049999907147","images/stimuli/spore_stims/complex_19_A_a.gif","images/stimuli/spore_stims/complex_02_A_b.gif","forced_short","","1","complex_dissimilar","images/stimuli/spore_stims/complex_02_A_b.gif","","","","",""
"","null","html-keyboard-response","20","503473","0.0-11.0-0.1","SS1619739428554","","","null","","","","","","<p><img src= images/blank.png width =""600"" height = ""600"" style=""position:fixed;top:50%; left:50%; transform: translate(-50%, -50%); border:5px solid black"">","","","","","","","",""
"","40475.880000012694","sequential-stimulus-presentation-old","21","544458","0.0-11.0-1.1","SS1619739428554","trial","","40","500","40975.880000012694","images/stimuli/spore_stims/complex_19_A_a.gif","images/stimuli/spore_stims/complex_02_A_b.gif","forced_short","","1","complex_dissimilar","images/stimuli/spore_stims/complex_19_A_a.gif","","","","",""
"","null","html-keyboard-response","22","545352","0.0-11.0-0.2","SS1619739428554","","","null","","","","","","<p><img src= images/blank.png width =""600"" height = ""600"" style=""position:fixed;top:50%; left:50%; transform: translate(-50%, -50%); border:5px solid black"">","","","","","","","",""
"","20652.845000004163","sequential-stimulus-presentation-old","23","566522","0.0-11.0-1.2","SS1619739428554","trial","","40","500","21152.845000004163","images/stimuli/spore_stims/complex_19_A_a.gif","images/stimuli/spore_stims/complex_02_A_b.gif","forced_short","","1","complex_dissimilar","images/stimuli/spore_stims/complex_19_A_a.gif","","","","",""
"","null","html-keyboard-response","24","567749","0.0-11.0-0.3","SS1619739428554","","","null","","","","","","<p><img src= images/blank.png width =""600"" height = ""600"" style=""position:fixed;top:50%; left:50%; transform: translate(-50%, -50%); border:5px solid black"">","","","","","","","",""
"","24883.430000016233","sequential-stimulus-presentation-old","25","593147","0.0-11.0-1.3","SS1619739428554","trial","","40","500","25383.430000016233","images/stimuli/spore_stims/complex_19_A_a.gif","images/stimuli/spore_stims/complex_02_A_b.gif","forced_short","","1","complex_dissimilar","images/stimuli/spore_stims/complex_02_A_b.gif","","","","",""
"","null","html-keyboard-response","26","594342","0.0-11.0-0.4","SS1619739428554","","","null","","","","","","<p><img src= images/blank.png width =""600"" height = ""600"" style=""position:fixed;top:50%; left:50%; transform: translate(-50%, -50%); border:5px solid black"">","","","","","","","",""
"","21237.759999989066","sequential-stimulus-presentation-old","27","616092","0.0-11.0-1.4","SS1619739428554","trial","","40","500","21737.759999989066","images/stimuli/spore_stims/complex_19_A_a.gif","images/stimuli/spore_stims/complex_02_A_b.gif","forced_short","","1","complex_dissimilar","images/stimuli/spore_stims/complex_02_A_b.gif","","","","",""
"","3410.5500000005122","survey-multi-choice","28","619512","0.0-12.0","SS1619739428554","math_question","","","","","","","","","","","","{""Q0"":""10""}","[0]","10","",""
"","null","html-keyboard-response","29","620763","0.0-13.0-0.0","SS1619739428554","","","null","","","","","","<p><img src= images/blank.png width =""600"" height = ""600"" style=""position:fixed;top:50%; left:50%; transform: translate(-50%, -50%); border:5px solid black"">","","","","","","","",""
"","14243.859999987762","sequential-stimulus-presentation-old","30","635522","0.0-13.0-1.0","SS1619739428554","trial","","40","500","14743.859999987762","images/stimuli/spore_stims/complex_14_A_b.gif","images/stimuli/spore_stims/complex_07_A_a.gif","self_paced","","2","complex_dissimilar","images/stimuli/spore_stims/complex_07_A_a.gif","","","","",""
"","null","html-keyboard-response","31","636735","0.0-13.0-0.1","SS1619739428554","","","null","","","","","","<p><img src= images/blank.png width =""600"" height = ""600"" style=""position:fixed;top:50%; left:50%; transform: translate(-50%, -50%); border:5px solid black"">","","","","","","","",""
"","23789.970000012545","sequential-stimulus-presentation-old","32","661038","0.0-13.0-1.1","SS1619739428554","trial","","40","500","24289.970000012545","images/stimuli/spore_stims/complex_14_A_b.gif","images/stimuli/spore_stims/complex_07_A_a.gif","self_paced","","2","complex_dissimilar","images/stimuli/spore_stims/complex_14_A_b.gif","","","","",""
"","null","html-keyboard-response","33","662211","0.0-13.0-0.2","SS1619739428554","","","null","","","","","","<p><img src= images/blank.png width =""600"" height = ""600"" style=""position:fixed;top:50%; left:50%; transform: translate(-50%, -50%); border:5px solid black"">","","","","","","","",""
"","14729.809999989811","sequential-stimulus-presentation-old","34","677456","0.0-13.0-1.2","SS1619739428554","trial","","40","500","15229.809999989811","images/stimuli/spore_stims/complex_14_A_b.gif","images/stimuli/spore_stims/complex_07_A_a.gif","self_paced","","2","complex_dissimilar","images/stimuli/spore_stims/complex_07_A_a.gif","","","","",""
"","null","html-keyboard-response","35","678632","0.0-13.0-0.3","SS1619739428554","","","null","","","","","","<p><img src= images/blank.png width =""600"" height = ""600"" style=""position:fixed;top:50%; left:50%; transform: translate(-50%, -50%); border:5px solid black"">","","","","","","","",""
"","5920.570000016596","sequential-stimulus-presentation-old","36","685068","0.0-13.0-1.3","SS1619739428554","trial","","40","500","6420.570000016596","images/stimuli/spore_stims/complex_14_A_b.gif","images/stimuli/spore_stims/complex_07_A_a.gif","self_paced","","2","complex_dissimilar","images/stimuli/spore_stims/complex_07_A_a.gif","","","","",""
"","null","html-keyboard-response","37","686046","0.0-13.0-0.4","SS1619739428554","","","null","","","","","","<p><img src= images/blank.png width =""600"" height = ""600"" style=""position:fixed;top:50%; left:50%; transform: translate(-50%, -50%); border:5px solid black"">","","","","","","","",""
"","9236.624999990454","sequential-stimulus-presentation-old","38","695801","0.0-13.0-1.4","SS1619739428554","trial","","40","500","9736.624999990454","images/stimuli/spore_stims/complex_14_A_b.gif","images/stimuli/spore_stims/complex_07_A_a.gif","self_paced","","2","complex_dissimilar","images/stimuli/spore_stims/complex_07_A_a.gif","","","","",""
"","null","html-keyboard-response","39","696915","0.0-13.0-0.5","SS1619739428554","","","null","","","","","","<p><img src= images/blank.png width =""600"" height = ""600"" style=""position:fixed;top:50%; left:50%; transform: translate(-50%, -50%); border:5px solid black"">","","","","","","","",""
"","9155.729999998584","sequential-stimulus-presentation-old","40","706588","0.0-13.0-1.5","SS1619739428554","trial","","40","500","9655.729999998584","images/stimuli/spore_stims/complex_14_A_b.gif","images/stimuli/spore_stims/complex_07_A_a.gif","self_paced","","2","complex_dissimilar","images/stimuli/spore_stims/complex_14_A_b.gif","","","","",""
"","3465.41000000434","survey-multi-choice","41","710064","0.0-14.0","SS1619739428554","math_question","","","","","","","","","","","","{""Q0"":""11""}","[0]","11","",""
"","null","html-keyboard-response","42","711206","0.0-15.0-0.0","SS1619739428554","","","null","","","","","","<p><img src= images/blank.png width =""600"" height = ""600"" style=""position:fixed;top:50%; left:50%; transform: translate(-50%, -50%); border:5px solid black"">","","","","","","","",""
"","931.1949999828357","sequential-stimulus-presentation-old","43","712654","0.0-15.0-1.0","SS1619739428554","trial","","40","500","1431.1949999828357","images/stimuli/spore_stims/complex_03_A_a.gif","images/stimuli/spore_stims/complex_11_A_b.gif","forced_short","","3","complex_dissimilar","images/stimuli/spore_stims/complex_11_A_b.gif","","","","",""
"","null","html-keyboard-response","44","713836","0.0-15.0-0.1","SS1619739428554","","","null","","","","","","<p><img src= images/blank.png width =""600"" height = ""600"" style=""position:fixed;top:50%; left:50%; transform: translate(-50%, -50%); border:5px solid black"">","","","","","","","",""
"","18504.86000001547","sequential-stimulus-presentation-old","45","732851","0.0-15.0-1.1","SS1619739428554","trial","","40","500","19004.86000001547","images/stimuli/spore_stims/complex_03_A_a.gif","images/stimuli/spore_stims/complex_11_A_b.gif","forced_short","","3","complex_dissimilar","images/stimuli/spore_stims/complex_11_A_b.gif","","","","",""
"","null","html-keyboard-response","46","733873","0.0-15.0-0.2","SS1619739428554","","","null","","","","","","<p><img src= images/blank.png width =""600"" height = ""600"" style=""position:fixed;top:50%; left:50%; transform: translate(-50%, -50%); border:5px solid black"">","","","","","","","",""
"","4502.56999998237","sequential-stimulus-presentation-old","47","738897","0.0-15.0-1.2","SS1619739428554","trial","","40","500","5002.56999998237","images/stimuli/spore_stims/complex_03_A_a.gif","images/stimuli/spore_stims/complex_11_A_b.gif","forced_short","","3","complex_dissimilar","images/stimuli/spore_stims/complex_11_A_b.gif","","","","",""
"","null","html-keyboard-response","48","739793","0.0-15.0-0.3","SS1619739428554","","","null","","","","","","<p><img src= images/blank.png width =""600"" height = ""600"" style=""position:fixed;top:50%; left:50%; transform: translate(-50%, -50%); border:5px solid black"">","","","","","","","",""
"","4525.059999985388","sequential-stimulus-presentation-old","49","744836","0.0-15.0-1.3","SS1619739428554","trial","","40","500","5025.059999985388","images/stimuli/spore_stims/complex_03_A_a.gif","images/stimuli/spore_stims/complex_11_A_b.gif","forced_short","","3","complex_dissimilar","images/stimuli/spore_stims/complex_11_A_b.gif","","","","",""
"","null","html-keyboard-response","50","745952","0.0-15.0-0.4","SS1619739428554","","","null","","","","","","<p><img src= images/blank.png width =""600"" height = ""600"" style=""position:fixed;top:50%; left:50%; transform: translate(-50%, -50%); border:5px solid black"">","","","","","","","",""
"","4789.5949999801815","sequential-stimulus-presentation-old","51","751258","0.0-15.0-1.4","SS1619739428554","trial","","40","500","5289.5949999801815","images/stimuli/spore_stims/complex_03_A_a.gif","images/stimuli/spore_stims/complex_11_A_b.gif","forced_short","","3","complex_dissimilar","images/stimuli/spore_stims/complex_11_A_b.gif","","","","",""
"","null","html-keyboard-response","52","752125","0.0-15.0-0.5","SS1619739428554","","","null","","","","","","<p><img src= images/blank.png width =""600"" height = ""600"" style=""position:fixed;top:50%; left:50%; transform: translate(-50%, -50%); border:5px solid black"">","","","","","","","",""
"","4150.175000017043","sequential-stimulus-presentation-old","53","756792","0.0-15.0-1.5","SS1619739428554","trial","","40","500","4650.175000017043","images/stimuli/spore_stims/complex_03_A_a.gif","images/stimuli/spore_stims/complex_11_A_b.gif","forced_short","","3","complex_dissimilar","images/stimuli/spore_stims/complex_11_A_b.gif","","","","",""
"","3196.2449999991804","survey-multi-choice","54","760004","0.0-16.0","SS1619739428554","math_question","","","","","","","","","","","","{""Q0"":""11""}","[0]","11","",""
"","null","html-keyboard-response","55","760982","0.0-17.0-0.0","SS1619739428554","","","null","","","","","","<p><img src= images/blank.png width =""600"" height = ""600"" style=""position:fixed;top:50%; left:50%; transform: translate(-50%, -50%); border:5px solid black"">","","","","","","","",""
"","890.9250000142492","sequential-stimulus-presentation-old","56","762390","0.0-17.0-1.0","SS1619739428554","trial","","40","500","1390.9250000142492","images/stimuli/spore_stims/simple_01_A_b.gif","images/stimuli/spore_stims/simple_10_A_a.gif","forced_short","","4","simple_dissimilar","images/stimuli/spore_stims/simple_10_A_a.gif","","","","",""
"","null","html-keyboard-response","57","763684","0.0-17.0-0.1","SS1619739428554","","","null","","","","","","<p><img src= images/blank.png width =""600"" height = ""600"" style=""position:fixed;top:50%; left:50%; transform: translate(-50%, -50%); border:5px solid black"">","","","","","","","",""
"","15686.214999994263","sequential-stimulus-presentation-old","58","779884","0.0-17.0-1.1","SS1619739428554","trial","","40","500","16186.214999994263","images/stimuli/spore_stims/simple_01_A_b.gif","images/stimuli/spore_stims/simple_10_A_a.gif","forced_short","","4","simple_dissimilar","images/stimuli/spore_stims/simple_01_A_b.gif","","","","",""
"","null","html-keyboard-response","59","780920","0.0-17.0-0.2","SS1619739428554","","","null","","","","","","<p><img src= images/blank.png width =""600"" height = ""600"" style=""position:fixed;top:50%; left:50%; transform: translate(-50%, -50%); border:5px solid black"">","","","","","","","",""
"","5585.370000015246","sequential-stimulus-presentation-old","60","787023","0.0-17.0-1.2","SS1619739428554","trial","","40","500","6085.370000015246","images/stimuli/spore_stims/simple_01_A_b.gif","images/stimuli/spore_stims/simple_10_A_a.gif","forced_short","","4","simple_dissimilar","images/stimuli/spore_stims/simple_10_A_a.gif","","","","",""
"","null","html-keyboard-response","61","787996","0.0-17.0-0.3","SS1619739428554","","","null","","","","","","<p><img src= images/blank.png width =""600"" height = ""600"" style=""position:fixed;top:50%; left:50%; transform: translate(-50%, -50%); border:5px solid black"">","","","","","","","",""
"","3376.795000018319","sequential-stimulus-presentation-old","62","791892","0.0-17.0-1.3","SS1619739428554","trial","","40","500","3876.795000018319","images/stimuli/spore_stims/simple_01_A_b.gif","images/stimuli/spore_stims/simple_10_A_a.gif","forced_short","","4","simple_dissimilar","images/stimuli/spore_stims/simple_10_A_a.gif","","","","",""
"","null","html-keyboard-response","63","792874","0.0-17.0-0.4","SS1619739428554","","","null","","","","","","<p><img src= images/blank.png width =""600"" height = ""600"" style=""position:fixed;top:50%; left:50%; transform: translate(-50%, -50%); border:5px solid black"">","","","","","","","",""
"","686.1750000098255","sequential-stimulus-presentation-old","64","794077","0.0-17.0-1.4","SS1619739428554","trial","","40","500","1186.1750000098255","images/stimuli/spore_stims/simple_01_A_b.gif","images/stimuli/spore_stims/simple_10_A_a.gif","forced_short","","4","simple_dissimilar","images/stimuli/spore_stims/simple_10_A_a.gif","","","","",""
"","null","html-keyboard-response","65","794986","0.0-17.0-0.5","SS1619739428554","","","null","","","","","","<p><img src= images/blank.png width =""600"" height = ""600"" style=""position:fixed;top:50%; left:50%; transform: translate(-50%, -50%); border:5px solid black"">","","","","","","","",""
"","233.63500001141801","sequential-stimulus-presentation-old","66","795738","0.0-17.0-1.5","SS1619739428554","trial","","40","500","733.635000011418","images/stimuli/spore_stims/simple_01_A_b.gif","images/stimuli/spore_stims/simple_10_A_a.gif","forced_short","","4","simple_dissimilar","images/stimuli/spore_stims/simple_10_A_a.gif","","","","",""
"","3039.170000003651","survey-multi-choice","67","798788","0.0-18.0","SS1619739428554","math_question","","","","","","","","","","","","{""Q0"":""6""}","[0]","6","",""
"","null","html-keyboard-response","68","799771","0.0-19.0-0.0","SS1619739428554","","","null","","","","","","<p><img src= images/blank.png width =""600"" height = ""600"" style=""position:fixed;top:50%; left:50%; transform: translate(-50%, -50%); border:5px solid black"">","","","","","","","",""
"","21135.624999995343","sequential-stimulus-presentation-old","69","821425","0.0-19.0-1.0","SS1619739428554","trial","","40","500","21635.624999995343","images/stimuli/spore_stims/simple_19_A_b.gif","images/stimuli/spore_stims/simple_06_A_a.gif","self_paced","","5","simple_dissimilar","images/stimuli/spore_stims/simple_06_A_a.gif","","","","",""
"","null","html-keyboard-response","70","822427","0.0-19.0-0.1","SS1619739428554","","","null","","","","","","<p><img src= images/blank.png width =""600"" height = ""600"" style=""position:fixed;top:50%; left:50%; transform: translate(-50%, -50%); border:5px solid black"">","","","","","","","",""
"","5377.050000010058","sequential-stimulus-presentation-old","71","828323","0.0-19.0-1.1","SS1619739428554","trial","","40","500","5877.050000010058","images/stimuli/spore_stims/simple_19_A_b.gif","images/stimuli/spore_stims/simple_06_A_a.gif","self_paced","","5","simple_dissimilar","images/stimuli/spore_stims/simple_06_A_a.gif","","","","",""
"","null","html-keyboard-response","72","829341","0.0-19.0-0.2","SS1619739428554","","","null","","","","","","<p><img src= images/blank.png width =""600"" height = ""600"" style=""position:fixed;top:50%; left:50%; transform: translate(-50%, -50%); border:5px solid black"">","","","","","","","",""
"","5523.630000010598","sequential-stimulus-presentation-old","73","835384","0.0-19.0-1.2","SS1619739428554","trial","","40","500","6023.630000010598","images/stimuli/spore_stims/simple_19_A_b.gif","images/stimuli/spore_stims/simple_06_A_a.gif","self_paced","","5","simple_dissimilar","images/stimuli/spore_stims/simple_06_A_a.gif","","","","",""
"","null","html-keyboard-response","74","836425","0.0-19.0-0.3","SS1619739428554","","","null","","","","","","<p><img src= images/blank.png width =""600"" height = ""600"" style=""position:fixed;top:50%; left:50%; transform: translate(-50%, -50%); border:5px solid black"">","","","","","","","",""
"","1334.439999976894","sequential-stimulus-presentation-old","75","838277","0.0-19.0-1.3","SS1619739428554","trial","","40","500","1834.439999976894","images/stimuli/spore_stims/simple_19_A_b.gif","images/stimuli/spore_stims/simple_06_A_a.gif","self_paced","","5","simple_dissimilar","images/stimuli/spore_stims/simple_06_A_a.gif","","","","",""
"","3361.155000020517","survey-multi-choice","76","841649","0.0-20.0","SS1619739428554","math_question","","","","","","","","","","","","{""Q0"":""10""}","[0]","10","",""
"","null","html-keyboard-response","77","842928","0.0-21.0-0.0","SS1619739428554","","","null","","","","","","<p><img src= images/blank.png width =""600"" height = ""600"" style=""position:fixed;top:50%; left:50%; transform: translate(-50%, -50%); border:5px solid black"">","","","","","","","",""
"","492.58499999996275","sequential-stimulus-presentation-old","78","858440","0.0-21.0-1.0","SS1619739428554","trial","","40","500","992.5849999999627","images/stimuli/spore_stims/complex_13_A_a.gif","images/stimuli/spore_stims/complex_19_A_b.gif","forced_long","","6","complex_dissimilar","images/stimuli/spore_stims/complex_19_A_b.gif","","","","",""
"","null","html-keyboard-response","79","859491","0.0-21.0-0.1","SS1619739428554","","","null","","","","","","<p><img src= images/blank.png width =""600"" height = ""600"" style=""position:fixed;top:50%; left:50%; transform: translate(-50%, -50%); border:5px solid black"">","","","","","","","",""
"","3169.6649999939837","sequential-stimulus-presentation-old","80","863179","0.0-21.0-1.1","SS1619739428554","trial","","40","500","3669.6649999939837","images/stimuli/spore_stims/complex_13_A_a.gif","images/stimuli/spore_stims/complex_19_A_b.gif","forced_long","","6","complex_dissimilar","images/stimuli/spore_stims/complex_13_A_a.gif","","","","",""
"","null","html-keyboard-response","81","864124","0.0-21.0-0.2","SS1619739428554","","","null","","","","","","<p><img src= images/blank.png width =""600"" height = ""600"" style=""position:fixed;top:50%; left:50%; transform: translate(-50%, -50%); border:5px solid black"">","","","","","","","",""
"","3545.6999999878462","sequential-stimulus-presentation-old","82","868189","0.0-21.0-1.2","SS1619739428554","trial","","40","500","4045.6999999878462","images/stimuli/spore_stims/complex_13_A_a.gif","images/stimuli/spore_stims/complex_19_A_b.gif","forced_long","","6","complex_dissimilar","images/stimuli/spore_stims/complex_19_A_b.gif","","","","",""
"","null","html-keyboard-response","83","869356","0.0-21.0-0.3","SS1619739428554","","","null","","","","","","<p><img src= images/blank.png width =""600"" height = ""600"" style=""position:fixed;top:50%; left:50%; transform: translate(-50%, -50%); border:5px solid black"">","","","","","","","",""
"","714.6450000000186","sequential-stimulus-presentation-old","84","870600","0.0-21.0-1.3","SS1619739428554","trial","","40","500","1214.6450000000186","images/stimuli/spore_stims/complex_13_A_a.gif","images/stimuli/spore_stims/complex_19_A_b.gif","forced_long","","6","complex_dissimilar","images/stimuli/spore_stims/complex_19_A_b.gif","","","","",""
"","null","html-keyboard-response","85","871783","0.0-21.0-0.4","SS1619739428554","","","null","","","","","","<p><img src= images/blank.png width =""600"" height = ""600"" style=""position:fixed;top:50%; left:50%; transform: translate(-50%, -50%); border:5px solid black"">","","","","","","","",""
"","104.4300000066869","sequential-stimulus-presentation-old","86","872407","0.0-21.0-1.4","SS1619739428554","trial","","40","500","604.4300000066869","images/stimuli/spore_stims/complex_13_A_a.gif","images/stimuli/spore_stims/complex_19_A_b.gif","forced_long","","6","complex_dissimilar","images/stimuli/spore_stims/complex_19_A_b.gif","","","","",""
"","null","html-keyboard-response","87","873279","0.0-21.0-0.5","SS1619739428554","","","null","","","","","","<p><img src= images/blank.png width =""600"" height = ""600"" style=""position:fixed;top:50%; left:50%; transform: translate(-50%, -50%); border:5px solid black"">","","","","","","","",""
"","2193.2600000000093","sequential-stimulus-presentation-old","88","875990","0.0-21.0-1.5","SS1619739428554","trial","","40","500","2693.2600000000093","images/stimuli/spore_stims/complex_13_A_a.gif","images/stimuli/spore_stims/complex_19_A_b.gif","forced_long","","6","complex_dissimilar","images/stimuli/spore_stims/complex_19_A_b.gif","","","","",""
"","2817.4749999889173","survey-multi-choice","89","878821","0.0-22.0","SS1619739428554","math_question","","","","","","","","","","","","{""Q0"":""11""}","[0]","11","",""
"","null","html-keyboard-response","90","879801","0.0-23.0-0.0","SS1619739428554","","","null","","","","","","<p><img src= images/blank.png width =""600"" height = ""600"" style=""position:fixed;top:50%; left:50%; transform: translate(-50%, -50%); border:5px solid black"">","","","","","","","",""
"","3873.475000000326","sequential-stimulus-presentation-old","91","898696","0.0-23.0-1.0","SS1619739428554","trial","","40","500","4373.475000000326","images/stimuli/spore_stims/simple_07_A_a.gif","images/stimuli/spore_stims/simple_04_A_b.gif","forced_long","","7","simple_dissimilar","images/stimuli/spore_stims/simple_04_A_b.gif","","","","",""
"","null","html-keyboard-response","92","899848","0.0-23.0-0.1","SS1619739428554","","","null","","","","","","<p><img src= images/blank.png width =""600"" height = ""600"" style=""position:fixed;top:50%; left:50%; transform: translate(-50%, -50%); border:5px solid black"">","","","","","","","",""
"","56.80500000016764","sequential-stimulus-presentation-old","93","900427","0.0-23.0-1.1","SS1619739428554","trial","","40","500","556.8050000001676","images/stimuli/spore_stims/simple_07_A_a.gif","images/stimuli/spore_stims/simple_04_A_b.gif","forced_long","","7","simple_dissimilar","images/stimuli/spore_stims/simple_04_A_b.gif","","","","",""
"","null","html-keyboard-response","94","901542","0.0-23.0-0.2","SS1619739428554","","","null","","","","","","<p><img src= images/blank.png width =""600"" height = ""600"" style=""position:fixed;top:50%; left:50%; transform: translate(-50%, -50%); border:5px solid black"">","","","","","","","",""
"","5859.220000013011","sequential-stimulus-presentation-old","95","907920","0.0-23.0-1.2","SS1619739428554","trial","","40","500","6359.220000013011","images/stimuli/spore_stims/simple_07_A_a.gif","images/stimuli/spore_stims/simple_04_A_b.gif","forced_long","","7","simple_dissimilar","images/stimuli/spore_stims/simple_07_A_a.gif","","","","",""
"","null","html-keyboard-response","96","909097","0.0-23.0-0.3","SS1619739428554","","","null","","","","","","<p><img src= images/blank.png width =""600"" height = ""600"" style=""position:fixed;top:50%; left:50%; transform: translate(-50%, -50%); border:5px solid black"">","","","","","","","",""
"","14548.634999984642","sequential-stimulus-presentation-old","97","924166","0.0-23.0-1.3","SS1619739428554","trial","","40","500","15048.634999984642","images/stimuli/spore_stims/simple_07_A_a.gif","images/stimuli/spore_stims/simple_04_A_b.gif","forced_long","","7","simple_dissimilar","images/stimuli/spore_stims/simple_04_A_b.gif","","","","",""
"","5838.560000003781","survey-multi-choice","98","930017","0.0-24.0","SS1619739428554","math_question","","","","","","","","","","","","{""Q0"":""13""}","[0]","13","",""
"","null","html-keyboard-response","99","930911","0.0-25.0-0.0","SS1619739428554","","","null","","","","","","<p><img src= images/blank.png width =""600"" height = ""600"" style=""position:fixed;top:50%; left:50%; transform: translate(-50%, -50%); border:5px solid black"">","","","","","","","",""
"","33964.37000000151","sequential-stimulus-presentation-old","100","965394","0.0-25.0-1.0","SS1619739428554","trial","","40","500","34464.37000000151","images/stimuli/spore_stims/simple_16_A_b.gif","images/stimuli/spore_stims/simple_14_A_a.gif","self_paced","","8","simple_dissimilar","images/stimuli/spore_stims/simple_14_A_a.gif","","","","",""
"","null","html-keyboard-response","101","966341","0.0-25.0-0.1","SS1619739428554","","","null","","","","","","<p><img src= images/blank.png width =""600"" height = ""600"" style=""position:fixed;top:50%; left:50%; transform: translate(-50%, -50%); border:5px solid black"">","","","","","","","",""
"","4378.579999989597","sequential-stimulus-presentation-old","102","971241","0.0-25.0-1.1","SS1619739428554","trial","","40","500","4878.579999989597","images/stimuli/spore_stims/simple_16_A_b.gif","images/stimuli/spore_stims/simple_14_A_a.gif","self_paced","","8","simple_dissimilar","images/stimuli/spore_stims/simple_14_A_a.gif","","","","",""
"","null","html-keyboard-response","103","972360","0.0-25.0-0.2","SS1619739428554","","","null","","","","","","<p><img src= images/blank.png width =""600"" height = ""600"" style=""position:fixed;top:50%; left:50%; transform: translate(-50%, -50%); border:5px solid black"">","","","","","","","",""
"","7868.894999992335","sequential-stimulus-presentation-old","104","980753","0.0-25.0-1.2","SS1619739428554","trial","","40","500","8368.894999992335","images/stimuli/spore_stims/simple_16_A_b.gif","images/stimuli/spore_stims/simple_14_A_a.gif","self_paced","","8","simple_dissimilar","images/stimuli/spore_stims/simple_16_A_b.gif","","","","",""
"","null","html-keyboard-response","105","981799","0.0-25.0-0.3","SS1619739428554","","","null","","","","","","<p><img src= images/blank.png width =""600"" height = ""600"" style=""position:fixed;top:50%; left:50%; transform: translate(-50%, -50%); border:5px solid black"">","","","","","","","",""
"","3351.265000004787","sequential-stimulus-presentation-old","106","985673","0.0-25.0-1.3","SS1619739428554","trial","","40","500","3851.265000004787","images/stimuli/spore_stims/simple_16_A_b.gif","images/stimuli/spore_stims/simple_14_A_a.gif","self_paced","","8","simple_dissimilar","images/stimuli/spore_stims/simple_14_A_a.gif","","","","",""
"","2759.300000005169","survey-multi-choice","107","988448","0.0-26.0","SS1619739428554","math_question","","","","","","","","","","","","{""Q0"":""8""}","[0]","8","",""
"","null","html-keyboard-response","108","989384","0.0-27.0-0.0","SS1619739428554","","","null","","","","","","<p><img src= images/blank.png width =""600"" height = ""600"" style=""position:fixed;top:50%; left:50%; transform: translate(-50%, -50%); border:5px solid black"">","","","","","","","",""
"","9290.479999996023","sequential-stimulus-presentation-old","109","999196","0.0-27.0-1.0","SS1619739428554","trial","","40","500","9790.479999996023","images/stimuli/spore_stims/complex_08_A_a.gif","images/stimuli/spore_stims/complex_09_A_b.gif","self_paced","","9","complex_dissimilar","images/stimuli/spore_stims/complex_09_A_b.gif","","","","",""
"","null","html-keyboard-response","110","1000118","0.0-27.0-0.1","SS1619739428554","","","null","","","","","","<p><img src= images/blank.png width =""600"" height = ""600"" style=""position:fixed;top:50%; left:50%; transform: translate(-50%, -50%); border:5px solid black"">","","","","","","","",""
"","2473.339999996824","sequential-stimulus-presentation-old","111","1003113","0.0-27.0-1.1","SS1619739428554","trial","","40","500","2973.339999996824","images/stimuli/spore_stims/complex_08_A_a.gif","images/stimuli/spore_stims/complex_09_A_b.gif","self_paced","","9","complex_dissimilar","images/stimuli/spore_stims/complex_09_A_b.gif","","","","",""
"","null","html-keyboard-response","112","1004985","0.0-27.0-0.2","SS1619739428554","","","null","","","","","","<p><img src= images/blank.png width =""600"" height = ""600"" style=""position:fixed;top:50%; left:50%; transform: translate(-50%, -50%); border:5px solid black"">","","","","","","","",""
"","9395.229999994626","sequential-stimulus-presentation-old","113","1015259","0.0-27.0-1.2","SS1619739428554","trial","","40","500","9895.229999994626","images/stimuli/spore_stims/complex_08_A_a.gif","images/stimuli/spore_stims/complex_09_A_b.gif","self_paced","","9","complex_dissimilar","images/stimuli/spore_stims/complex_08_A_a.gif","","","","",""
"","null","html-keyboard-response","114","1016573","0.0-27.0-0.3","SS1619739428554","","","null","","","","","","<p><img src= images/blank.png width =""600"" height = ""600"" style=""position:fixed;top:50%; left:50%; transform: translate(-50%, -50%); border:5px solid black"">","","","","","","","",""
"","2056.209999980638","sequential-stimulus-presentation-old","115","1019155","0.0-27.0-1.3","SS1619739428554","trial","","40","500","2556.209999980638","images/stimuli/spore_stims/complex_08_A_a.gif","images/stimuli/spore_stims/complex_09_A_b.gif","self_paced","","9","complex_dissimilar","images/stimuli/spore_stims/complex_09_A_b.gif","","","","",""
"","null","html-keyboard-response","116","1019977","0.0-27.0-0.4","SS1619739428554","","","null","","","","","","<p><img src= images/blank.png width =""600"" height = ""600"" style=""position:fixed;top:50%; left:50%; transform: translate(-50%, -50%); border:5px solid black"">","","","","","","","",""
"","6682.029999996303","sequential-stimulus-presentation-old","117","1027181","0.0-27.0-1.4","SS1619739428554","trial","","40","500","7182.029999996303","images/stimuli/spore_stims/complex_08_A_a.gif","images/stimuli/spore_stims/complex_09_A_b.gif","self_paced","","9","complex_dissimilar","images/stimuli/spore_stims/complex_08_A_a.gif","","","","",""
"","2421.219999989262","survey-multi-choice","118","1029616","0.0-28.0","SS1619739428554","math_question","","","","","","","","","","","","{""Q0"":""10""}","[0]","10","",""
"","null","html-keyboard-response","119","1030806","0.0-29.0-0.0","SS1619739428554","","","null","","","","","","<p><img src= images/blank.png width =""600"" height = ""600"" style=""position:fixed;top:50%; left:50%; transform: translate(-50%, -50%); border:5px solid black"">","","","","","","","",""
"","994.2849999933969","sequential-stimulus-presentation-old","120","1032323","0.0-29.0-1.0","SS1619739428554","trial","","40","500","1494.284999993397","images/stimuli/spore_stims/simple_15_A_b.gif","images/stimuli/spore_stims/simple_19_A_a.gif","forced_short","","10","simple_dissimilar","images/stimuli/spore_stims/simple_19_A_a.gif","","","","",""
"","null","html-keyboard-response","121","1033524","0.0-29.0-0.1","SS1619739428554","","","null","","","","","","<p><img src= images/blank.png width =""600"" height = ""600"" style=""position:fixed;top:50%; left:50%; transform: translate(-50%, -50%); border:5px solid black"">","","","","","","","",""
"","6400.909999996657","sequential-stimulus-presentation-old","122","1040443","0.0-29.0-1.1","SS1619739428554","trial","","40","500","6900.909999996657","images/stimuli/spore_stims/simple_15_A_b.gif","images/stimuli/spore_stims/simple_19_A_a.gif","forced_short","","10","simple_dissimilar","images/stimuli/spore_stims/simple_19_A_a.gif","","","","",""
"","null","html-keyboard-response","123","1041680","0.0-29.0-0.2","SS1619739428554","","","null","","","","","","<p><img src= images/blank.png width =""600"" height = ""600"" style=""position:fixed;top:50%; left:50%; transform: translate(-50%, -50%); border:5px solid black"">","","","","","","","",""
"","5761.124999989988","sequential-stimulus-presentation-old","124","1047963","0.0-29.0-1.2","SS1619739428554","trial","","40","500","6261.124999989988","images/stimuli/spore_stims/simple_15_A_b.gif","images/stimuli/spore_stims/simple_19_A_a.gif","forced_short","","10","simple_dissimilar","images/stimuli/spore_stims/simple_19_A_a.gif","","","","",""
"","null","html-keyboard-response","125","1048787","0.0-29.0-0.3","SS1619739428554","","","null","","","","","","<p><img src= images/blank.png width =""600"" height = ""600"" style=""position:fixed;top:50%; left:50%; transform: translate(-50%, -50%); border:5px solid black"">","","","","","","","",""
"","2248.5300000116695","sequential-stimulus-presentation-old","126","1051560","0.0-29.0-1.3","SS1619739428554","trial","","40","500","2748.5300000116695","images/stimuli/spore_stims/simple_15_A_b.gif","images/stimuli/spore_stims/simple_19_A_a.gif","forced_short","","10","simple_dissimilar","images/stimuli/spore_stims/simple_19_A_a.gif","","","","",""
"","4145.80999998725","survey-multi-choice","127","1055722","0.0-30.0","SS1619739428554","math_question","","","","","","","","","","","","{""Q0"":""18""}","[0]","18","",""
"","null","html-keyboard-response","128","1056710","0.0-31.0-0.0","SS1619739428554","","","null","","","","","","<p><img src= images/blank.png width =""600"" height = ""600"" style=""position:fixed;top:50%; left:50%; transform: translate(-50%, -50%); border:5px solid black"">","","","","","","","",""
"","1573.0099999927916","sequential-stimulus-presentation-old","129","1073308","0.0-31.0-1.0","SS1619739428554","trial","","40","500","2073.0099999927916","images/stimuli/spore_stims/simple_04_A_a.gif","images/stimuli/spore_stims/simple_11_A_b.gif","forced_long","","11","simple_dissimilar","images/stimuli/spore_stims/simple_11_A_b.gif","","","","",""
"","null","html-keyboard-response","130","1074496","0.0-31.0-0.1","SS1619739428554","","","null","","","","","","<p><img src= images/blank.png width =""600"" height = ""600"" style=""position:fixed;top:50%; left:50%; transform: translate(-50%, -50%); border:5px solid black"">","","","","","","","",""
"","730.3799999936018","sequential-stimulus-presentation-old","131","1075751","0.0-31.0-1.1","SS1619739428554","trial","","40","500","1230.3799999936018","images/stimuli/spore_stims/simple_04_A_a.gif","images/stimuli/spore_stims/simple_11_A_b.gif","forced_long","","11","simple_dissimilar","images/stimuli/spore_stims/simple_11_A_b.gif","","","","",""
"","null","html-keyboard-response","132","1076698","0.0-31.0-0.2","SS1619739428554","","","null","","","","","","<p><img src= images/blank.png width =""600"" height = ""600"" style=""position:fixed;top:50%; left:50%; transform: translate(-50%, -50%); border:5px solid black"">","","","","","","","",""
"","4628.379999980098","sequential-stimulus-presentation-old","133","1081846","0.0-31.0-1.2","SS1619739428554","trial","","40","500","5128.379999980098","images/stimuli/spore_stims/simple_04_A_a.gif","images/stimuli/spore_stims/simple_11_A_b.gif","forced_long","","11","simple_dissimilar","images/stimuli/spore_stims/simple_11_A_b.gif","","","","",""
"","null","html-keyboard-response","134","1082755","0.0-31.0-0.3","SS1619739428554","","","null","","","","","","<p><img src= images/blank.png width =""600"" height = ""600"" style=""position:fixed;top:50%; left:50%; transform: translate(-50%, -50%); border:5px solid black"">","","","","","","","",""
"","6666.93999999552","sequential-stimulus-presentation-old","135","1089944","0.0-31.0-1.3","SS1619739428554","trial","","40","500","7166.93999999552","images/stimuli/spore_stims/simple_04_A_a.gif","images/stimuli/spore_stims/simple_11_A_b.gif","forced_long","","11","simple_dissimilar","images/stimuli/spore_stims/simple_04_A_a.gif","","","","",""
"","null","html-keyboard-response","136","1090804","0.0-31.0-0.4","SS1619739428554","","","null","","","","","","<p><img src= images/blank.png width =""600"" height = ""600"" style=""position:fixed;top:50%; left:50%; transform: translate(-50%, -50%); border:5px solid black"">","","","","","","","",""
"","12030.70000000298","sequential-stimulus-presentation-old","137","1103362","0.0-31.0-1.4","SS1619739428554","trial","","40","500","12530.70000000298","images/stimuli/spore_stims/simple_04_A_a.gif","images/stimuli/spore_stims/simple_11_A_b.gif","forced_long","","11","simple_dissimilar","images/stimuli/spore_stims/simple_11_A_b.gif","","","","",""
"","null","html-keyboard-response","138","1104417","0.0-31.0-0.5","SS1619739428554","","","null","","","","","","<p><img src= images/blank.png width =""600"" height = ""600"" style=""position:fixed;top:50%; left:50%; transform: translate(-50%, -50%); border:5px solid black"">","","","","","","","",""
"","1180.1649999979418","sequential-stimulus-presentation-old","139","1106121","0.0-31.0-1.5","SS1619739428554","trial","","40","500","1680.1649999979418","images/stimuli/spore_stims/simple_04_A_a.gif","images/stimuli/spore_stims/simple_11_A_b.gif","forced_long","","11","simple_dissimilar","images/stimuli/spore_stims/simple_11_A_b.gif","","","","",""
"[{""page_index"":0,""viewing_time"":23149.15499999188}]","23150.104999978794","instructions","140","1129284","0.0-32.0","SS1619739428554","instructions","","","","","","","","","","","","","","","",""
"","25128.17000001087","survey-likert","141","1154435","0.0-33.0","SS1619739428554","similarity_question","","","","","","","","","","","","{""Q0"":0}","[0]","","images/stimuli/spore_stims/complex_13_A_a.gif","images/stimuli/spore_stims/complex_19_A_b.gif"
"","5509.135000000242","survey-likert","142","1159968","0.0-34.0","SS1619739428554","similarity_question","","","","","","","","","","","","{""Q0"":1}","[0]","","images/stimuli/spore_stims/simple_15_A_b.gif","images/stimuli/spore_stims/simple_19_A_a.gif"
"","4404.969999974128","survey-likert","143","1164404","0.0-35.0","SS1619739428554","similarity_question","","","","","","","","","","","","{""Q0"":0}","[0]","","images/stimuli/spore_stims/simple_07_A_a.gif","images/stimuli/spore_stims/simple_04_A_b.gif"
"","4014.374999998836","survey-likert","144","1168441","0.0-36.0","SS1619739428554","similarity_question","","","","","","","","","","","","{""Q0"":4}","[0]","","images/stimuli/spore_stims/simple_16_A_b.gif","images/stimuli/spore_stims/simple_14_A_a.gif"
"","3949.5849999948405","survey-likert","145","1172418","0.0-37.0","SS1619739428554","similarity_question","","","","","","","","","","","","{""Q0"":1}","[0]","","images/stimuli/spore_stims/complex_08_A_a.gif","images/stimuli/spore_stims/complex_09_A_b.gif"
"","3829.3700000212993","survey-likert","146","1176275","0.0-38.0","SS1619739428554","similarity_question","","","","","","","","","","","","{""Q0"":0}","[0]","","images/stimuli/spore_stims/complex_07_A_a.gif","images/stimuli/spore_stims/complex_14_A_b.gif"
"","4633.715000003576","survey-likert","147","1180931","0.0-39.0","SS1619739428554","similarity_question","","","","","","","","","","","","{""Q0"":0}","[0]","","images/stimuli/spore_stims/complex_15_A_b.gif","images/stimuli/spore_stims/complex_17_A_a.gif"
"","4552.5999999954365","survey-likert","148","1185508","0.0-40.0","SS1619739428554","similarity_question","","","","","","","","","","","","{""Q0"":0}","[0]","","images/stimuli/spore_stims/simple_04_A_a.gif","images/stimuli/spore_stims/simple_11_A_b.gif"
"","2945.7750000001397","survey-likert","149","1188476","0.0-41.0","SS1619739428554","similarity_question","","","","","","","","","","","","{""Q0"":0}","[0]","","images/stimuli/spore_stims/complex_03_A_a.gif","images/stimuli/spore_stims/complex_11_A_b.gif"
"","2761.144999996759","survey-likert","150","1191267","0.0-42.0","SS1619739428554","similarity_question","","","","","","","","","","","","{""Q0"":1}","[0]","","images/stimuli/spore_stims/simple_06_A_a.gif","images/stimuli/spore_stims/simple_19_A_b.gif"
"","4403.649999992922","survey-likert","151","1195694","0.0-43.0","SS1619739428554","similarity_question","","","","","","","","","","","","{""Q0"":1}","[0]","","images/stimuli/spore_stims/simple_01_A_b.gif","images/stimuli/spore_stims/simple_10_A_a.gif"
"","4639.945000002626","survey-likert","152","1200359","0.0-44.0","SS1619739428554","similarity_question","","","","","","","","","","","","{""Q0"":2}","[0]","","images/stimuli/spore_stims/complex_02_A_b.gif","images/stimuli/spore_stims/complex_19_A_a.gif"
"[{""page_index"":0,""viewing_time"":17543.499999999767}]","17544.690000009723","instructions","153","1217922","0.0-45.0","SS1619739428554","instructions","","","","","","","","","","","","","","","",""
"","17633.085000008577","survey-likert","154","1235578","0.0-46.0","SS1619739428554","","","","","","","","","images/stimuli/spore_stims/simple_10_A_a.gif","","","","{""Q0"":2}","[0]","","",""
"","3179.724999994505","survey-likert","155","1238778","0.0-47.0","SS1619739428554","","","","","","","","","images/stimuli/spore_stims/complex_02_A_b.gif","","","","{""Q0"":4}","[0]","","",""
"","2599.529999977676","survey-likert","156","1241399","0.0-48.0","SS1619739428554","","","","","","","","","images/stimuli/spore_stims/simple_15_A_b.gif","","","","{""Q0"":1}","[0]","","",""
"","4727.789999975357","survey-likert","157","1246157","0.0-49.0","SS1619739428554","","","","","","","","","images/stimuli/spore_stims/complex_11_A_b.gif","","","","{""Q0"":5}","[0]","","",""
"","2607.6000000175554","survey-likert","158","1248788","0.0-50.0","SS1619739428554","","","","","","","","","images/stimuli/spore_stims/complex_17_A_a.gif","","","","{""Q0"":5}","[0]","","",""
"","2414.099999994505","survey-likert","159","1251229","0.0-51.0","SS1619739428554","","","","","","","","","images/stimuli/spore_stims/simple_07_A_a.gif","","","","{""Q0"":1}","[0]","","",""
"","2325.5349999817554","survey-likert","160","1253582","0.0-52.0","SS1619739428554","","","","","","","","","images/stimuli/spore_stims/simple_04_A_a.gif","","","","{""Q0"":1}","[0]","","",""
"","2379.2750000138767","survey-likert","161","1255986","0.0-53.0","SS1619739428554","","","","","","","","","images/stimuli/spore_stims/simple_14_A_a.gif","","","","{""Q0"":1}","[0]","","",""
"","3640.9350000030827","survey-likert","162","1259653","0.0-54.0","SS1619739428554","","","","","","","","","images/stimuli/spore_stims/complex_08_A_a.gif","","","","{""Q0"":5}","[0]","","",""
"","4691.055000002962","survey-likert","163","1264367","0.0-55.0","SS1619739428554","","","","","","","","","images/stimuli/spore_stims/complex_14_A_b.gif","","","","{""Q0"":4}","[0]","","",""
"","3714.025000022957","survey-likert","164","1268106","0.0-56.0","SS1619739428554","","","","","","","","","images/stimuli/spore_stims/complex_19_A_b.gif","","","","{""Q0"":5}","[0]","","",""
"","3673.685000016121","survey-likert","165","1271812","0.0-57.0","SS1619739428554","","","","","","","","","images/stimuli/spore_stims/simple_06_A_a.gif","","","","{""Q0"":0}","[0]","","",""
"[{""page_index"":0,""viewing_time"":3047.9400000185706}]","3048.914999992121","instructions","166","1274882","0.0-58.0","SS1619739428554","instructions","","","","","","","","","","","","","","","",""
"","2843.910000025062","demog-age","167","1277755","0.0-59.0","SS1619739428554","","","","","","","","","","","","","{""age"":""20""}","","","",""
"","6511.220000014873","demog-ethnic-US","168","1284327","0.0-60.0","SS1619739428554","","","","","","","","","","","","","{""ethnicity"":[""White""]}","[0]","","",""
"","59307.2000000102","demog-gender-and-education","169","1343656","0.0-61.0","SS1619739428554","","","","","","","","","","","","","{""gender"":""Female"",""education"":""High school diploma""}","[0,1]","","",""
"","68277.38000001409","survey-text","170","1411958","0.0-62.0","SS1619739428554","feedback","","","","","","","","","","","","{""Q0"":""I did not face any problems.""}","","","",""
"[{""page_index"":0,""viewing_time"":2915.9599999838974}]","2917.109999980312","instructions","171","1414895","0.0-63.0","SS1619739428554","instructions","","","","","","","","","","","","","","","",""
