"view_history","rt","trial_type","trial_index","time_elapsed","internal_node_id","subject","stimulus_type","trial_stimulus","key_press","minimum_viewing_duration","trial_looking_time","block_deviant","block_background","exposure_type","stimulus","block_number","block_type","stimulus_displayed","responses","question_order","math_correct_answer","stimulus_left","stimulus_right"
"[{""page_index"":0,""viewing_time"":4782.110000029206}]","4783.225000021048","instructions","0","4786","0.0-0.0","SS1619739600585","","","","","","","","","","","","","","","","",""
"[{""page_index"":0,""viewing_time"":13740.740000037476},{""page_index"":1,""viewing_time"":6704.634999972768}]","20445.799999986775","instructions","1","27236","0.0-1.0","SS1619739600585","instructions","","","","","","","","","","","","","","","",""
"","36640.56500000879","sequential-stimulus-presentation-old","2","64385","0.0-2.0","SS1619739600585","","","40","500","37140.56500000879","null","null","self_paced","","","","","","","","",""
"","10290.580000029877","sequential-stimulus-presentation-old","3","75180","0.0-3.0","SS1619739600585","","","40","500","10790.580000029877","null","null","self_paced","","","","","","","","",""
"[{""page_index"":0,""viewing_time"":18500.319999991916}]","18500.7199998945","instructions","4","93683","0.0-4.0","SS1619739600585","instructions","","","","","","","","","","","","","","","",""
"","594.7150000138208","sequential-stimulus-presentation-old","5","109285","0.0-5.0","SS1619739600585","","","40","500","1094.7150000138208","null","null","forced_long","","","","","","","","",""
"","1394.5700000040233","sequential-stimulus-presentation-old","6","111185","0.0-6.0","SS1619739600585","","","40","500","1894.5700000040233","null","null","forced_long","","","","","","","","",""
"[{""page_index"":0,""viewing_time"":4137.920000008307}]","4138.365000020713","instructions","7","115324","0.0-7.0","SS1619739600585","instructions","","","","","","","","","","","","","","","",""
"[{""page_index"":0,""viewing_time"":15304.959999979474},{""page_index"":1,""viewing_time"":11688.319999957457},{""page_index"":2,""viewing_time"":8163.425000035204},{""page_index"":3,""viewing_time"":1881.3399999635294},{""page_index"":4,""viewing_time"":1426.4599999878556}]","38464.899999904446","instructions","8","153791","0.0-8.0","SS1619739600585","instructions","","","","","","","","","","","","","","","",""
"","null","html-keyboard-response","9","154661","0.0-9.0-0.0","SS1619739600585","","","null","","","","","","<p><img src= images/blank.png width =""600"" height = ""600"" style=""position:fixed;top:50%; left:50%; transform: translate(-50%, -50%); border:5px solid black"">","","","","","","","",""
"","4223.955000052229","sequential-stimulus-presentation-old","10","159393","0.0-9.0-1.0","SS1619739600585","trial","","40","500","4723.955000052229","images/stimuli/spore_stims/complex_04_A_a.gif","images/stimuli/spore_stims/complex_17_A_b.gif","forced_short","","0","complex_dissimilar","images/stimuli/spore_stims/complex_17_A_b.gif","","","","",""
"","null","html-keyboard-response","11","160383","0.0-9.0-0.1","SS1619739600585","","","null","","","","","","<p><img src= images/blank.png width =""600"" height = ""600"" style=""position:fixed;top:50%; left:50%; transform: translate(-50%, -50%); border:5px solid black"">","","","","","","","",""
"","14013.120000017807","sequential-stimulus-presentation-old","12","174903","0.0-9.0-1.1","SS1619739600585","trial","","40","500","14513.120000017807","images/stimuli/spore_stims/complex_04_A_a.gif","images/stimuli/spore_stims/complex_17_A_b.gif","forced_short","","0","complex_dissimilar","images/stimuli/spore_stims/complex_17_A_b.gif","","","","",""
"","null","html-keyboard-response","13","175768","0.0-9.0-0.2","SS1619739600585","","","null","","","","","","<p><img src= images/blank.png width =""600"" height = ""600"" style=""position:fixed;top:50%; left:50%; transform: translate(-50%, -50%); border:5px solid black"">","","","","","","","",""
"","13395.65500000026","sequential-stimulus-presentation-old","14","189673","0.0-9.0-1.2","SS1619739600585","trial","","40","500","13895.65500000026","images/stimuli/spore_stims/complex_04_A_a.gif","images/stimuli/spore_stims/complex_17_A_b.gif","forced_short","","0","complex_dissimilar","images/stimuli/spore_stims/complex_17_A_b.gif","","","","",""
"","null","html-keyboard-response","15","190523","0.0-9.0-0.3","SS1619739600585","","","null","","","","","","<p><img src= images/blank.png width =""600"" height = ""600"" style=""position:fixed;top:50%; left:50%; transform: translate(-50%, -50%); border:5px solid black"">","","","","","","","",""
"","5672.625000006519","sequential-stimulus-presentation-old","16","196702","0.0-9.0-1.3","SS1619739600585","trial","","40","500","6172.625000006519","images/stimuli/spore_stims/complex_04_A_a.gif","images/stimuli/spore_stims/complex_17_A_b.gif","forced_short","","0","complex_dissimilar","images/stimuli/spore_stims/complex_17_A_b.gif","","","","",""
"","4726.705000037327","survey-multi-choice","17","201435","0.0-10.0","SS1619739600585","math_question","","","","","","","","","","","","{""Q0"":""5""}","[0]","5","",""
"","null","html-keyboard-response","18","202328","0.0-11.0-0.0","SS1619739600585","","","null","","","","","","<p><img src= images/blank.png width =""600"" height = ""600"" style=""position:fixed;top:50%; left:50%; transform: translate(-50%, -50%); border:5px solid black"">","","","","","","","",""
"","2975.9499999927357","sequential-stimulus-presentation-old","19","220315","0.0-11.0-1.0","SS1619739600585","trial","","40","500","3475.9499999927357","images/stimuli/spore_stims/complex_15_A_b.gif","images/stimuli/spore_stims/complex_17_A_a.gif","forced_long","","1","complex_dissimilar","images/stimuli/spore_stims/complex_17_A_a.gif","","","","",""
"","null","html-keyboard-response","20","221387","0.0-11.0-0.1","SS1619739600585","","","null","","","","","","<p><img src= images/blank.png width =""600"" height = ""600"" style=""position:fixed;top:50%; left:50%; transform: translate(-50%, -50%); border:5px solid black"">","","","","","","","",""
"","12346.454999991693","sequential-stimulus-presentation-old","21","234239","0.0-11.0-1.1","SS1619739600585","trial","","40","500","12846.454999991693","images/stimuli/spore_stims/complex_15_A_b.gif","images/stimuli/spore_stims/complex_17_A_a.gif","forced_long","","1","complex_dissimilar","images/stimuli/spore_stims/complex_17_A_a.gif","","","","",""
"","null","html-keyboard-response","22","235383","0.0-11.0-0.2","SS1619739600585","","","null","","","","","","<p><img src= images/blank.png width =""600"" height = ""600"" style=""position:fixed;top:50%; left:50%; transform: translate(-50%, -50%); border:5px solid black"">","","","","","","","",""
"","6367.690000100993","sequential-stimulus-presentation-old","23","242257","0.0-11.0-1.2","SS1619739600585","trial","","40","500","6867.690000100993","images/stimuli/spore_stims/complex_15_A_b.gif","images/stimuli/spore_stims/complex_17_A_a.gif","forced_long","","1","complex_dissimilar","images/stimuli/spore_stims/complex_15_A_b.gif","","","","",""
"","null","html-keyboard-response","24","243515","0.0-11.0-0.3","SS1619739600585","","","null","","","","","","<p><img src= images/blank.png width =""600"" height = ""600"" style=""position:fixed;top:50%; left:50%; transform: translate(-50%, -50%); border:5px solid black"">","","","","","","","",""
"","5040.7450000057","sequential-stimulus-presentation-old","25","249060","0.0-11.0-1.3","SS1619739600585","trial","","40","500","5540.7450000057","images/stimuli/spore_stims/complex_15_A_b.gif","images/stimuli/spore_stims/complex_17_A_a.gif","forced_long","","1","complex_dissimilar","images/stimuli/spore_stims/complex_17_A_a.gif","","","","",""
"","null","html-keyboard-response","26","250041","0.0-11.0-0.4","SS1619739600585","","","null","","","","","","<p><img src= images/blank.png width =""600"" height = ""600"" style=""position:fixed;top:50%; left:50%; transform: translate(-50%, -50%); border:5px solid black"">","","","","","","","",""
"","6124.0949999773875","sequential-stimulus-presentation-old","27","256670","0.0-11.0-1.4","SS1619739600585","trial","","40","500","6624.0949999773875","images/stimuli/spore_stims/complex_15_A_b.gif","images/stimuli/spore_stims/complex_17_A_a.gif","forced_long","","1","complex_dissimilar","images/stimuli/spore_stims/complex_17_A_a.gif","","","","",""
"","null","html-keyboard-response","28","257729","0.0-11.0-0.5","SS1619739600585","","","null","","","","","","<p><img src= images/blank.png width =""600"" height = ""600"" style=""position:fixed;top:50%; left:50%; transform: translate(-50%, -50%); border:5px solid black"">","","","","","","","",""
"","5606.810000026599","sequential-stimulus-presentation-old","29","263841","0.0-11.0-1.5","SS1619739600585","trial","","40","500","6106.810000026599","images/stimuli/spore_stims/complex_15_A_b.gif","images/stimuli/spore_stims/complex_17_A_a.gif","forced_long","","1","complex_dissimilar","images/stimuli/spore_stims/complex_17_A_a.gif","","","","",""
"","4311.785000027157","survey-multi-choice","30","268157","0.0-12.0","SS1619739600585","math_question","","","","","","","","","","","","{""Q0"":""7""}","[0]","7","",""
"","null","html-keyboard-response","31","269220","0.0-13.0-0.0","SS1619739600585","","","null","","","","","","<p><img src= images/blank.png width =""600"" height = ""600"" style=""position:fixed;top:50%; left:50%; transform: translate(-50%, -50%); border:5px solid black"">","","","","","","","",""
"","431.4549999544397","sequential-stimulus-presentation-old","32","284676","0.0-13.0-1.0","SS1619739600585","trial","","40","500","931.4549999544397","images/stimuli/spore_stims/simple_15_A_b.gif","images/stimuli/spore_stims/simple_11_A_a.gif","forced_long","","2","simple_dissimilar","images/stimuli/spore_stims/simple_11_A_a.gif","","","","",""
"","null","html-keyboard-response","33","285626","0.0-13.0-0.1","SS1619739600585","","","null","","","","","","<p><img src= images/blank.png width =""600"" height = ""600"" style=""position:fixed;top:50%; left:50%; transform: translate(-50%, -50%); border:5px solid black"">","","","","","","","",""
"","10140.464999945834","sequential-stimulus-presentation-old","34","296271","0.0-13.0-1.1","SS1619739600585","trial","","40","500","10640.464999945834","images/stimuli/spore_stims/simple_15_A_b.gif","images/stimuli/spore_stims/simple_11_A_a.gif","forced_long","","2","simple_dissimilar","images/stimuli/spore_stims/simple_11_A_a.gif","","","","",""
"","null","html-keyboard-response","35","297550","0.0-13.0-0.2","SS1619739600585","","","null","","","","","","<p><img src= images/blank.png width =""600"" height = ""600"" style=""position:fixed;top:50%; left:50%; transform: translate(-50%, -50%); border:5px solid black"">","","","","","","","",""
"","5039.129999931902","sequential-stimulus-presentation-old","36","303104","0.0-13.0-1.2","SS1619739600585","trial","","40","500","5539.129999931902","images/stimuli/spore_stims/simple_15_A_b.gif","images/stimuli/spore_stims/simple_11_A_a.gif","forced_long","","2","simple_dissimilar","images/stimuli/spore_stims/simple_11_A_a.gif","","","","",""
"","null","html-keyboard-response","37","304404","0.0-13.0-0.3","SS1619739600585","","","null","","","","","","<p><img src= images/blank.png width =""600"" height = ""600"" style=""position:fixed;top:50%; left:50%; transform: translate(-50%, -50%); border:5px solid black"">","","","","","","","",""
"","5576.039999956265","sequential-stimulus-presentation-old","38","310486","0.0-13.0-1.3","SS1619739600585","trial","","40","500","6076.039999956265","images/stimuli/spore_stims/simple_15_A_b.gif","images/stimuli/spore_stims/simple_11_A_a.gif","forced_long","","2","simple_dissimilar","images/stimuli/spore_stims/simple_15_A_b.gif","","","","",""
"","null","html-keyboard-response","39","311360","0.0-13.0-0.4","SS1619739600585","","","null","","","","","","<p><img src= images/blank.png width =""600"" height = ""600"" style=""position:fixed;top:50%; left:50%; transform: translate(-50%, -50%); border:5px solid black"">","","","","","","","",""
"","2811.2249999539927","sequential-stimulus-presentation-old","40","314695","0.0-13.0-1.4","SS1619739600585","trial","","40","500","3311.2249999539927","images/stimuli/spore_stims/simple_15_A_b.gif","images/stimuli/spore_stims/simple_11_A_a.gif","forced_long","","2","simple_dissimilar","images/stimuli/spore_stims/simple_15_A_b.gif","","","","",""
"","4780.314999981783","survey-multi-choice","41","319479","0.0-14.0","SS1619739600585","math_question","","","","","","","","","","","","{""Q0"":""10""}","[0]","10","",""
"","null","html-keyboard-response","42","320509","0.0-15.0-0.0","SS1619739600585","","","null","","","","","","<p><img src= images/blank.png width =""600"" height = ""600"" style=""position:fixed;top:50%; left:50%; transform: translate(-50%, -50%); border:5px solid black"">","","","","","","","",""
"","3916.549999965355","sequential-stimulus-presentation-old","43","324937","0.0-15.0-1.0","SS1619739600585","trial","","40","500","4416.549999965355","images/stimuli/spore_stims/simple_06_A_b.gif","images/stimuli/spore_stims/simple_18_A_a.gif","forced_short","","3","simple_dissimilar","images/stimuli/spore_stims/simple_18_A_a.gif","","","","",""
"","null","html-keyboard-response","44","326140","0.0-15.0-0.1","SS1619739600585","","","null","","","","","","<p><img src= images/blank.png width =""600"" height = ""600"" style=""position:fixed;top:50%; left:50%; transform: translate(-50%, -50%); border:5px solid black"">","","","","","","","",""
"","8197.404999984428","sequential-stimulus-presentation-old","45","334842","0.0-15.0-1.1","SS1619739600585","trial","","40","500","8697.404999984428","images/stimuli/spore_stims/simple_06_A_b.gif","images/stimuli/spore_stims/simple_18_A_a.gif","forced_short","","3","simple_dissimilar","images/stimuli/spore_stims/simple_06_A_b.gif","","","","",""
"","null","html-keyboard-response","46","335748","0.0-15.0-0.2","SS1619739600585","","","null","","","","","","<p><img src= images/blank.png width =""600"" height = ""600"" style=""position:fixed;top:50%; left:50%; transform: translate(-50%, -50%); border:5px solid black"">","","","","","","","",""
"","5353.2000000122935","sequential-stimulus-presentation-old","47","341625","0.0-15.0-1.2","SS1619739600585","trial","","40","500","5853.2000000122935","images/stimuli/spore_stims/simple_06_A_b.gif","images/stimuli/spore_stims/simple_18_A_a.gif","forced_short","","3","simple_dissimilar","images/stimuli/spore_stims/simple_18_A_a.gif","","","","",""
"","null","html-keyboard-response","48","342828","0.0-15.0-0.3","SS1619739600585","","","null","","","","","","<p><img src= images/blank.png width =""600"" height = ""600"" style=""position:fixed;top:50%; left:50%; transform: translate(-50%, -50%); border:5px solid black"">","","","","","","","",""
"","782.3300000745803","sequential-stimulus-presentation-old","49","344136","0.0-15.0-1.3","SS1619739600585","trial","","40","500","1282.3300000745803","images/stimuli/spore_stims/simple_06_A_b.gif","images/stimuli/spore_stims/simple_18_A_a.gif","forced_short","","3","simple_dissimilar","images/stimuli/spore_stims/simple_06_A_b.gif","","","","",""
"","null","html-keyboard-response","50","345393","0.0-15.0-0.4","SS1619739600585","","","null","","","","","","<p><img src= images/blank.png width =""600"" height = ""600"" style=""position:fixed;top:50%; left:50%; transform: translate(-50%, -50%); border:5px solid black"">","","","","","","","",""
"","990.4749999986961","sequential-stimulus-presentation-old","51","346888","0.0-15.0-1.4","SS1619739600585","trial","","40","500","1490.4749999986961","images/stimuli/spore_stims/simple_06_A_b.gif","images/stimuli/spore_stims/simple_18_A_a.gif","forced_short","","3","simple_dissimilar","images/stimuli/spore_stims/simple_18_A_a.gif","","","","",""
"","4119.859999977052","survey-multi-choice","52","351011","0.0-16.0","SS1619739600585","math_question","","","","","","","","","","","","{""Q0"":""7""}","[0]","7","",""
"","null","html-keyboard-response","53","352288","0.0-17.0-0.0","SS1619739600585","","","null","","","","","","<p><img src= images/blank.png width =""600"" height = ""600"" style=""position:fixed;top:50%; left:50%; transform: translate(-50%, -50%); border:5px solid black"">","","","","","","","",""
"","10851.574999978766","sequential-stimulus-presentation-old","54","363670","0.0-17.0-1.0","SS1619739600585","trial","","40","500","11351.574999978766","images/stimuli/spore_stims/complex_15_A_a.gif","images/stimuli/spore_stims/complex_07_A_b.gif","self_paced","","4","complex_dissimilar","images/stimuli/spore_stims/complex_07_A_b.gif","","","","",""
"","null","html-keyboard-response","55","364758","0.0-17.0-0.1","SS1619739600585","","","null","","","","","","<p><img src= images/blank.png width =""600"" height = ""600"" style=""position:fixed;top:50%; left:50%; transform: translate(-50%, -50%); border:5px solid black"">","","","","","","","",""
"","14472.865000017919","sequential-stimulus-presentation-old","56","379759","0.0-17.0-1.1","SS1619739600585","trial","","40","500","14972.865000017919","images/stimuli/spore_stims/complex_15_A_a.gif","images/stimuli/spore_stims/complex_07_A_b.gif","self_paced","","4","complex_dissimilar","images/stimuli/spore_stims/complex_07_A_b.gif","","","","",""
"","null","html-keyboard-response","57","380704","0.0-17.0-0.2","SS1619739600585","","","null","","","","","","<p><img src= images/blank.png width =""600"" height = ""600"" style=""position:fixed;top:50%; left:50%; transform: translate(-50%, -50%); border:5px solid black"">","","","","","","","",""
"","7174.084999947809","sequential-stimulus-presentation-old","58","388386","0.0-17.0-1.2","SS1619739600585","trial","","40","500","7674.084999947809","images/stimuli/spore_stims/complex_15_A_a.gif","images/stimuli/spore_stims/complex_07_A_b.gif","self_paced","","4","complex_dissimilar","images/stimuli/spore_stims/complex_07_A_b.gif","","","","",""
"","null","html-keyboard-response","59","389362","0.0-17.0-0.3","SS1619739600585","","","null","","","","","","<p><img src= images/blank.png width =""600"" height = ""600"" style=""position:fixed;top:50%; left:50%; transform: translate(-50%, -50%); border:5px solid black"">","","","","","","","",""
"","8936.60999997519","sequential-stimulus-presentation-old","60","398822","0.0-17.0-1.3","SS1619739600585","trial","","40","500","9436.60999997519","images/stimuli/spore_stims/complex_15_A_a.gif","images/stimuli/spore_stims/complex_07_A_b.gif","self_paced","","4","complex_dissimilar","images/stimuli/spore_stims/complex_07_A_b.gif","","","","",""
"","4606.344999978319","survey-multi-choice","61","403432","0.0-18.0","SS1619739600585","math_question","","","","","","","","","","","","{""Q0"":""9""}","[0]","9","",""
"","null","html-keyboard-response","62","404411","0.0-19.0-0.0","SS1619739600585","","","null","","","","","","<p><img src= images/blank.png width =""600"" height = ""600"" style=""position:fixed;top:50%; left:50%; transform: translate(-50%, -50%); border:5px solid black"">","","","","","","","",""
"","3651.964999968186","sequential-stimulus-presentation-old","63","408570","0.0-19.0-1.0","SS1619739600585","trial","","40","500","4151.964999968186","images/stimuli/spore_stims/simple_11_A_b.gif","images/stimuli/spore_stims/simple_08_A_a.gif","self_paced","","5","simple_dissimilar","images/stimuli/spore_stims/simple_08_A_a.gif","","","","",""
"","null","html-keyboard-response","64","409646","0.0-19.0-0.1","SS1619739600585","","","null","","","","","","<p><img src= images/blank.png width =""600"" height = ""600"" style=""position:fixed;top:50%; left:50%; transform: translate(-50%, -50%); border:5px solid black"">","","","","","","","",""
"","299.3350001052022","sequential-stimulus-presentation-old","65","410451","0.0-19.0-1.1","SS1619739600585","trial","","40","500","799.3350001052022","images/stimuli/spore_stims/simple_11_A_b.gif","images/stimuli/spore_stims/simple_08_A_a.gif","self_paced","","5","simple_dissimilar","images/stimuli/spore_stims/simple_08_A_a.gif","","","","",""
"","null","html-keyboard-response","66","411367","0.0-19.0-0.2","SS1619739600585","","","null","","","","","","<p><img src= images/blank.png width =""600"" height = ""600"" style=""position:fixed;top:50%; left:50%; transform: translate(-50%, -50%); border:5px solid black"">","","","","","","","",""
"","163.4850000264123","sequential-stimulus-presentation-old","67","412035","0.0-19.0-1.2","SS1619739600585","trial","","40","500","663.4850000264123","images/stimuli/spore_stims/simple_11_A_b.gif","images/stimuli/spore_stims/simple_08_A_a.gif","self_paced","","5","simple_dissimilar","images/stimuli/spore_stims/simple_11_A_b.gif","","","","",""
"","null","html-keyboard-response","68","413013","0.0-19.0-0.3","SS1619739600585","","","null","","","","","","<p><img src= images/blank.png width =""600"" height = ""600"" style=""position:fixed;top:50%; left:50%; transform: translate(-50%, -50%); border:5px solid black"">","","","","","","","",""
"","349.4850000133738","sequential-stimulus-presentation-old","69","413868","0.0-19.0-1.3","SS1619739600585","trial","","40","500","849.4850000133738","images/stimuli/spore_stims/simple_11_A_b.gif","images/stimuli/spore_stims/simple_08_A_a.gif","self_paced","","5","simple_dissimilar","images/stimuli/spore_stims/simple_08_A_a.gif","","","","",""
"","null","html-keyboard-response","70","414917","0.0-19.0-0.4","SS1619739600585","","","null","","","","","","<p><img src= images/blank.png width =""600"" height = ""600"" style=""position:fixed;top:50%; left:50%; transform: translate(-50%, -50%); border:5px solid black"">","","","","","","","",""
"","1094.150000018999","sequential-stimulus-presentation-old","71","416516","0.0-19.0-1.4","SS1619739600585","trial","","40","500","1594.150000018999","images/stimuli/spore_stims/simple_11_A_b.gif","images/stimuli/spore_stims/simple_08_A_a.gif","self_paced","","5","simple_dissimilar","images/stimuli/spore_stims/simple_11_A_b.gif","","","","",""
"","5960.339999990538","survey-multi-choice","72","422481","0.0-20.0","SS1619739600585","math_question","","","","","","","","","","","","{""Q0"":""5""}","[0]","5","",""
"","null","html-keyboard-response","73","423429","0.0-21.0-0.0","SS1619739600585","","","null","","","","","","<p><img src= images/blank.png width =""600"" height = ""600"" style=""position:fixed;top:50%; left:50%; transform: translate(-50%, -50%); border:5px solid black"">","","","","","","","",""
"","5427.9399999650195","sequential-stimulus-presentation-old","74","443864","0.0-21.0-1.0","SS1619739600585","trial","","40","500","5927.9399999650195","images/stimuli/spore_stims/simple_19_A_b.gif","images/stimuli/spore_stims/simple_16_A_a.gif","forced_long","","6","simple_dissimilar","images/stimuli/spore_stims/simple_16_A_a.gif","","","","",""
"","null","html-keyboard-response","75","445020","0.0-21.0-0.1","SS1619739600585","","","null","","","","","","<p><img src= images/blank.png width =""600"" height = ""600"" style=""position:fixed;top:50%; left:50%; transform: translate(-50%, -50%); border:5px solid black"">","","","","","","","",""
"","4326.020000036806","sequential-stimulus-presentation-old","76","449852","0.0-21.0-1.1","SS1619739600585","trial","","40","500","4826.020000036806","images/stimuli/spore_stims/simple_19_A_b.gif","images/stimuli/spore_stims/simple_16_A_a.gif","forced_long","","6","simple_dissimilar","images/stimuli/spore_stims/simple_16_A_a.gif","","","","",""
"","null","html-keyboard-response","77","450766","0.0-21.0-0.2","SS1619739600585","","","null","","","","","","<p><img src= images/blank.png width =""600"" height = ""600"" style=""position:fixed;top:50%; left:50%; transform: translate(-50%, -50%); border:5px solid black"">","","","","","","","",""
"","1799.0699999500066","sequential-stimulus-presentation-old","78","453090","0.0-21.0-1.2","SS1619739600585","trial","","40","500","2299.0699999500066","images/stimuli/spore_stims/simple_19_A_b.gif","images/stimuli/spore_stims/simple_16_A_a.gif","forced_long","","6","simple_dissimilar","images/stimuli/spore_stims/simple_19_A_b.gif","","","","",""
"","null","html-keyboard-response","79","454252","0.0-21.0-0.3","SS1619739600585","","","null","","","","","","<p><img src= images/blank.png width =""600"" height = ""600"" style=""position:fixed;top:50%; left:50%; transform: translate(-50%, -50%); border:5px solid black"">","","","","","","","",""
"","805.2700000116602","sequential-stimulus-presentation-old","80","455586","0.0-21.0-1.3","SS1619739600585","trial","","40","500","1305.2700000116602","images/stimuli/spore_stims/simple_19_A_b.gif","images/stimuli/spore_stims/simple_16_A_a.gif","forced_long","","6","simple_dissimilar","images/stimuli/spore_stims/simple_19_A_b.gif","","","","",""
"","4164.424999966286","survey-multi-choice","81","459754","0.0-22.0","SS1619739600585","math_question","","","","","","","","","","","","{""Q0"":""17""}","[0]","17","",""
"","null","html-keyboard-response","82","460667","0.0-23.0-0.0","SS1619739600585","","","null","","","","","","<p><img src= images/blank.png width =""600"" height = ""600"" style=""position:fixed;top:50%; left:50%; transform: translate(-50%, -50%); border:5px solid black"">","","","","","","","",""
"","6275.280000059865","sequential-stimulus-presentation-old","83","481949","0.0-23.0-1.0","SS1619739600585","trial","","40","500","6775.280000059865","images/stimuli/spore_stims/complex_16_A_b.gif","images/stimuli/spore_stims/complex_14_A_a.gif","forced_long","","7","complex_dissimilar","images/stimuli/spore_stims/complex_14_A_a.gif","","","","",""
"","null","html-keyboard-response","84","482899","0.0-23.0-0.1","SS1619739600585","","","null","","","","","","<p><img src= images/blank.png width =""600"" height = ""600"" style=""position:fixed;top:50%; left:50%; transform: translate(-50%, -50%); border:5px solid black"">","","","","","","","",""
"","789.2649999121204","sequential-stimulus-presentation-old","85","484214","0.0-23.0-1.1","SS1619739600585","trial","","40","500","1289.2649999121204","images/stimuli/spore_stims/complex_16_A_b.gif","images/stimuli/spore_stims/complex_14_A_a.gif","forced_long","","7","complex_dissimilar","images/stimuli/spore_stims/complex_14_A_a.gif","","","","",""
"","null","html-keyboard-response","86","485456","0.0-23.0-0.2","SS1619739600585","","","null","","","","","","<p><img src= images/blank.png width =""600"" height = ""600"" style=""position:fixed;top:50%; left:50%; transform: translate(-50%, -50%); border:5px solid black"">","","","","","","","",""
"","10492.605000035837","sequential-stimulus-presentation-old","87","496454","0.0-23.0-1.2","SS1619739600585","trial","","40","500","10992.605000035837","images/stimuli/spore_stims/complex_16_A_b.gif","images/stimuli/spore_stims/complex_14_A_a.gif","forced_long","","7","complex_dissimilar","images/stimuli/spore_stims/complex_14_A_a.gif","","","","",""
"","null","html-keyboard-response","88","497653","0.0-23.0-0.3","SS1619739600585","","","null","","","","","","<p><img src= images/blank.png width =""600"" height = ""600"" style=""position:fixed;top:50%; left:50%; transform: translate(-50%, -50%); border:5px solid black"">","","","","","","","",""
"","10765.14999999199","sequential-stimulus-presentation-old","89","508928","0.0-23.0-1.3","SS1619739600585","trial","","40","500","11265.14999999199","images/stimuli/spore_stims/complex_16_A_b.gif","images/stimuli/spore_stims/complex_14_A_a.gif","forced_long","","7","complex_dissimilar","images/stimuli/spore_stims/complex_14_A_a.gif","","","","",""
"","8215.354999992996","survey-multi-choice","90","517147","0.0-24.0","SS1619739600585","math_question","","","","","","","","","","","","{""Q0"":""13""}","[0]","13","",""
"","null","html-keyboard-response","91","518302","0.0-25.0-0.0","SS1619739600585","","","null","","","","","","<p><img src= images/blank.png width =""600"" height = ""600"" style=""position:fixed;top:50%; left:50%; transform: translate(-50%, -50%); border:5px solid black"">","","","","","","","",""
"","7008.260000031441","sequential-stimulus-presentation-old","92","525818","0.0-25.0-1.0","SS1619739600585","trial","","40","500","7508.260000031441","images/stimuli/spore_stims/complex_10_A_b.gif","images/stimuli/spore_stims/complex_05_A_a.gif","self_paced","","8","complex_dissimilar","images/stimuli/spore_stims/complex_05_A_a.gif","","","","",""
"","null","html-keyboard-response","93","526823","0.0-25.0-0.1","SS1619739600585","","","null","","","","","","<p><img src= images/blank.png width =""600"" height = ""600"" style=""position:fixed;top:50%; left:50%; transform: translate(-50%, -50%); border:5px solid black"">","","","","","","","",""
"","1412.1349999913946","sequential-stimulus-presentation-old","94","528762","0.0-25.0-1.1","SS1619739600585","trial","","40","500","1912.1349999913946","images/stimuli/spore_stims/complex_10_A_b.gif","images/stimuli/spore_stims/complex_05_A_a.gif","self_paced","","8","complex_dissimilar","images/stimuli/spore_stims/complex_10_A_b.gif","","","","",""
"","null","html-keyboard-response","95","529817","0.0-25.0-0.2","SS1619739600585","","","null","","","","","","<p><img src= images/blank.png width =""600"" height = ""600"" style=""position:fixed;top:50%; left:50%; transform: translate(-50%, -50%); border:5px solid black"">","","","","","","","",""
"","3968.8800000585616","sequential-stimulus-presentation-old","96","534292","0.0-25.0-1.2","SS1619739600585","trial","","40","500","4468.880000058562","images/stimuli/spore_stims/complex_10_A_b.gif","images/stimuli/spore_stims/complex_05_A_a.gif","self_paced","","8","complex_dissimilar","images/stimuli/spore_stims/complex_05_A_a.gif","","","","",""
"","null","html-keyboard-response","97","535517","0.0-25.0-0.3","SS1619739600585","","","null","","","","","","<p><img src= images/blank.png width =""600"" height = ""600"" style=""position:fixed;top:50%; left:50%; transform: translate(-50%, -50%); border:5px solid black"">","","","","","","","",""
"","1041.979999979958","sequential-stimulus-presentation-old","98","537067","0.0-25.0-1.3","SS1619739600585","trial","","40","500","1541.979999979958","images/stimuli/spore_stims/complex_10_A_b.gif","images/stimuli/spore_stims/complex_05_A_a.gif","self_paced","","8","complex_dissimilar","images/stimuli/spore_stims/complex_10_A_b.gif","","","","",""
"","4798.659999971278","survey-multi-choice","99","541870","0.0-26.0","SS1619739600585","math_question","","","","","","","","","","","","{""Q0"":""9""}","[0]","9","",""
"","null","html-keyboard-response","100","542967","0.0-27.0-0.0","SS1619739600585","","","null","","","","","","<p><img src= images/blank.png width =""600"" height = ""600"" style=""position:fixed;top:50%; left:50%; transform: translate(-50%, -50%); border:5px solid black"">","","","","","","","",""
"","834.5500000286847","sequential-stimulus-presentation-old","101","544309","0.0-27.0-1.0","SS1619739600585","trial","","40","500","1334.5500000286847","images/stimuli/spore_stims/simple_17_A_a.gif","images/stimuli/spore_stims/simple_18_A_b.gif","self_paced","","9","simple_dissimilar","images/stimuli/spore_stims/simple_18_A_b.gif","","","","",""
"","null","html-keyboard-response","102","545309","0.0-27.0-0.1","SS1619739600585","","","null","","","","","","<p><img src= images/blank.png width =""600"" height = ""600"" style=""position:fixed;top:50%; left:50%; transform: translate(-50%, -50%); border:5px solid black"">","","","","","","","",""
"","493.95000003278255","sequential-stimulus-presentation-old","103","546310","0.0-27.0-1.1","SS1619739600585","trial","","40","500","993.9500000327826","images/stimuli/spore_stims/simple_17_A_a.gif","images/stimuli/spore_stims/simple_18_A_b.gif","self_paced","","9","simple_dissimilar","images/stimuli/spore_stims/simple_18_A_b.gif","","","","",""
"","null","html-keyboard-response","104","547442","0.0-27.0-0.2","SS1619739600585","","","null","","","","","","<p><img src= images/blank.png width =""600"" height = ""600"" style=""position:fixed;top:50%; left:50%; transform: translate(-50%, -50%); border:5px solid black"">","","","","","","","",""
"","844.2950000753626","sequential-stimulus-presentation-old","105","548807","0.0-27.0-1.2","SS1619739600585","trial","","40","500","1344.2950000753626","images/stimuli/spore_stims/simple_17_A_a.gif","images/stimuli/spore_stims/simple_18_A_b.gif","self_paced","","9","simple_dissimilar","images/stimuli/spore_stims/simple_18_A_b.gif","","","","",""
"","null","html-keyboard-response","106","549963","0.0-27.0-0.3","SS1619739600585","","","null","","","","","","<p><img src= images/blank.png width =""600"" height = ""600"" style=""position:fixed;top:50%; left:50%; transform: translate(-50%, -50%); border:5px solid black"">","","","","","","","",""
"","1576.1700000148267","sequential-stimulus-presentation-old","107","552045","0.0-27.0-1.3","SS1619739600585","trial","","40","500","2076.1700000148267","images/stimuli/spore_stims/simple_17_A_a.gif","images/stimuli/spore_stims/simple_18_A_b.gif","self_paced","","9","simple_dissimilar","images/stimuli/spore_stims/simple_17_A_a.gif","","","","",""
"","4954.969999962486","survey-multi-choice","108","557005","0.0-28.0","SS1619739600585","math_question","","","","","","","","","","","","{""Q0"":""13""}","[0]","13","",""
"","null","html-keyboard-response","109","558219","0.0-29.0-0.0","SS1619739600585","","","null","","","","","","<p><img src= images/blank.png width =""600"" height = ""600"" style=""position:fixed;top:50%; left:50%; transform: translate(-50%, -50%); border:5px solid black"">","","","","","","","",""
"","1394.9550000252202","sequential-stimulus-presentation-old","110","560121","0.0-29.0-1.0","SS1619739600585","trial","","40","500","1894.9550000252202","images/stimuli/spore_stims/complex_18_A_a.gif","images/stimuli/spore_stims/complex_11_A_b.gif","forced_short","","10","complex_dissimilar","images/stimuli/spore_stims/complex_11_A_b.gif","","","","",""
"","null","html-keyboard-response","111","561079","0.0-29.0-0.1","SS1619739600585","","","null","","","","","","<p><img src= images/blank.png width =""600"" height = ""600"" style=""position:fixed;top:50%; left:50%; transform: translate(-50%, -50%); border:5px solid black"">","","","","","","","",""
"","3999.115000013262","sequential-stimulus-presentation-old","112","565605","0.0-29.0-1.1","SS1619739600585","trial","","40","500","4499.115000013262","images/stimuli/spore_stims/complex_18_A_a.gif","images/stimuli/spore_stims/complex_11_A_b.gif","forced_short","","10","complex_dissimilar","images/stimuli/spore_stims/complex_11_A_b.gif","","","","",""
"","null","html-keyboard-response","113","566854","0.0-29.0-0.2","SS1619739600585","","","null","","","","","","<p><img src= images/blank.png width =""600"" height = ""600"" style=""position:fixed;top:50%; left:50%; transform: translate(-50%, -50%); border:5px solid black"">","","","","","","","",""
"","2357.6249999459833","sequential-stimulus-presentation-old","114","569718","0.0-29.0-1.2","SS1619739600585","trial","","40","500","2857.6249999459833","images/stimuli/spore_stims/complex_18_A_a.gif","images/stimuli/spore_stims/complex_11_A_b.gif","forced_short","","10","complex_dissimilar","images/stimuli/spore_stims/complex_11_A_b.gif","","","","",""
"","null","html-keyboard-response","115","570838","0.0-29.0-0.3","SS1619739600585","","","null","","","","","","<p><img src= images/blank.png width =""600"" height = ""600"" style=""position:fixed;top:50%; left:50%; transform: translate(-50%, -50%); border:5px solid black"">","","","","","","","",""
"","1860.6250000884756","sequential-stimulus-presentation-old","116","573229","0.0-29.0-1.3","SS1619739600585","trial","","40","500","2360.6250000884756","images/stimuli/spore_stims/complex_18_A_a.gif","images/stimuli/spore_stims/complex_11_A_b.gif","forced_short","","10","complex_dissimilar","images/stimuli/spore_stims/complex_11_A_b.gif","","","","",""
"","null","html-keyboard-response","117","574089","0.0-29.0-0.4","SS1619739600585","","","null","","","","","","<p><img src= images/blank.png width =""600"" height = ""600"" style=""position:fixed;top:50%; left:50%; transform: translate(-50%, -50%); border:5px solid black"">","","","","","","","",""
"","2870.1799999689683","sequential-stimulus-presentation-old","118","577466","0.0-29.0-1.4","SS1619739600585","trial","","40","500","3370.1799999689683","images/stimuli/spore_stims/complex_18_A_a.gif","images/stimuli/spore_stims/complex_11_A_b.gif","forced_short","","10","complex_dissimilar","images/stimuli/spore_stims/complex_11_A_b.gif","","","","",""
"","null","html-keyboard-response","119","578614","0.0-29.0-0.5","SS1619739600585","","","null","","","","","","<p><img src= images/blank.png width =""600"" height = ""600"" style=""position:fixed;top:50%; left:50%; transform: translate(-50%, -50%); border:5px solid black"">","","","","","","","",""
"","3572.42999994196","sequential-stimulus-presentation-old","120","582705","0.0-29.0-1.5","SS1619739600585","trial","","40","500","4072.42999994196","images/stimuli/spore_stims/complex_18_A_a.gif","images/stimuli/spore_stims/complex_11_A_b.gif","forced_short","","10","complex_dissimilar","images/stimuli/spore_stims/complex_11_A_b.gif","","","","",""
"","5610.469999955967","survey-multi-choice","121","588321","0.0-30.0","SS1619739600585","math_question","","","","","","","","","","","","{""Q0"":""10""}","[0]","10","",""
"","null","html-keyboard-response","122","589273","0.0-31.0-0.0","SS1619739600585","","","null","","","","","","<p><img src= images/blank.png width =""600"" height = ""600"" style=""position:fixed;top:50%; left:50%; transform: translate(-50%, -50%); border:5px solid black"">","","","","","","","",""
"","672.1350000007078","sequential-stimulus-presentation-old","123","590456","0.0-31.0-1.0","SS1619739600585","trial","","40","500","1172.1350000007078","images/stimuli/spore_stims/simple_14_A_b.gif","images/stimuli/spore_stims/simple_09_A_a.gif","forced_short","","11","simple_dissimilar","images/stimuli/spore_stims/simple_09_A_a.gif","","","","",""
"","null","html-keyboard-response","124","591481","0.0-31.0-0.1","SS1619739600585","","","null","","","","","","<p><img src= images/blank.png width =""600"" height = ""600"" style=""position:fixed;top:50%; left:50%; transform: translate(-50%, -50%); border:5px solid black"">","","","","","","","",""
"","534.8799999337643","sequential-stimulus-presentation-old","125","592521","0.0-31.0-1.1","SS1619739600585","trial","","40","500","1034.8799999337643","images/stimuli/spore_stims/simple_14_A_b.gif","images/stimuli/spore_stims/simple_09_A_a.gif","forced_short","","11","simple_dissimilar","images/stimuli/spore_stims/simple_09_A_a.gif","","","","",""
"","null","html-keyboard-response","126","593749","0.0-31.0-0.2","SS1619739600585","","","null","","","","","","<p><img src= images/blank.png width =""600"" height = ""600"" style=""position:fixed;top:50%; left:50%; transform: translate(-50%, -50%); border:5px solid black"">","","","","","","","",""
"","535.9999999636784","sequential-stimulus-presentation-old","127","594791","0.0-31.0-1.2","SS1619739600585","trial","","40","500","1035.9999999636784","images/stimuli/spore_stims/simple_14_A_b.gif","images/stimuli/spore_stims/simple_09_A_a.gif","forced_short","","11","simple_dissimilar","images/stimuli/spore_stims/simple_09_A_a.gif","","","","",""
"","null","html-keyboard-response","128","595643","0.0-31.0-0.3","SS1619739600585","","","null","","","","","","<p><img src= images/blank.png width =""600"" height = ""600"" style=""position:fixed;top:50%; left:50%; transform: translate(-50%, -50%); border:5px solid black"">","","","","","","","",""
"","424.8450000304729","sequential-stimulus-presentation-old","129","596604","0.0-31.0-1.3","SS1619739600585","trial","","40","500","924.8450000304729","images/stimuli/spore_stims/simple_14_A_b.gif","images/stimuli/spore_stims/simple_09_A_a.gif","forced_short","","11","simple_dissimilar","images/stimuli/spore_stims/simple_09_A_a.gif","","","","",""
"","null","html-keyboard-response","130","597799","0.0-31.0-0.4","SS1619739600585","","","null","","","","","","<p><img src= images/blank.png width =""600"" height = ""600"" style=""position:fixed;top:50%; left:50%; transform: translate(-50%, -50%); border:5px solid black"">","","","","","","","",""
"","502.44000006932765","sequential-stimulus-presentation-old","131","598831","0.0-31.0-1.4","SS1619739600585","trial","","40","500","1002.4400000693277","images/stimuli/spore_stims/simple_14_A_b.gif","images/stimuli/spore_stims/simple_09_A_a.gif","forced_short","","11","simple_dissimilar","images/stimuli/spore_stims/simple_14_A_b.gif","","","","",""
"","null","html-keyboard-response","132","599755","0.0-31.0-0.5","SS1619739600585","","","null","","","","","","<p><img src= images/blank.png width =""600"" height = ""600"" style=""position:fixed;top:50%; left:50%; transform: translate(-50%, -50%); border:5px solid black"">","","","","","","","",""
"","404.05000001192093","sequential-stimulus-presentation-old","133","600664","0.0-31.0-1.5","SS1619739600585","trial","","40","500","904.0500000119209","images/stimuli/spore_stims/simple_14_A_b.gif","images/stimuli/spore_stims/simple_09_A_a.gif","forced_short","","11","simple_dissimilar","images/stimuli/spore_stims/simple_09_A_a.gif","","","","",""
"[{""page_index"":0,""viewing_time"":25426.884999964386}]","25427.32499993872","instructions","134","626096","0.0-32.0","SS1619739600585","instructions","","","","","","","","","","","","","","","",""
"","6811.604999937117","survey-likert","135","632916","0.0-33.0","SS1619739600585","similarity_question","","","","","","","","","","","","{""Q0"":4}","[0]","","images/stimuli/spore_stims/simple_14_A_b.gif","images/stimuli/spore_stims/simple_09_A_a.gif"
"","8645.065000047907","survey-likert","136","641577","0.0-34.0","SS1619739600585","similarity_question","","","","","","","","","","","","{""Q0"":0}","[0]","","images/stimuli/spore_stims/complex_10_A_b.gif","images/stimuli/spore_stims/complex_05_A_a.gif"
"","3773.304999922402","survey-likert","137","645365","0.0-35.0","SS1619739600585","similarity_question","","","","","","","","","","","","{""Q0"":0}","[0]","","images/stimuli/spore_stims/complex_17_A_b.gif","images/stimuli/spore_stims/complex_04_A_a.gif"
"","6726.400000043213","survey-likert","138","652111","0.0-36.0","SS1619739600585","similarity_question","","","","","","","","","","","","{""Q0"":1}","[0]","","images/stimuli/spore_stims/complex_15_A_b.gif","images/stimuli/spore_stims/complex_17_A_a.gif"
"","4835.409999941476","survey-likert","139","656962","0.0-37.0","SS1619739600585","similarity_question","","","","","","","","","","","","{""Q0"":0}","[0]","","images/stimuli/spore_stims/complex_11_A_b.gif","images/stimuli/spore_stims/complex_18_A_a.gif"
"","8061.95999996271","survey-likert","140","665045","0.0-38.0","SS1619739600585","similarity_question","","","","","","","","","","","","{""Q0"":4}","[0]","","images/stimuli/spore_stims/simple_19_A_b.gif","images/stimuli/spore_stims/simple_16_A_a.gif"
"","9684.215000015683","survey-likert","141","674746","0.0-39.0","SS1619739600585","similarity_question","","","","","","","","","","","","{""Q0"":2}","[0]","","images/stimuli/spore_stims/simple_18_A_a.gif","images/stimuli/spore_stims/simple_06_A_b.gif"
"","4057.289999909699","survey-likert","142","678818","0.0-40.0","SS1619739600585","similarity_question","","","","","","","","","","","","{""Q0"":1}","[0]","","images/stimuli/spore_stims/complex_16_A_b.gif","images/stimuli/spore_stims/complex_14_A_a.gif"
"","5568.775000050664","survey-likert","143","684410","0.0-41.0","SS1619739600585","similarity_question","","","","","","","","","","","","{""Q0"":4}","[0]","","images/stimuli/spore_stims/simple_08_A_a.gif","images/stimuli/spore_stims/simple_11_A_b.gif"
"","10079.91500000935","survey-likert","144","694505","0.0-42.0","SS1619739600585","similarity_question","","","","","","","","","","","","{""Q0"":0}","[0]","","images/stimuli/spore_stims/complex_07_A_b.gif","images/stimuli/spore_stims/complex_15_A_a.gif"
"","20079.92499996908","survey-likert","145","714601","0.0-43.0","SS1619739600585","similarity_question","","","","","","","","","","","","{""Q0"":4}","[0]","","images/stimuli/spore_stims/simple_11_A_a.gif","images/stimuli/spore_stims/simple_15_A_b.gif"
"","14310.00000005588","survey-likert","146","728927","0.0-44.0","SS1619739600585","similarity_question","","","","","","","","","","","","{""Q0"":2}","[0]","","images/stimuli/spore_stims/simple_17_A_a.gif","images/stimuli/spore_stims/simple_18_A_b.gif"
"[{""page_index"":0,""viewing_time"":101523.93999998458}]","101524.40999995451","instructions","147","830466","0.0-45.0","SS1619739600585","instructions","","","","","","","","","","","","","","","",""
"","4420.139999943785","survey-likert","148","834894","0.0-46.0","SS1619739600585","","","","","","","","","images/stimuli/spore_stims/simple_16_A_a.gif","","","","{""Q0"":0}","[0]","","",""
"","2842.5950000528246","survey-likert","149","837752","0.0-47.0","SS1619739600585","","","","","","","","","images/stimuli/spore_stims/simple_06_A_b.gif","","","","{""Q0"":0}","[0]","","",""
"","4601.0999999707565","survey-likert","150","842372","0.0-48.0","SS1619739600585","","","","","","","","","images/stimuli/spore_stims/simple_11_A_a.gif","","","","{""Q0"":1}","[0]","","",""
"","4216.95000003092","survey-likert","151","846606","0.0-49.0","SS1619739600585","","","","","","","","","images/stimuli/spore_stims/complex_17_A_a.gif","","","","{""Q0"":5}","[0]","","",""
"","3296.650000032969","survey-likert","152","849918","0.0-50.0","SS1619739600585","","","","","","","","","images/stimuli/spore_stims/complex_15_A_a.gif","","","","{""Q0"":5}","[0]","","",""
"","4303.485000040382","survey-likert","153","854243","0.0-51.0","SS1619739600585","","","","","","","","","images/stimuli/spore_stims/complex_10_A_b.gif","","","","{""Q0"":5}","[0]","","",""
"","4273.709999979474","survey-likert","154","858538","0.0-52.0","SS1619739600585","","","","","","","","","images/stimuli/spore_stims/simple_14_A_b.gif","","","","{""Q0"":0}","[0]","","",""
"","3475.440000067465","survey-likert","155","862032","0.0-53.0","SS1619739600585","","","","","","","","","images/stimuli/spore_stims/complex_16_A_b.gif","","","","{""Q0"":6}","[0]","","",""
"","7052.985000074841","survey-likert","156","869105","0.0-54.0","SS1619739600585","","","","","","","","","images/stimuli/spore_stims/complex_11_A_b.gif","","","","{""Q0"":5}","[0]","","",""
"","26315.405000001192","survey-likert","157","895440","0.0-55.0","SS1619739600585","","","","","","","","","images/stimuli/spore_stims/simple_08_A_a.gif","","","","{""Q0"":0}","[0]","","",""
"","3418.584999977611","survey-likert","158","898876","0.0-56.0","SS1619739600585","","","","","","","","","images/stimuli/spore_stims/complex_04_A_a.gif","","","","{""Q0"":6}","[0]","","",""
"","3002.53000005614","survey-likert","159","901893","0.0-57.0","SS1619739600585","","","","","","","","","images/stimuli/spore_stims/simple_17_A_a.gif","","","","{""Q0"":1}","[0]","","",""
"[{""page_index"":0,""viewing_time"":1676.8450000090525}]","1677.3050000192598","instructions","160","903585","0.0-58.0","SS1619739600585","instructions","","","","","","","","","","","","","","","",""
"","49850.00500001479","demog-age","161","953467","0.0-59.0","SS1619739600585","","","","","","","","","","","","","{""age"":""24""}","","","",""
"","6714.535000035539","demog-ethnic-US","162","960196","0.0-60.0","SS1619739600585","","","","","","","","","","","","","{""ethnicity"":[""Hispanic or Latino""]}","[0]","","",""
"","10526.864999905229","demog-gender-and-education","163","970740","0.0-61.0","SS1619739600585","","","","","","","","","","","","","{""gender"":""Female"",""education"":""Bachelor's Degree""}","[0,1]","","",""
"","35469.76999996696","survey-text","164","1006230","0.0-62.0","SS1619739600585","feedback","","","","","","","","","","","","{""Q0"":""There was no issue but the creatures are a little disturbing""}","","","",""
"[{""page_index"":0,""viewing_time"":2311.8450000183657}]","2312.595000024885","instructions","165","1008549","0.0-63.0","SS1619739600585","instructions","","","","","","","","","","","","","","","",""
