"view_history","rt","trial_type","trial_index","time_elapsed","internal_node_id","subject","stimulus_type","trial_stimulus","key_press","minimum_viewing_duration","trial_looking_time","block_deviant","block_background","exposure_type","stimulus","block_number","block_type","stimulus_displayed","responses","question_order","math_correct_answer","stimulus_left","stimulus_right"
"[{""page_index"":0,""viewing_time"":12575.125000003027}]","12577.60000001872","instructions","0","12582","0.0-0.0","SS1619740068829","","","","","","","","","","","","","","","","",""
"[{""page_index"":0,""viewing_time"":20306.489999988116},{""page_index"":1,""viewing_time"":12133.954999997513}]","32440.98999997368","instructions","1","47033","0.0-1.0","SS1619740068829","instructions","","","","","","","","","","","","","","","",""
"","9678.30500000855","sequential-stimulus-presentation-old","2","57228","0.0-2.0","SS1619740068829","","","40","500","10178.30500000855","null","null","self_paced","","","","","","","","",""
"","11214.084999985062","sequential-stimulus-presentation-old","3","68951","0.0-3.0","SS1619740068829","","","40","500","11714.084999985062","null","null","self_paced","","","","","","","","",""
"[{""page_index"":0,""viewing_time"":22673.425000015413}]","22674.005000008037","instructions","4","91631","0.0-4.0","SS1619740068829","instructions","","","","","","","","","","","","","","","",""
"","352.9850000049919","sequential-stimulus-presentation-old","5","106996","0.0-5.0","SS1619740068829","","","40","500","852.9850000049919","null","null","forced_long","","","","","","","","",""
"","7818.299999984447","sequential-stimulus-presentation-old","6","115325","0.0-6.0","SS1619740068829","","","40","500","8318.299999984447","null","null","forced_long","","","","","","","","",""
"[{""page_index"":0,""viewing_time"":8160.58999998495}]","8161.46000000299","instructions","7","123488","0.0-7.0","SS1619740068829","instructions","","","","","","","","","","","","","","","",""
"[{""page_index"":0,""viewing_time"":31228.655000013532},{""page_index"":1,""viewing_time"":19501.64499998209},{""page_index"":2,""viewing_time"":7964.0350000117905},{""page_index"":3,""viewing_time"":1757.4650000024121},{""page_index"":4,""viewing_time"":1400.854999985313}]","61853.13999999198","instructions","8","185349","0.0-8.0","SS1619740068829","instructions","","","","","","","","","","","","","","","",""
"","null","html-keyboard-response","9","186609","0.0-9.0-0.0","SS1619740068829","","","null","","","","","","<p><img src= images/blank.png width =""600"" height = ""600"" style=""position:fixed;top:50%; left:50%; transform: translate(-50%, -50%); border:5px solid black"">","","","","","","","",""
"","451.535000000149","sequential-stimulus-presentation-old","10","202073","0.0-9.0-1.0","SS1619740068829","trial","","40","500","951.535000000149","images/stimuli/spore_stims/simple_17_A_b.gif","images/stimuli/spore_stims/simple_08_A_a.gif","forced_long","","0","simple_dissimilar","images/stimuli/spore_stims/simple_08_A_a.gif","","","","",""
"","null","html-keyboard-response","11","203317","0.0-9.0-0.1","SS1619740068829","","","null","","","","","","<p><img src= images/blank.png width =""600"" height = ""600"" style=""position:fixed;top:50%; left:50%; transform: translate(-50%, -50%); border:5px solid black"">","","","","","","","",""
"","44214.47000000626","sequential-stimulus-presentation-old","12","248038","0.0-9.0-1.1","SS1619740068829","trial","","40","500","44714.47000000626","images/stimuli/spore_stims/simple_17_A_b.gif","images/stimuli/spore_stims/simple_08_A_a.gif","forced_long","","0","simple_dissimilar","images/stimuli/spore_stims/simple_08_A_a.gif","","","","",""
"","null","html-keyboard-response","13","248999","0.0-9.0-0.2","SS1619740068829","","","null","","","","","","<p><img src= images/blank.png width =""600"" height = ""600"" style=""position:fixed;top:50%; left:50%; transform: translate(-50%, -50%); border:5px solid black"">","","","","","","","",""
"","40435.880000004545","sequential-stimulus-presentation-old","14","289946","0.0-9.0-1.2","SS1619740068829","trial","","40","500","40935.880000004545","images/stimuli/spore_stims/simple_17_A_b.gif","images/stimuli/spore_stims/simple_08_A_a.gif","forced_long","","0","simple_dissimilar","images/stimuli/spore_stims/simple_08_A_a.gif","","","","",""
"","null","html-keyboard-response","15","291204","0.0-9.0-0.3","SS1619740068829","","","null","","","","","","<p><img src= images/blank.png width =""600"" height = ""600"" style=""position:fixed;top:50%; left:50%; transform: translate(-50%, -50%); border:5px solid black"">","","","","","","","",""
"","551.2749999761581","sequential-stimulus-presentation-old","16","292269","0.0-9.0-1.3","SS1619740068829","trial","","40","500","1051.2749999761581","images/stimuli/spore_stims/simple_17_A_b.gif","images/stimuli/spore_stims/simple_08_A_a.gif","forced_long","","0","simple_dissimilar","images/stimuli/spore_stims/simple_08_A_a.gif","","","","",""
"","5414.1599999857135","survey-multi-choice","17","297690","0.0-10.0","SS1619740068829","math_question","","","","","","","","","","","","{""Q0"":""14""}","[0]","14","",""
"","null","html-keyboard-response","18","298864","0.0-11.0-0.0","SS1619740068829","","","null","","","","","","<p><img src= images/blank.png width =""600"" height = ""600"" style=""position:fixed;top:50%; left:50%; transform: translate(-50%, -50%); border:5px solid black"">","","","","","","","",""
"","1154.290000005858","sequential-stimulus-presentation-old","19","300526","0.0-11.0-1.0","SS1619740068829","trial","","40","500","1654.290000005858","images/stimuli/spore_stims/simple_03_A_b.gif","images/stimuli/spore_stims/simple_01_A_a.gif","forced_short","","1","simple_dissimilar","images/stimuli/spore_stims/simple_01_A_a.gif","","","","",""
"","null","html-keyboard-response","20","301347","0.0-11.0-0.1","SS1619740068829","","","null","","","","","","<p><img src= images/blank.png width =""600"" height = ""600"" style=""position:fixed;top:50%; left:50%; transform: translate(-50%, -50%); border:5px solid black"">","","","","","","","",""
"","22806.884999998147","sequential-stimulus-presentation-old","21","324677","0.0-11.0-1.1","SS1619740068829","trial","","40","500","23306.884999998147","images/stimuli/spore_stims/simple_03_A_b.gif","images/stimuli/spore_stims/simple_01_A_a.gif","forced_short","","1","simple_dissimilar","images/stimuli/spore_stims/simple_01_A_a.gif","","","","",""
"","null","html-keyboard-response","22","325944","0.0-11.0-0.2","SS1619740068829","","","null","","","","","","<p><img src= images/blank.png width =""600"" height = ""600"" style=""position:fixed;top:50%; left:50%; transform: translate(-50%, -50%); border:5px solid black"">","","","","","","","",""
"","31594.50000000652","sequential-stimulus-presentation-old","23","358055","0.0-11.0-1.2","SS1619740068829","trial","","40","500","32094.50000000652","images/stimuli/spore_stims/simple_03_A_b.gif","images/stimuli/spore_stims/simple_01_A_a.gif","forced_short","","1","simple_dissimilar","images/stimuli/spore_stims/simple_01_A_a.gif","","","","",""
"","null","html-keyboard-response","24","359050","0.0-11.0-0.3","SS1619740068829","","","null","","","","","","<p><img src= images/blank.png width =""600"" height = ""600"" style=""position:fixed;top:50%; left:50%; transform: translate(-50%, -50%); border:5px solid black"">","","","","","","","",""
"","16275.69000000949","sequential-stimulus-presentation-old","25","375840","0.0-11.0-1.3","SS1619740068829","trial","","40","500","16775.69000000949","images/stimuli/spore_stims/simple_03_A_b.gif","images/stimuli/spore_stims/simple_01_A_a.gif","forced_short","","1","simple_dissimilar","images/stimuli/spore_stims/simple_01_A_a.gif","","","","",""
"","2593.8749999913853","survey-multi-choice","26","378438","0.0-12.0","SS1619740068829","math_question","","","","","","","","","","","","{""Q0"":""9""}","[0]","9","",""
"","null","html-keyboard-response","27","379329","0.0-13.0-0.0","SS1619740068829","","","null","","","","","","<p><img src= images/blank.png width =""600"" height = ""600"" style=""position:fixed;top:50%; left:50%; transform: translate(-50%, -50%); border:5px solid black"">","","","","","","","",""
"","6609.360000002198","sequential-stimulus-presentation-old","28","386447","0.0-13.0-1.0","SS1619740068829","trial","","40","500","7109.360000002198","images/stimuli/spore_stims/complex_20_A_a.gif","images/stimuli/spore_stims/complex_11_A_b.gif","forced_short","","2","complex_dissimilar","images/stimuli/spore_stims/complex_11_A_b.gif","","","","",""
"","null","html-keyboard-response","29","387483","0.0-13.0-0.1","SS1619740068829","","","null","","","","","","<p><img src= images/blank.png width =""600"" height = ""600"" style=""position:fixed;top:50%; left:50%; transform: translate(-50%, -50%); border:5px solid black"">","","","","","","","",""
"","8445.249999989755","sequential-stimulus-presentation-old","30","396438","0.0-13.0-1.1","SS1619740068829","trial","","40","500","8945.249999989755","images/stimuli/spore_stims/complex_20_A_a.gif","images/stimuli/spore_stims/complex_11_A_b.gif","forced_short","","2","complex_dissimilar","images/stimuli/spore_stims/complex_11_A_b.gif","","","","",""
"","null","html-keyboard-response","31","397438","0.0-13.0-0.2","SS1619740068829","","","null","","","","","","<p><img src= images/blank.png width =""600"" height = ""600"" style=""position:fixed;top:50%; left:50%; transform: translate(-50%, -50%); border:5px solid black"">","","","","","","","",""
"","5183.390000020154","sequential-stimulus-presentation-old","32","403128","0.0-13.0-1.2","SS1619740068829","trial","","40","500","5683.390000020154","images/stimuli/spore_stims/complex_20_A_a.gif","images/stimuli/spore_stims/complex_11_A_b.gif","forced_short","","2","complex_dissimilar","images/stimuli/spore_stims/complex_11_A_b.gif","","","","",""
"","null","html-keyboard-response","33","404421","0.0-13.0-0.3","SS1619740068829","","","null","","","","","","<p><img src= images/blank.png width =""600"" height = ""600"" style=""position:fixed;top:50%; left:50%; transform: translate(-50%, -50%); border:5px solid black"">","","","","","","","",""
"","29538.604999979725","sequential-stimulus-presentation-old","34","434469","0.0-13.0-1.3","SS1619740068829","trial","","40","500","30038.604999979725","images/stimuli/spore_stims/complex_20_A_a.gif","images/stimuli/spore_stims/complex_11_A_b.gif","forced_short","","2","complex_dissimilar","images/stimuli/spore_stims/complex_11_A_b.gif","","","","",""
"","null","html-keyboard-response","35","435732","0.0-13.0-0.4","SS1619740068829","","","null","","","","","","<p><img src= images/blank.png width =""600"" height = ""600"" style=""position:fixed;top:50%; left:50%; transform: translate(-50%, -50%); border:5px solid black"">","","","","","","","",""
"","29057.6300000248","sequential-stimulus-presentation-old","36","465302","0.0-13.0-1.4","SS1619740068829","trial","","40","500","29557.6300000248","images/stimuli/spore_stims/complex_20_A_a.gif","images/stimuli/spore_stims/complex_11_A_b.gif","forced_short","","2","complex_dissimilar","images/stimuli/spore_stims/complex_11_A_b.gif","","","","",""
"","null","html-keyboard-response","37","466291","0.0-13.0-0.5","SS1619740068829","","","null","","","","","","<p><img src= images/blank.png width =""600"" height = ""600"" style=""position:fixed;top:50%; left:50%; transform: translate(-50%, -50%); border:5px solid black"">","","","","","","","",""
"","17729.395000002114","sequential-stimulus-presentation-old","38","484533","0.0-13.0-1.5","SS1619740068829","trial","","40","500","18229.395000002114","images/stimuli/spore_stims/complex_20_A_a.gif","images/stimuli/spore_stims/complex_11_A_b.gif","forced_short","","2","complex_dissimilar","images/stimuli/spore_stims/complex_11_A_b.gif","","","","",""
"","4410.730000003241","survey-multi-choice","39","488948","0.0-14.0","SS1619740068829","math_question","","","","","","","","","","","","{""Q0"":""7""}","[0]","7","",""
"","null","html-keyboard-response","40","489875","0.0-15.0-0.0","SS1619740068829","","","null","","","","","","<p><img src= images/blank.png width =""600"" height = ""600"" style=""position:fixed;top:50%; left:50%; transform: translate(-50%, -50%); border:5px solid black"">","","","","","","","",""
"","2184.7950000083074","sequential-stimulus-presentation-old","41","507072","0.0-15.0-1.0","SS1619740068829","trial","","40","500","2684.7950000083074","images/stimuli/spore_stims/complex_16_A_b.gif","images/stimuli/spore_stims/complex_06_A_a.gif","forced_long","","3","complex_dissimilar","images/stimuli/spore_stims/complex_06_A_a.gif","","","","",""
"","null","html-keyboard-response","42","508261","0.0-15.0-0.1","SS1619740068829","","","null","","","","","","<p><img src= images/blank.png width =""600"" height = ""600"" style=""position:fixed;top:50%; left:50%; transform: translate(-50%, -50%); border:5px solid black"">","","","","","","","",""
"","20253.970000019763","sequential-stimulus-presentation-old","43","529022","0.0-15.0-1.1","SS1619740068829","trial","","40","500","20753.970000019763","images/stimuli/spore_stims/complex_16_A_b.gif","images/stimuli/spore_stims/complex_06_A_a.gif","forced_long","","3","complex_dissimilar","images/stimuli/spore_stims/complex_06_A_a.gif","","","","",""
"","null","html-keyboard-response","44","530035","0.0-15.0-0.2","SS1619740068829","","","null","","","","","","<p><img src= images/blank.png width =""600"" height = ""600"" style=""position:fixed;top:50%; left:50%; transform: translate(-50%, -50%); border:5px solid black"">","","","","","","","",""
"","19442.9850000015","sequential-stimulus-presentation-old","45","549987","0.0-15.0-1.2","SS1619740068829","trial","","40","500","19942.9850000015","images/stimuli/spore_stims/complex_16_A_b.gif","images/stimuli/spore_stims/complex_06_A_a.gif","forced_long","","3","complex_dissimilar","images/stimuli/spore_stims/complex_16_A_b.gif","","","","",""
"","null","html-keyboard-response","46","551131","0.0-15.0-0.3","SS1619740068829","","","null","","","","","","<p><img src= images/blank.png width =""600"" height = ""600"" style=""position:fixed;top:50%; left:50%; transform: translate(-50%, -50%); border:5px solid black"">","","","","","","","",""
"","17016.250000015134","sequential-stimulus-presentation-old","47","568662","0.0-15.0-1.3","SS1619740068829","trial","","40","500","17516.250000015134","images/stimuli/spore_stims/complex_16_A_b.gif","images/stimuli/spore_stims/complex_06_A_a.gif","forced_long","","3","complex_dissimilar","images/stimuli/spore_stims/complex_06_A_a.gif","","","","",""
"","null","html-keyboard-response","48","569772","0.0-15.0-0.4","SS1619740068829","","","null","","","","","","<p><img src= images/blank.png width =""600"" height = ""600"" style=""position:fixed;top:50%; left:50%; transform: translate(-50%, -50%); border:5px solid black"">","","","","","","","",""
"","16834.164999978384","sequential-stimulus-presentation-old","49","587118","0.0-15.0-1.4","SS1619740068829","trial","","40","500","17334.164999978384","images/stimuli/spore_stims/complex_16_A_b.gif","images/stimuli/spore_stims/complex_06_A_a.gif","forced_long","","3","complex_dissimilar","images/stimuli/spore_stims/complex_16_A_b.gif","","","","",""
"","3701.404999999795","survey-multi-choice","50","590824","0.0-16.0","SS1619740068829","math_question","","","","","","","","","","","","{""Q0"":""15""}","[0]","15","",""
"","null","html-keyboard-response","51","592092","0.0-17.0-0.0","SS1619740068829","","","null","","","","","","<p><img src= images/blank.png width =""600"" height = ""600"" style=""position:fixed;top:50%; left:50%; transform: translate(-50%, -50%); border:5px solid black"">","","","","","","","",""
"","20044.05999998562","sequential-stimulus-presentation-old","52","612646","0.0-17.0-1.0","SS1619740068829","trial","","40","500","20544.05999998562","images/stimuli/spore_stims/complex_04_A_b.gif","images/stimuli/spore_stims/complex_18_A_a.gif","self_paced","","4","complex_dissimilar","images/stimuli/spore_stims/complex_18_A_a.gif","","","","",""
"","null","html-keyboard-response","53","613803","0.0-17.0-0.1","SS1619740068829","","","null","","","","","","<p><img src= images/blank.png width =""600"" height = ""600"" style=""position:fixed;top:50%; left:50%; transform: translate(-50%, -50%); border:5px solid black"">","","","","","","","",""
"","21560.630000021774","sequential-stimulus-presentation-old","54","635877","0.0-17.0-1.1","SS1619740068829","trial","","40","500","22060.630000021774","images/stimuli/spore_stims/complex_04_A_b.gif","images/stimuli/spore_stims/complex_18_A_a.gif","self_paced","","4","complex_dissimilar","images/stimuli/spore_stims/complex_18_A_a.gif","","","","",""
"","null","html-keyboard-response","55","637047","0.0-17.0-0.2","SS1619740068829","","","null","","","","","","<p><img src= images/blank.png width =""600"" height = ""600"" style=""position:fixed;top:50%; left:50%; transform: translate(-50%, -50%); border:5px solid black"">","","","","","","","",""
"","15559.974999981932","sequential-stimulus-presentation-old","56","653117","0.0-17.0-1.2","SS1619740068829","trial","","40","500","16059.974999981932","images/stimuli/spore_stims/complex_04_A_b.gif","images/stimuli/spore_stims/complex_18_A_a.gif","self_paced","","4","complex_dissimilar","images/stimuli/spore_stims/complex_04_A_b.gif","","","","",""
"","null","html-keyboard-response","57","654169","0.0-17.0-0.3","SS1619740068829","","","null","","","","","","<p><img src= images/blank.png width =""600"" height = ""600"" style=""position:fixed;top:50%; left:50%; transform: translate(-50%, -50%); border:5px solid black"">","","","","","","","",""
"","7014.345000003232","sequential-stimulus-presentation-old","58","661697","0.0-17.0-1.3","SS1619740068829","trial","","40","500","7514.345000003232","images/stimuli/spore_stims/complex_04_A_b.gif","images/stimuli/spore_stims/complex_18_A_a.gif","self_paced","","4","complex_dissimilar","images/stimuli/spore_stims/complex_18_A_a.gif","","","","",""
"","null","html-keyboard-response","59","662988","0.0-17.0-0.4","SS1619740068829","","","null","","","","","","<p><img src= images/blank.png width =""600"" height = ""600"" style=""position:fixed;top:50%; left:50%; transform: translate(-50%, -50%); border:5px solid black"">","","","","","","","",""
"","2361.284999991767","sequential-stimulus-presentation-old","60","665864","0.0-17.0-1.4","SS1619740068829","trial","","40","500","2861.284999991767","images/stimuli/spore_stims/complex_04_A_b.gif","images/stimuli/spore_stims/complex_18_A_a.gif","self_paced","","4","complex_dissimilar","images/stimuli/spore_stims/complex_18_A_a.gif","","","","",""
"","null","html-keyboard-response","61","667091","0.0-17.0-0.5","SS1619740068829","","","null","","","","","","<p><img src= images/blank.png width =""600"" height = ""600"" style=""position:fixed;top:50%; left:50%; transform: translate(-50%, -50%); border:5px solid black"">","","","","","","","",""
"","4248.599999991711","sequential-stimulus-presentation-old","62","671848","0.0-17.0-1.5","SS1619740068829","trial","","40","500","4748.599999991711","images/stimuli/spore_stims/complex_04_A_b.gif","images/stimuli/spore_stims/complex_18_A_a.gif","self_paced","","4","complex_dissimilar","images/stimuli/spore_stims/complex_04_A_b.gif","","","","",""
"","3551.8649999867193","survey-multi-choice","63","675405","0.0-18.0","SS1619740068829","math_question","","","","","","","","","","","","{""Q0"":""9""}","[0]","9","",""
"","null","html-keyboard-response","64","676233","0.0-19.0-0.0","SS1619740068829","","","null","","","","","","<p><img src= images/blank.png width =""600"" height = ""600"" style=""position:fixed;top:50%; left:50%; transform: translate(-50%, -50%); border:5px solid black"">","","","","","","","",""
"","919.724999985192","sequential-stimulus-presentation-old","65","677663","0.0-19.0-1.0","SS1619740068829","trial","","40","500","1419.724999985192","images/stimuli/spore_stims/complex_03_A_b.gif","images/stimuli/spore_stims/complex_13_A_a.gif","forced_short","","5","complex_dissimilar","images/stimuli/spore_stims/complex_13_A_a.gif","","","","",""
"","null","html-keyboard-response","66","678521","0.0-19.0-0.1","SS1619740068829","","","null","","","","","","<p><img src= images/blank.png width =""600"" height = ""600"" style=""position:fixed;top:50%; left:50%; transform: translate(-50%, -50%); border:5px solid black"">","","","","","","","",""
"","1756.7399999825284","sequential-stimulus-presentation-old","67","680786","0.0-19.0-1.1","SS1619740068829","trial","","40","500","2256.7399999825284","images/stimuli/spore_stims/complex_03_A_b.gif","images/stimuli/spore_stims/complex_13_A_a.gif","forced_short","","5","complex_dissimilar","images/stimuli/spore_stims/complex_13_A_a.gif","","","","",""
"","null","html-keyboard-response","68","681669","0.0-19.0-0.2","SS1619740068829","","","null","","","","","","<p><img src= images/blank.png width =""600"" height = ""600"" style=""position:fixed;top:50%; left:50%; transform: translate(-50%, -50%); border:5px solid black"">","","","","","","","",""
"","5084.000000002561","sequential-stimulus-presentation-old","69","687267","0.0-19.0-1.2","SS1619740068829","trial","","40","500","5584.000000002561","images/stimuli/spore_stims/complex_03_A_b.gif","images/stimuli/spore_stims/complex_13_A_a.gif","forced_short","","5","complex_dissimilar","images/stimuli/spore_stims/complex_03_A_b.gif","","","","",""
"","null","html-keyboard-response","70","688101","0.0-19.0-0.3","SS1619740068829","","","null","","","","","","<p><img src= images/blank.png width =""600"" height = ""600"" style=""position:fixed;top:50%; left:50%; transform: translate(-50%, -50%); border:5px solid black"">","","","","","","","",""
"","4387.874999985797","sequential-stimulus-presentation-old","71","693001","0.0-19.0-1.3","SS1619740068829","trial","","40","500","4887.874999985797","images/stimuli/spore_stims/complex_03_A_b.gif","images/stimuli/spore_stims/complex_13_A_a.gif","forced_short","","5","complex_dissimilar","images/stimuli/spore_stims/complex_13_A_a.gif","","","","",""
"","null","html-keyboard-response","72","694244","0.0-19.0-0.4","SS1619740068829","","","null","","","","","","<p><img src= images/blank.png width =""600"" height = ""600"" style=""position:fixed;top:50%; left:50%; transform: translate(-50%, -50%); border:5px solid black"">","","","","","","","",""
"","3580.054999998538","sequential-stimulus-presentation-old","73","698342","0.0-19.0-1.4","SS1619740068829","trial","","40","500","4080.054999998538","images/stimuli/spore_stims/complex_03_A_b.gif","images/stimuli/spore_stims/complex_13_A_a.gif","forced_short","","5","complex_dissimilar","images/stimuli/spore_stims/complex_13_A_a.gif","","","","",""
"","null","html-keyboard-response","74","699397","0.0-19.0-0.5","SS1619740068829","","","null","","","","","","<p><img src= images/blank.png width =""600"" height = ""600"" style=""position:fixed;top:50%; left:50%; transform: translate(-50%, -50%); border:5px solid black"">","","","","","","","",""
"","4796.090000018012","sequential-stimulus-presentation-old","75","704701","0.0-19.0-1.5","SS1619740068829","trial","","40","500","5296.090000018012","images/stimuli/spore_stims/complex_03_A_b.gif","images/stimuli/spore_stims/complex_13_A_a.gif","forced_short","","5","complex_dissimilar","images/stimuli/spore_stims/complex_03_A_b.gif","","","","",""
"","4886.895000003278","survey-multi-choice","76","709595","0.0-20.0","SS1619740068829","math_question","","","","","","","","","","","","{""Q0"":""10""}","[0]","10","",""
"","null","html-keyboard-response","77","710886","0.0-21.0-0.0","SS1619740068829","","","null","","","","","","<p><img src= images/blank.png width =""600"" height = ""600"" style=""position:fixed;top:50%; left:50%; transform: translate(-50%, -50%); border:5px solid black"">","","","","","","","",""
"","8346.779999992577","sequential-stimulus-presentation-old","78","719742","0.0-21.0-1.0","SS1619740068829","trial","","40","500","8846.779999992577","images/stimuli/spore_stims/simple_18_A_b.gif","images/stimuli/spore_stims/simple_09_A_a.gif","self_paced","","6","simple_dissimilar","images/stimuli/spore_stims/simple_09_A_a.gif","","","","",""
"","null","html-keyboard-response","79","720741","0.0-21.0-0.1","SS1619740068829","","","null","","","","","","<p><img src= images/blank.png width =""600"" height = ""600"" style=""position:fixed;top:50%; left:50%; transform: translate(-50%, -50%); border:5px solid black"">","","","","","","","",""
"","4967.169999988982","sequential-stimulus-presentation-old","80","726223","0.0-21.0-1.1","SS1619740068829","trial","","40","500","5467.169999988982","images/stimuli/spore_stims/simple_18_A_b.gif","images/stimuli/spore_stims/simple_09_A_a.gif","self_paced","","6","simple_dissimilar","images/stimuli/spore_stims/simple_18_A_b.gif","","","","",""
"","null","html-keyboard-response","81","727034","0.0-21.0-0.2","SS1619740068829","","","null","","","","","","<p><img src= images/blank.png width =""600"" height = ""600"" style=""position:fixed;top:50%; left:50%; transform: translate(-50%, -50%); border:5px solid black"">","","","","","","","",""
"","1442.5550000160001","sequential-stimulus-presentation-old","82","728991","0.0-21.0-1.2","SS1619740068829","trial","","40","500","1942.5550000160001","images/stimuli/spore_stims/simple_18_A_b.gif","images/stimuli/spore_stims/simple_09_A_a.gif","self_paced","","6","simple_dissimilar","images/stimuli/spore_stims/simple_09_A_a.gif","","","","",""
"","null","html-keyboard-response","83","730025","0.0-21.0-0.3","SS1619740068829","","","null","","","","","","<p><img src= images/blank.png width =""600"" height = ""600"" style=""position:fixed;top:50%; left:50%; transform: translate(-50%, -50%); border:5px solid black"">","","","","","","","",""
"","3618.9400000148453","sequential-stimulus-presentation-old","84","734158","0.0-21.0-1.3","SS1619740068829","trial","","40","500","4118.940000014845","images/stimuli/spore_stims/simple_18_A_b.gif","images/stimuli/spore_stims/simple_09_A_a.gif","self_paced","","6","simple_dissimilar","images/stimuli/spore_stims/simple_09_A_a.gif","","","","",""
"","null","html-keyboard-response","85","735062","0.0-21.0-0.4","SS1619740068829","","","null","","","","","","<p><img src= images/blank.png width =""600"" height = ""600"" style=""position:fixed;top:50%; left:50%; transform: translate(-50%, -50%); border:5px solid black"">","","","","","","","",""
"","6910.4499999957625","sequential-stimulus-presentation-old","86","742485","0.0-21.0-1.4","SS1619740068829","trial","","40","500","7410.4499999957625","images/stimuli/spore_stims/simple_18_A_b.gif","images/stimuli/spore_stims/simple_09_A_a.gif","self_paced","","6","simple_dissimilar","images/stimuli/spore_stims/simple_09_A_a.gif","","","","",""
"","null","html-keyboard-response","87","743314","0.0-21.0-0.5","SS1619740068829","","","null","","","","","","<p><img src= images/blank.png width =""600"" height = ""600"" style=""position:fixed;top:50%; left:50%; transform: translate(-50%, -50%); border:5px solid black"">","","","","","","","",""
"","66.47499999962747","sequential-stimulus-presentation-old","88","743893","0.0-21.0-1.5","SS1619740068829","trial","","40","500","566.4749999996275","images/stimuli/spore_stims/simple_18_A_b.gif","images/stimuli/spore_stims/simple_09_A_a.gif","self_paced","","6","simple_dissimilar","images/stimuli/spore_stims/simple_18_A_b.gif","","","","",""
"","4735.509999998612","survey-multi-choice","89","748634","0.0-22.0","SS1619740068829","math_question","","","","","","","","","","","","{""Q0"":""9""}","[0]","9","",""
"","null","html-keyboard-response","90","749472","0.0-23.0-0.0","SS1619740068829","","","null","","","","","","<p><img src= images/blank.png width =""600"" height = ""600"" style=""position:fixed;top:50%; left:50%; transform: translate(-50%, -50%); border:5px solid black"">","","","","","","","",""
"","3778.9300000004005","sequential-stimulus-presentation-old","91","768258","0.0-23.0-1.0","SS1619740068829","trial","","40","500","4278.9300000004005","images/stimuli/spore_stims/simple_12_A_b.gif","images/stimuli/spore_stims/simple_07_A_a.gif","forced_long","","7","simple_dissimilar","images/stimuli/spore_stims/simple_07_A_a.gif","","","","",""
"","null","html-keyboard-response","92","769418","0.0-23.0-0.1","SS1619740068829","","","null","","","","","","<p><img src= images/blank.png width =""600"" height = ""600"" style=""position:fixed;top:50%; left:50%; transform: translate(-50%, -50%); border:5px solid black"">","","","","","","","",""
"","1677.3249999969266","sequential-stimulus-presentation-old","93","771611","0.0-23.0-1.1","SS1619740068829","trial","","40","500","2177.3249999969266","images/stimuli/spore_stims/simple_12_A_b.gif","images/stimuli/spore_stims/simple_07_A_a.gif","forced_long","","7","simple_dissimilar","images/stimuli/spore_stims/simple_07_A_a.gif","","","","",""
"","null","html-keyboard-response","94","772908","0.0-23.0-0.2","SS1619740068829","","","null","","","","","","<p><img src= images/blank.png width =""600"" height = ""600"" style=""position:fixed;top:50%; left:50%; transform: translate(-50%, -50%); border:5px solid black"">","","","","","","","",""
"","2701.314999983879","sequential-stimulus-presentation-old","95","776124","0.0-23.0-1.2","SS1619740068829","trial","","40","500","3201.314999983879","images/stimuli/spore_stims/simple_12_A_b.gif","images/stimuli/spore_stims/simple_07_A_a.gif","forced_long","","7","simple_dissimilar","images/stimuli/spore_stims/simple_12_A_b.gif","","","","",""
"","null","html-keyboard-response","96","777136","0.0-23.0-0.3","SS1619740068829","","","null","","","","","","<p><img src= images/blank.png width =""600"" height = ""600"" style=""position:fixed;top:50%; left:50%; transform: translate(-50%, -50%); border:5px solid black"">","","","","","","","",""
"","864.4749999803025","sequential-stimulus-presentation-old","97","778516","0.0-23.0-1.3","SS1619740068829","trial","","40","500","1364.4749999803025","images/stimuli/spore_stims/simple_12_A_b.gif","images/stimuli/spore_stims/simple_07_A_a.gif","forced_long","","7","simple_dissimilar","images/stimuli/spore_stims/simple_07_A_a.gif","","","","",""
"","5090.36499998183","survey-multi-choice","98","783612","0.0-24.0","SS1619740068829","math_question","","","","","","","","","","","","{""Q0"":""17""}","[0]","17","",""
"","null","html-keyboard-response","99","784762","0.0-25.0-0.0","SS1619740068829","","","null","","","","","","<p><img src= images/blank.png width =""600"" height = ""600"" style=""position:fixed;top:50%; left:50%; transform: translate(-50%, -50%); border:5px solid black"">","","","","","","","",""
"","3916.7449999949895","sequential-stimulus-presentation-old","100","789194","0.0-25.0-1.0","SS1619740068829","trial","","40","500","4416.7449999949895","images/stimuli/spore_stims/simple_13_A_a.gif","images/stimuli/spore_stims/simple_04_A_b.gif","forced_short","","8","simple_dissimilar","images/stimuli/spore_stims/simple_04_A_b.gif","","","","",""
"","null","html-keyboard-response","101","790224","0.0-25.0-0.1","SS1619740068829","","","null","","","","","","<p><img src= images/blank.png width =""600"" height = ""600"" style=""position:fixed;top:50%; left:50%; transform: translate(-50%, -50%); border:5px solid black"">","","","","","","","",""
"","6640.084999991814","sequential-stimulus-presentation-old","102","797382","0.0-25.0-1.1","SS1619740068829","trial","","40","500","7140.084999991814","images/stimuli/spore_stims/simple_13_A_a.gif","images/stimuli/spore_stims/simple_04_A_b.gif","forced_short","","8","simple_dissimilar","images/stimuli/spore_stims/simple_04_A_b.gif","","","","",""
"","null","html-keyboard-response","103","798545","0.0-25.0-0.2","SS1619740068829","","","null","","","","","","<p><img src= images/blank.png width =""600"" height = ""600"" style=""position:fixed;top:50%; left:50%; transform: translate(-50%, -50%); border:5px solid black"">","","","","","","","",""
"","2169.9749999970663","sequential-stimulus-presentation-old","104","801237","0.0-25.0-1.2","SS1619740068829","trial","","40","500","2669.9749999970663","images/stimuli/spore_stims/simple_13_A_a.gif","images/stimuli/spore_stims/simple_04_A_b.gif","forced_short","","8","simple_dissimilar","images/stimuli/spore_stims/simple_04_A_b.gif","","","","",""
"","null","html-keyboard-response","105","802242","0.0-25.0-0.3","SS1619740068829","","","null","","","","","","<p><img src= images/blank.png width =""600"" height = ""600"" style=""position:fixed;top:50%; left:50%; transform: translate(-50%, -50%); border:5px solid black"">","","","","","","","",""
"","601.2050000135787","sequential-stimulus-presentation-old","106","803350","0.0-25.0-1.3","SS1619740068829","trial","","40","500","1101.2050000135787","images/stimuli/spore_stims/simple_13_A_a.gif","images/stimuli/spore_stims/simple_04_A_b.gif","forced_short","","8","simple_dissimilar","images/stimuli/spore_stims/simple_13_A_a.gif","","","","",""
"","3244.700000010198","survey-multi-choice","107","806602","0.0-26.0","SS1619740068829","math_question","","","","","","","","","","","","{""Q0"":""11""}","[0]","11","",""
"","null","html-keyboard-response","108","807459","0.0-27.0-0.0","SS1619740068829","","","null","","","","","","<p><img src= images/blank.png width =""600"" height = ""600"" style=""position:fixed;top:50%; left:50%; transform: translate(-50%, -50%); border:5px solid black"">","","","","","","","",""
"","2745.6750000128523","sequential-stimulus-presentation-old","109","810723","0.0-27.0-1.0","SS1619740068829","trial","","40","500","3245.6750000128523","images/stimuli/spore_stims/simple_15_A_a.gif","images/stimuli/spore_stims/simple_14_A_b.gif","self_paced","","9","simple_dissimilar","images/stimuli/spore_stims/simple_14_A_b.gif","","","","",""
"","null","html-keyboard-response","110","811649","0.0-27.0-0.1","SS1619740068829","","","null","","","","","","<p><img src= images/blank.png width =""600"" height = ""600"" style=""position:fixed;top:50%; left:50%; transform: translate(-50%, -50%); border:5px solid black"">","","","","","","","",""
"","9400.445000006584","sequential-stimulus-presentation-old","111","821564","0.0-27.0-1.1","SS1619740068829","trial","","40","500","9900.445000006584","images/stimuli/spore_stims/simple_15_A_a.gif","images/stimuli/spore_stims/simple_14_A_b.gif","self_paced","","9","simple_dissimilar","images/stimuli/spore_stims/simple_14_A_b.gif","","","","",""
"","null","html-keyboard-response","112","822863","0.0-27.0-0.2","SS1619740068829","","","null","","","","","","<p><img src= images/blank.png width =""600"" height = ""600"" style=""position:fixed;top:50%; left:50%; transform: translate(-50%, -50%); border:5px solid black"">","","","","","","","",""
"","6780.590000009397","sequential-stimulus-presentation-old","113","830158","0.0-27.0-1.2","SS1619740068829","trial","","40","500","7280.590000009397","images/stimuli/spore_stims/simple_15_A_a.gif","images/stimuli/spore_stims/simple_14_A_b.gif","self_paced","","9","simple_dissimilar","images/stimuli/spore_stims/simple_14_A_b.gif","","","","",""
"","null","html-keyboard-response","114","830971","0.0-27.0-0.3","SS1619740068829","","","null","","","","","","<p><img src= images/blank.png width =""600"" height = ""600"" style=""position:fixed;top:50%; left:50%; transform: translate(-50%, -50%); border:5px solid black"">","","","","","","","",""
"","5336.855000001378","sequential-stimulus-presentation-old","115","836822","0.0-27.0-1.3","SS1619740068829","trial","","40","500","5836.855000001378","images/stimuli/spore_stims/simple_15_A_a.gif","images/stimuli/spore_stims/simple_14_A_b.gif","self_paced","","9","simple_dissimilar","images/stimuli/spore_stims/simple_14_A_b.gif","","","","",""
"","null","html-keyboard-response","116","837655","0.0-27.0-0.4","SS1619740068829","","","null","","","","","","<p><img src= images/blank.png width =""600"" height = ""600"" style=""position:fixed;top:50%; left:50%; transform: translate(-50%, -50%); border:5px solid black"">","","","","","","","",""
"","4583.090000000084","sequential-stimulus-presentation-old","117","842755","0.0-27.0-1.4","SS1619740068829","trial","","40","500","5083.090000000084","images/stimuli/spore_stims/simple_15_A_a.gif","images/stimuli/spore_stims/simple_14_A_b.gif","self_paced","","9","simple_dissimilar","images/stimuli/spore_stims/simple_15_A_a.gif","","","","",""
"","null","html-keyboard-response","118","843674","0.0-27.0-0.5","SS1619740068829","","","null","","","","","","<p><img src= images/blank.png width =""600"" height = ""600"" style=""position:fixed;top:50%; left:50%; transform: translate(-50%, -50%); border:5px solid black"">","","","","","","","",""
"","4185.469999996712","sequential-stimulus-presentation-old","119","848371","0.0-27.0-1.5","SS1619740068829","trial","","40","500","4685.469999996712","images/stimuli/spore_stims/simple_15_A_a.gif","images/stimuli/spore_stims/simple_14_A_b.gif","self_paced","","9","simple_dissimilar","images/stimuli/spore_stims/simple_15_A_a.gif","","","","",""
"","8617.729999998119","survey-multi-choice","120","856994","0.0-28.0","SS1619740068829","math_question","","","","","","","","","","","","{""Q0"":""10""}","[0]","10","",""
"","null","html-keyboard-response","121","858060","0.0-29.0-0.0","SS1619740068829","","","null","","","","","","<p><img src= images/blank.png width =""600"" height = ""600"" style=""position:fixed;top:50%; left:50%; transform: translate(-50%, -50%); border:5px solid black"">","","","","","","","",""
"","6442.604999989271","sequential-stimulus-presentation-old","122","879514","0.0-29.0-1.0","SS1619740068829","trial","","40","500","6942.604999989271","images/stimuli/spore_stims/complex_10_A_a.gif","images/stimuli/spore_stims/complex_08_A_b.gif","forced_long","","10","complex_dissimilar","images/stimuli/spore_stims/complex_08_A_b.gif","","","","",""
"","null","html-keyboard-response","123","880735","0.0-29.0-0.1","SS1619740068829","","","null","","","","","","<p><img src= images/blank.png width =""600"" height = ""600"" style=""position:fixed;top:50%; left:50%; transform: translate(-50%, -50%); border:5px solid black"">","","","","","","","",""
"","2549.6649999986403","sequential-stimulus-presentation-old","124","883802","0.0-29.0-1.1","SS1619740068829","trial","","40","500","3049.6649999986403","images/stimuli/spore_stims/complex_10_A_a.gif","images/stimuli/spore_stims/complex_08_A_b.gif","forced_long","","10","complex_dissimilar","images/stimuli/spore_stims/complex_08_A_b.gif","","","","",""
"","null","html-keyboard-response","125","884833","0.0-29.0-0.2","SS1619740068829","","","null","","","","","","<p><img src= images/blank.png width =""600"" height = ""600"" style=""position:fixed;top:50%; left:50%; transform: translate(-50%, -50%); border:5px solid black"">","","","","","","","",""
"","4812.630000000354","sequential-stimulus-presentation-old","126","890172","0.0-29.0-1.2","SS1619740068829","trial","","40","500","5312.630000000354","images/stimuli/spore_stims/complex_10_A_a.gif","images/stimuli/spore_stims/complex_08_A_b.gif","forced_long","","10","complex_dissimilar","images/stimuli/spore_stims/complex_08_A_b.gif","","","","",""
"","null","html-keyboard-response","127","891081","0.0-29.0-0.3","SS1619740068829","","","null","","","","","","<p><img src= images/blank.png width =""600"" height = ""600"" style=""position:fixed;top:50%; left:50%; transform: translate(-50%, -50%); border:5px solid black"">","","","","","","","",""
"","3526.034999988042","sequential-stimulus-presentation-old","128","895121","0.0-29.0-1.3","SS1619740068829","trial","","40","500","4026.034999988042","images/stimuli/spore_stims/complex_10_A_a.gif","images/stimuli/spore_stims/complex_08_A_b.gif","forced_long","","10","complex_dissimilar","images/stimuli/spore_stims/complex_08_A_b.gif","","","","",""
"","4440.094999998109","survey-multi-choice","129","899569","0.0-30.0","SS1619740068829","math_question","","","","","","","","","","","","{""Q0"":""13""}","[0]","13","",""
"","null","html-keyboard-response","130","900551","0.0-31.0-0.0","SS1619740068829","","","null","","","","","","<p><img src= images/blank.png width =""600"" height = ""600"" style=""position:fixed;top:50%; left:50%; transform: translate(-50%, -50%); border:5px solid black"">","","","","","","","",""
"","3002.8999999922235","sequential-stimulus-presentation-old","131","904069","0.0-31.0-1.0","SS1619740068829","trial","","40","500","3502.8999999922235","images/stimuli/spore_stims/complex_17_A_b.gif","images/stimuli/spore_stims/complex_14_A_a.gif","self_paced","","11","complex_dissimilar","images/stimuli/spore_stims/complex_14_A_a.gif","","","","",""
"","null","html-keyboard-response","132","904961","0.0-31.0-0.1","SS1619740068829","","","null","","","","","","<p><img src= images/blank.png width =""600"" height = ""600"" style=""position:fixed;top:50%; left:50%; transform: translate(-50%, -50%); border:5px solid black"">","","","","","","","",""
"","2949.0999999979977","sequential-stimulus-presentation-old","133","908427","0.0-31.0-1.1","SS1619740068829","trial","","40","500","3449.0999999979977","images/stimuli/spore_stims/complex_17_A_b.gif","images/stimuli/spore_stims/complex_14_A_a.gif","self_paced","","11","complex_dissimilar","images/stimuli/spore_stims/complex_17_A_b.gif","","","","",""
"","null","html-keyboard-response","134","909476","0.0-31.0-0.2","SS1619740068829","","","null","","","","","","<p><img src= images/blank.png width =""600"" height = ""600"" style=""position:fixed;top:50%; left:50%; transform: translate(-50%, -50%); border:5px solid black"">","","","","","","","",""
"","2744.139999995241","sequential-stimulus-presentation-old","135","912732","0.0-31.0-1.2","SS1619740068829","trial","","40","500","3244.139999995241","images/stimuli/spore_stims/complex_17_A_b.gif","images/stimuli/spore_stims/complex_14_A_a.gif","self_paced","","11","complex_dissimilar","images/stimuli/spore_stims/complex_14_A_a.gif","","","","",""
"","null","html-keyboard-response","136","913919","0.0-31.0-0.3","SS1619740068829","","","null","","","","","","<p><img src= images/blank.png width =""600"" height = ""600"" style=""position:fixed;top:50%; left:50%; transform: translate(-50%, -50%); border:5px solid black"">","","","","","","","",""
"","2800.790000008419","sequential-stimulus-presentation-old","137","917236","0.0-31.0-1.3","SS1619740068829","trial","","40","500","3300.790000008419","images/stimuli/spore_stims/complex_17_A_b.gif","images/stimuli/spore_stims/complex_14_A_a.gif","self_paced","","11","complex_dissimilar","images/stimuli/spore_stims/complex_14_A_a.gif","","","","",""
"[{""page_index"":0,""viewing_time"":16059.16000000434}]","16059.995000017807","instructions","138","933303","0.0-32.0","SS1619740068829","instructions","","","","","","","","","","","","","","","",""
"","6667.394999996759","survey-likert","139","939981","0.0-33.0","SS1619740068829","similarity_question","","","","","","","","","","","","{""Q0"":1}","[0]","","images/stimuli/spore_stims/simple_09_A_a.gif","images/stimuli/spore_stims/simple_18_A_b.gif"
"","8236.260000005132","survey-likert","140","948239","0.0-34.0","SS1619740068829","similarity_question","","","","","","","","","","","","{""Q0"":4}","[0]","","images/stimuli/spore_stims/simple_03_A_b.gif","images/stimuli/spore_stims/simple_01_A_a.gif"
"","4599.064999987604","survey-likert","141","952857","0.0-35.0","SS1619740068829","similarity_question","","","","","","","","","","","","{""Q0"":3}","[0]","","images/stimuli/spore_stims/simple_15_A_a.gif","images/stimuli/spore_stims/simple_14_A_b.gif"
"","5006.244999996852","survey-likert","142","957883","0.0-36.0","SS1619740068829","similarity_question","","","","","","","","","","","","{""Q0"":0}","[0]","","images/stimuli/spore_stims/complex_17_A_b.gif","images/stimuli/spore_stims/complex_14_A_a.gif"
"","7268.11999999336","survey-likert","143","965172","0.0-37.0","SS1619740068829","similarity_question","","","","","","","","","","","","{""Q0"":3}","[0]","","images/stimuli/spore_stims/complex_03_A_b.gif","images/stimuli/spore_stims/complex_13_A_a.gif"
"","6093.114999996033","survey-likert","144","971286","0.0-38.0","SS1619740068829","similarity_question","","","","","","","","","","","","{""Q0"":5}","[0]","","images/stimuli/spore_stims/simple_04_A_b.gif","images/stimuli/spore_stims/simple_13_A_a.gif"
"","3037.8899999777786","survey-likert","145","974343","0.0-39.0","SS1619740068829","similarity_question","","","","","","","","","","","","{""Q0"":2}","[0]","","images/stimuli/spore_stims/simple_08_A_a.gif","images/stimuli/spore_stims/simple_17_A_b.gif"
"","5519.245000003139","survey-likert","146","979882","0.0-40.0","SS1619740068829","similarity_question","","","","","","","","","","","","{""Q0"":3}","[0]","","images/stimuli/spore_stims/complex_16_A_b.gif","images/stimuli/spore_stims/complex_06_A_a.gif"
"","3346.129999990808","survey-likert","147","983248","0.0-41.0","SS1619740068829","similarity_question","","","","","","","","","","","","{""Q0"":2}","[0]","","images/stimuli/spore_stims/simple_07_A_a.gif","images/stimuli/spore_stims/simple_12_A_b.gif"
"","6282.280000013998","survey-likert","148","989551","0.0-42.0","SS1619740068829","similarity_question","","","","","","","","","","","","{""Q0"":3}","[0]","","images/stimuli/spore_stims/complex_10_A_a.gif","images/stimuli/spore_stims/complex_08_A_b.gif"
"","3075.169999996433","survey-likert","149","992646","0.0-43.0","SS1619740068829","similarity_question","","","","","","","","","","","","{""Q0"":2}","[0]","","images/stimuli/spore_stims/complex_18_A_a.gif","images/stimuli/spore_stims/complex_04_A_b.gif"
"","5255.0500000070315","survey-likert","150","997920","0.0-44.0","SS1619740068829","similarity_question","","","","","","","","","","","","{""Q0"":1}","[0]","","images/stimuli/spore_stims/complex_11_A_b.gif","images/stimuli/spore_stims/complex_20_A_a.gif"
"[{""page_index"":0,""viewing_time"":10306.239999976242}]","10307.109999994282","instructions","151","1008243","0.0-45.0","SS1619740068829","instructions","","","","","","","","","","","","","","","",""
"","5804.460000013933","survey-likert","152","1014059","0.0-46.0","SS1619740068829","","","","","","","","","images/stimuli/spore_stims/simple_04_A_b.gif","","","","{""Q0"":0}","[0]","","",""
"","1708.9250000135507","survey-likert","153","1015789","0.0-47.0","SS1619740068829","","","","","","","","","images/stimuli/spore_stims/simple_09_A_a.gif","","","","{""Q0"":0}","[0]","","",""
"","5424.4049999979325","survey-likert","154","1021235","0.0-48.0","SS1619740068829","","","","","","","","","images/stimuli/spore_stims/complex_13_A_a.gif","","","","{""Q0"":5}","[0]","","",""
"","4742.629999993369","survey-likert","155","1025998","0.0-49.0","SS1619740068829","","","","","","","","","images/stimuli/spore_stims/complex_11_A_b.gif","","","","{""Q0"":3}","[0]","","",""
"","4737.344999972265","survey-likert","156","1030756","0.0-50.0","SS1619740068829","","","","","","","","","images/stimuli/spore_stims/complex_08_A_b.gif","","","","{""Q0"":4}","[0]","","",""
"","2706.674999993993","survey-likert","157","1033483","0.0-51.0","SS1619740068829","","","","","","","","","images/stimuli/spore_stims/simple_17_A_b.gif","","","","{""Q0"":0}","[0]","","",""
"","1962.69499999471","survey-likert","158","1035466","0.0-52.0","SS1619740068829","","","","","","","","","images/stimuli/spore_stims/simple_03_A_b.gif","","","","{""Q0"":0}","[0]","","",""
"","1696.924999996554","survey-likert","159","1037184","0.0-53.0","SS1619740068829","","","","","","","","","images/stimuli/spore_stims/simple_14_A_b.gif","","","","{""Q0"":0}","[0]","","",""
"","1891.1099999968428","survey-likert","160","1039096","0.0-54.0","SS1619740068829","","","","","","","","","images/stimuli/spore_stims/complex_14_A_a.gif","","","","{""Q0"":3}","[0]","","",""
"","3550.229999993462","survey-likert","161","1042666","0.0-55.0","SS1619740068829","","","","","","","","","images/stimuli/spore_stims/complex_06_A_a.gif","","","","{""Q0"":3}","[0]","","",""
"","2713.835000002291","survey-likert","162","1045399","0.0-56.0","SS1619740068829","","","","","","","","","images/stimuli/spore_stims/complex_04_A_b.gif","","","","{""Q0"":5}","[0]","","",""
"","2980.8149999880698","survey-likert","163","1048401","0.0-57.0","SS1619740068829","","","","","","","","","images/stimuli/spore_stims/simple_12_A_b.gif","","","","{""Q0"":0}","[0]","","",""
"[{""page_index"":0,""viewing_time"":4336.2900000065565}]","4337.5449999875855","instructions","164","1052758","0.0-58.0","SS1619740068829","instructions","","","","","","","","","","","","","","","",""
"","2294.8450000258163","demog-age","165","1055070","0.0-59.0","SS1619740068829","","","","","","","","","","","","","{""age"":""21""}","","","",""
"","2541.640000010375","demog-ethnic-US","166","1057631","0.0-60.0","SS1619740068829","","","","","","","","","","","","","{""ethnicity"":[""White""]}","[0]","","",""
"","6226.120000006631","demog-gender-and-education","167","1063878","0.0-61.0","SS1619740068829","","","","","","","","","","","","","{""gender"":""Female"",""education"":""Bachelor's Degree""}","[0,1]","","",""
"","53878.98499998846","survey-text","168","1117780","0.0-62.0","SS1619740068829","feedback","","","","","","","","","","","","{""Q0"":"" everything was fine""}","","","",""
"[{""page_index"":0,""viewing_time"":1591.7849999968894}]","1592.2849999915343","instructions","169","1119384","0.0-63.0","SS1619740068829","instructions","","","","","","","","","","","","","","","",""
