"view_history","rt","trial_type","trial_index","time_elapsed","internal_node_id","subject","stimulus_type","trial_stimulus","key_press","minimum_viewing_duration","trial_looking_time","block_deviant","block_background","exposure_type","stimulus","block_number","block_type","stimulus_displayed","responses","question_order","math_correct_answer","stimulus_left","stimulus_right"
"[{""page_index"":0,""viewing_time"":46212.20499999981}]","46213.76000000055","instructions","0","46212","0.0-0.0","SS1619739570391","","","","","","","","","","","","","","","","",""
"[{""page_index"":0,""viewing_time"":19003.42500000079},{""page_index"":1,""viewing_time"":9559.63999999949}]","28563.38499999947","instructions","1","76779","0.0-1.0","SS1619739570391","instructions","","","","","","","","","","","","","","","",""
"","11879.959999998391","sequential-stimulus-presentation-old","2","89166","0.0-2.0","SS1619739570391","","","40","500","12379.959999998391","null","null","self_paced","","","","","","","","",""
"","6297.87000000033","sequential-stimulus-presentation-old","3","95966","0.0-3.0","SS1619739570391","","","40","500","6797.87000000033","null","null","self_paced","","","","","","","","",""
"[{""page_index"":0,""viewing_time"":17466.04500000103}]","17466.475000001083","instructions","4","113433","0.0-4.0","SS1619739570391","instructions","","","","","","","","","","","","","","","",""
"","711.8650000011257","sequential-stimulus-presentation-old","5","129147","0.0-5.0","SS1619739570391","","","40","500","1211.8650000011257","null","null","forced_long","","","","","","","","",""
"","909.2900000014051","sequential-stimulus-presentation-old","6","130561","0.0-6.0","SS1619739570391","","","40","500","1409.2900000014051","null","null","forced_long","","","","","","","","",""
"[{""page_index"":0,""viewing_time"":9214.024999999325}]","9214.335000000574","instructions","7","139776","0.0-7.0","SS1619739570391","instructions","","","","","","","","","","","","","","","",""
"[{""page_index"":0,""viewing_time"":13348.25500000079},{""page_index"":1,""viewing_time"":253969.88500000045},{""page_index"":2,""viewing_time"":8031.680000000051},{""page_index"":3,""viewing_time"":49055.46499999944},{""page_index"":4,""viewing_time"":1134.804999999702}]","325540.39999999985","instructions","8","465296","0.0-8.0","SS1619739570391","instructions","","","","","","","","","","","","","","","",""
"","null","html-keyboard-response","9","466246","0.0-9.0-0.0","SS1619739570391","","","null","","","","","","<p><img src= images/blank.png width =""600"" height = ""600"" style=""position:fixed;top:50%; left:50%; transform: translate(-50%, -50%); border:5px solid black"">","","","","","","","",""
"","22201.020000000484","sequential-stimulus-presentation-old","10","488950","0.0-9.0-1.0","SS1619739570391","trial","","40","500","22701.020000000484","images/stimuli/spore_stims/complex_05_A_a.gif","images/stimuli/spore_stims/complex_06_A_b.gif","self_paced","","0","complex_dissimilar","images/stimuli/spore_stims/complex_06_A_b.gif","","","","",""
"","null","html-keyboard-response","11","489955","0.0-9.0-0.1","SS1619739570391","","","null","","","","","","<p><img src= images/blank.png width =""600"" height = ""600"" style=""position:fixed;top:50%; left:50%; transform: translate(-50%, -50%); border:5px solid black"">","","","","","","","",""
"","35944.125","sequential-stimulus-presentation-old","12","527140","0.0-9.0-1.1","SS1619739570391","trial","","40","500","36444.125","images/stimuli/spore_stims/complex_05_A_a.gif","images/stimuli/spore_stims/complex_06_A_b.gif","self_paced","","0","complex_dissimilar","images/stimuli/spore_stims/complex_06_A_b.gif","","","","",""
"","null","html-keyboard-response","13","528047","0.0-9.0-0.2","SS1619739570391","","","null","","","","","","<p><img src= images/blank.png width =""600"" height = ""600"" style=""position:fixed;top:50%; left:50%; transform: translate(-50%, -50%); border:5px solid black"">","","","","","","","",""
"","66532.09000000055","sequential-stimulus-presentation-old","14","595083","0.0-9.0-1.2","SS1619739570391","trial","","40","500","67032.09000000055","images/stimuli/spore_stims/complex_05_A_a.gif","images/stimuli/spore_stims/complex_06_A_b.gif","self_paced","","0","complex_dissimilar","images/stimuli/spore_stims/complex_06_A_b.gif","","","","",""
"","null","html-keyboard-response","15","596149","0.0-9.0-0.3","SS1619739570391","","","null","","","","","","<p><img src= images/blank.png width =""600"" height = ""600"" style=""position:fixed;top:50%; left:50%; transform: translate(-50%, -50%); border:5px solid black"">","","","","","","","",""
"","37000.265000000596","sequential-stimulus-presentation-old","16","633656","0.0-9.0-1.3","SS1619739570391","trial","","40","500","37500.265000000596","images/stimuli/spore_stims/complex_05_A_a.gif","images/stimuli/spore_stims/complex_06_A_b.gif","self_paced","","0","complex_dissimilar","images/stimuli/spore_stims/complex_06_A_b.gif","","","","",""
"","7221.709999999846","survey-multi-choice","17","640882","0.0-10.0","SS1619739570391","math_question","","","","","","","","","","","","{""Q0"":""11""}","[0]","11","",""
"","null","html-keyboard-response","18","642108","0.0-11.0-0.0","SS1619739570391","","","null","","","","","","<p><img src= images/blank.png width =""600"" height = ""600"" style=""position:fixed;top:50%; left:50%; transform: translate(-50%, -50%); border:5px solid black"">","","","","","","","",""
"","1851.9300000007497","sequential-stimulus-presentation-old","19","644467","0.0-11.0-1.0","SS1619739570391","trial","","40","500","2351.9300000007497","images/stimuli/spore_stims/complex_20_A_b.gif","images/stimuli/spore_stims/complex_04_A_a.gif","forced_short","","1","complex_dissimilar","images/stimuli/spore_stims/complex_04_A_a.gif","","","","",""
"","null","html-keyboard-response","20","645605","0.0-11.0-0.1","SS1619739570391","","","null","","","","","","<p><img src= images/blank.png width =""600"" height = ""600"" style=""position:fixed;top:50%; left:50%; transform: translate(-50%, -50%); border:5px solid black"">","","","","","","","",""
"","22934.925000001327","sequential-stimulus-presentation-old","21","669042","0.0-11.0-1.1","SS1619739570391","trial","","40","500","23434.925000001327","images/stimuli/spore_stims/complex_20_A_b.gif","images/stimuli/spore_stims/complex_04_A_a.gif","forced_short","","1","complex_dissimilar","images/stimuli/spore_stims/complex_04_A_a.gif","","","","",""
"","null","html-keyboard-response","22","670023","0.0-11.0-0.2","SS1619739570391","","","null","","","","","","<p><img src= images/blank.png width =""600"" height = ""600"" style=""position:fixed;top:50%; left:50%; transform: translate(-50%, -50%); border:5px solid black"">","","","","","","","",""
"","9458.18499999959","sequential-stimulus-presentation-old","23","679987","0.0-11.0-1.2","SS1619739570391","trial","","40","500","9958.18499999959","images/stimuli/spore_stims/complex_20_A_b.gif","images/stimuli/spore_stims/complex_04_A_a.gif","forced_short","","1","complex_dissimilar","images/stimuli/spore_stims/complex_04_A_a.gif","","","","",""
"","null","html-keyboard-response","24","681052","0.0-11.0-0.3","SS1619739570391","","","null","","","","","","<p><img src= images/blank.png width =""600"" height = ""600"" style=""position:fixed;top:50%; left:50%; transform: translate(-50%, -50%); border:5px solid black"">","","","","","","","",""
"","13685.72500000114","sequential-stimulus-presentation-old","25","695247","0.0-11.0-1.3","SS1619739570391","trial","","40","500","14185.72500000114","images/stimuli/spore_stims/complex_20_A_b.gif","images/stimuli/spore_stims/complex_04_A_a.gif","forced_short","","1","complex_dissimilar","images/stimuli/spore_stims/complex_04_A_a.gif","","","","",""
"","null","html-keyboard-response","26","696423","0.0-11.0-0.4","SS1619739570391","","","null","","","","","","<p><img src= images/blank.png width =""600"" height = ""600"" style=""position:fixed;top:50%; left:50%; transform: translate(-50%, -50%); border:5px solid black"">","","","","","","","",""
"","5921.709999998682","sequential-stimulus-presentation-old","27","702848","0.0-11.0-1.4","SS1619739570391","trial","","40","500","6421.709999998682","images/stimuli/spore_stims/complex_20_A_b.gif","images/stimuli/spore_stims/complex_04_A_a.gif","forced_short","","1","complex_dissimilar","images/stimuli/spore_stims/complex_20_A_b.gif","","","","",""
"","2542.70999999973","survey-multi-choice","28","705394","0.0-12.0","SS1619739570391","math_question","","","","","","","","","","","","{""Q0"":""8""}","[0]","8","",""
"","null","html-keyboard-response","29","706478","0.0-13.0-0.0","SS1619739570391","","","null","","","","","","<p><img src= images/blank.png width =""600"" height = ""600"" style=""position:fixed;top:50%; left:50%; transform: translate(-50%, -50%); border:5px solid black"">","","","","","","","",""
"","818.1949999998324","sequential-stimulus-presentation-old","30","722301","0.0-13.0-1.0","SS1619739570391","trial","","40","500","1318.1949999998324","images/stimuli/spore_stims/simple_14_A_a.gif","images/stimuli/spore_stims/simple_05_A_b.gif","forced_long","","2","simple_dissimilar","images/stimuli/spore_stims/simple_05_A_b.gif","","","","",""
"","null","html-keyboard-response","31","723223","0.0-13.0-0.1","SS1619739570391","","","null","","","","","","<p><img src= images/blank.png width =""600"" height = ""600"" style=""position:fixed;top:50%; left:50%; transform: translate(-50%, -50%); border:5px solid black"">","","","","","","","",""
"","60205.369999999646","sequential-stimulus-presentation-old","32","783929","0.0-13.0-1.1","SS1619739570391","trial","","40","500","60705.369999999646","images/stimuli/spore_stims/simple_14_A_a.gif","images/stimuli/spore_stims/simple_05_A_b.gif","forced_long","","2","simple_dissimilar","images/stimuli/spore_stims/simple_05_A_b.gif","","","","",""
"","null","html-keyboard-response","33","784846","0.0-13.0-0.2","SS1619739570391","","","null","","","","","","<p><img src= images/blank.png width =""600"" height = ""600"" style=""position:fixed;top:50%; left:50%; transform: translate(-50%, -50%); border:5px solid black"">","","","","","","","",""
"","47602.01499999862","sequential-stimulus-presentation-old","34","832951","0.0-13.0-1.2","SS1619739570391","trial","","40","500","48102.01499999862","images/stimuli/spore_stims/simple_14_A_a.gif","images/stimuli/spore_stims/simple_05_A_b.gif","forced_long","","2","simple_dissimilar","images/stimuli/spore_stims/simple_05_A_b.gif","","","","",""
"","null","html-keyboard-response","35","834035","0.0-13.0-0.3","SS1619739570391","","","null","","","","","","<p><img src= images/blank.png width =""600"" height = ""600"" style=""position:fixed;top:50%; left:50%; transform: translate(-50%, -50%); border:5px solid black"">","","","","","","","",""
"","155402.42500000016","sequential-stimulus-presentation-old","36","989936","0.0-13.0-1.3","SS1619739570391","trial","","40","500","155902.42500000016","images/stimuli/spore_stims/simple_14_A_a.gif","images/stimuli/spore_stims/simple_05_A_b.gif","forced_long","","2","simple_dissimilar","images/stimuli/spore_stims/simple_05_A_b.gif","","","","",""
"","null","html-keyboard-response","37","990931","0.0-13.0-0.4","SS1619739570391","","","null","","","","","","<p><img src= images/blank.png width =""600"" height = ""600"" style=""position:fixed;top:50%; left:50%; transform: translate(-50%, -50%); border:5px solid black"">","","","","","","","",""
"","71166.5250000006","sequential-stimulus-presentation-old","38","1062598","0.0-13.0-1.4","SS1619739570391","trial","","40","500","71666.5250000006","images/stimuli/spore_stims/simple_14_A_a.gif","images/stimuli/spore_stims/simple_05_A_b.gif","forced_long","","2","simple_dissimilar","images/stimuli/spore_stims/simple_05_A_b.gif","","","","",""
"","8592.755000001518","survey-multi-choice","39","1071193","0.0-14.0","SS1619739570391","math_question","","","","","","","","","","","","{""Q0"":""6""}","[0]","6","",""
"","null","html-keyboard-response","40","1072313","0.0-15.0-0.0","SS1619739570391","","","null","","","","","","<p><img src= images/blank.png width =""600"" height = ""600"" style=""position:fixed;top:50%; left:50%; transform: translate(-50%, -50%); border:5px solid black"">","","","","","","","",""
"","1474.7650000008289","sequential-stimulus-presentation-old","41","1074293","0.0-15.0-1.0","SS1619739570391","trial","","40","500","1974.7650000008289","images/stimuli/spore_stims/simple_12_A_a.gif","images/stimuli/spore_stims/simple_06_A_b.gif","forced_short","","3","simple_dissimilar","images/stimuli/spore_stims/simple_06_A_b.gif","","","","",""
"","null","html-keyboard-response","42","1075271","0.0-15.0-0.1","SS1619739570391","","","null","","","","","","<p><img src= images/blank.png width =""600"" height = ""600"" style=""position:fixed;top:50%; left:50%; transform: translate(-50%, -50%); border:5px solid black"">","","","","","","","",""
"","76078.13999999943","sequential-stimulus-presentation-old","43","1151851","0.0-15.0-1.1","SS1619739570391","trial","","40","500","76578.13999999943","images/stimuli/spore_stims/simple_12_A_a.gif","images/stimuli/spore_stims/simple_06_A_b.gif","forced_short","","3","simple_dissimilar","images/stimuli/spore_stims/simple_06_A_b.gif","","","","",""
"","null","html-keyboard-response","44","1152726","0.0-15.0-0.2","SS1619739570391","","","null","","","","","","<p><img src= images/blank.png width =""600"" height = ""600"" style=""position:fixed;top:50%; left:50%; transform: translate(-50%, -50%); border:5px solid black"">","","","","","","","",""
"","16263.015000000363","sequential-stimulus-presentation-old","45","1169497","0.0-15.0-1.2","SS1619739570391","trial","","40","500","16763.015000000363","images/stimuli/spore_stims/simple_12_A_a.gif","images/stimuli/spore_stims/simple_06_A_b.gif","forced_short","","3","simple_dissimilar","images/stimuli/spore_stims/simple_06_A_b.gif","","","","",""
"","null","html-keyboard-response","46","1170644","0.0-15.0-0.3","SS1619739570391","","","null","","","","","","<p><img src= images/blank.png width =""600"" height = ""600"" style=""position:fixed;top:50%; left:50%; transform: translate(-50%, -50%); border:5px solid black"">","","","","","","","",""
"","10241.389999999199","sequential-stimulus-presentation-old","47","1181392","0.0-15.0-1.3","SS1619739570391","trial","","40","500","10741.389999999199","images/stimuli/spore_stims/simple_12_A_a.gif","images/stimuli/spore_stims/simple_06_A_b.gif","forced_short","","3","simple_dissimilar","images/stimuli/spore_stims/simple_06_A_b.gif","","","","",""
"","3165.814999998547","survey-multi-choice","48","1184562","0.0-16.0","SS1619739570391","math_question","","","","","","","","","","","","{""Q0"":""10""}","[0]","10","",""
"","null","html-keyboard-response","49","1185424","0.0-17.0-0.0","SS1619739570391","","","null","","","","","","<p><img src= images/blank.png width =""600"" height = ""600"" style=""position:fixed;top:50%; left:50%; transform: translate(-50%, -50%); border:5px solid black"">","","","","","","","",""
"","885.4250000005122","sequential-stimulus-presentation-old","50","1186815","0.0-17.0-1.0","SS1619739570391","trial","","40","500","1385.4250000005122","images/stimuli/spore_stims/complex_08_A_b.gif","images/stimuli/spore_stims/complex_19_A_a.gif","forced_short","","4","complex_dissimilar","images/stimuli/spore_stims/complex_19_A_a.gif","","","","",""
"","null","html-keyboard-response","51","1187822","0.0-17.0-0.1","SS1619739570391","","","null","","","","","","<p><img src= images/blank.png width =""600"" height = ""600"" style=""position:fixed;top:50%; left:50%; transform: translate(-50%, -50%); border:5px solid black"">","","","","","","","",""
"","11579.249999998836","sequential-stimulus-presentation-old","52","1199907","0.0-17.0-1.1","SS1619739570391","trial","","40","500","12079.249999998836","images/stimuli/spore_stims/complex_08_A_b.gif","images/stimuli/spore_stims/complex_19_A_a.gif","forced_short","","4","complex_dissimilar","images/stimuli/spore_stims/complex_08_A_b.gif","","","","",""
"","null","html-keyboard-response","53","1200859","0.0-17.0-0.2","SS1619739570391","","","null","","","","","","<p><img src= images/blank.png width =""600"" height = ""600"" style=""position:fixed;top:50%; left:50%; transform: translate(-50%, -50%); border:5px solid black"">","","","","","","","",""
"","10702.42500000121","sequential-stimulus-presentation-old","54","1212067","0.0-17.0-1.2","SS1619739570391","trial","","40","500","11202.42500000121","images/stimuli/spore_stims/complex_08_A_b.gif","images/stimuli/spore_stims/complex_19_A_a.gif","forced_short","","4","complex_dissimilar","images/stimuli/spore_stims/complex_19_A_a.gif","","","","",""
"","null","html-keyboard-response","55","1213067","0.0-17.0-0.3","SS1619739570391","","","null","","","","","","<p><img src= images/blank.png width =""600"" height = ""600"" style=""position:fixed;top:50%; left:50%; transform: translate(-50%, -50%); border:5px solid black"">","","","","","","","",""
"","9941.76999999932","sequential-stimulus-presentation-old","56","1223517","0.0-17.0-1.3","SS1619739570391","trial","","40","500","10441.76999999932","images/stimuli/spore_stims/complex_08_A_b.gif","images/stimuli/spore_stims/complex_19_A_a.gif","forced_short","","4","complex_dissimilar","images/stimuli/spore_stims/complex_19_A_a.gif","","","","",""
"","2590.889999999432","survey-multi-choice","57","1226111","0.0-18.0","SS1619739570391","math_question","","","","","","","","","","","","{""Q0"":""7""}","[0]","7","",""
"","null","html-keyboard-response","58","1227318","0.0-19.0-0.0","SS1619739570391","","","null","","","","","","<p><img src= images/blank.png width =""600"" height = ""600"" style=""position:fixed;top:50%; left:50%; transform: translate(-50%, -50%); border:5px solid black"">","","","","","","","",""
"","5496.00500000082","sequential-stimulus-presentation-old","59","1233323","0.0-19.0-1.0","SS1619739570391","trial","","40","500","5996.00500000082","images/stimuli/spore_stims/complex_07_A_a.gif","images/stimuli/spore_stims/complex_17_A_b.gif","self_paced","","5","complex_dissimilar","images/stimuli/spore_stims/complex_17_A_b.gif","","","","",""
"","null","html-keyboard-response","60","1234408","0.0-19.0-0.1","SS1619739570391","","","null","","","","","","<p><img src= images/blank.png width =""600"" height = ""600"" style=""position:fixed;top:50%; left:50%; transform: translate(-50%, -50%); border:5px solid black"">","","","","","","","",""
"","12043.504999999655","sequential-stimulus-presentation-old","61","1246960","0.0-19.0-1.1","SS1619739570391","trial","","40","500","12543.504999999655","images/stimuli/spore_stims/complex_07_A_a.gif","images/stimuli/spore_stims/complex_17_A_b.gif","self_paced","","5","complex_dissimilar","images/stimuli/spore_stims/complex_17_A_b.gif","","","","",""
"","null","html-keyboard-response","62","1248033","0.0-19.0-0.2","SS1619739570391","","","null","","","","","","<p><img src= images/blank.png width =""600"" height = ""600"" style=""position:fixed;top:50%; left:50%; transform: translate(-50%, -50%); border:5px solid black"">","","","","","","","",""
"","8601.32499999972","sequential-stimulus-presentation-old","63","1257142","0.0-19.0-1.2","SS1619739570391","trial","","40","500","9101.32499999972","images/stimuli/spore_stims/complex_07_A_a.gif","images/stimuli/spore_stims/complex_17_A_b.gif","self_paced","","5","complex_dissimilar","images/stimuli/spore_stims/complex_07_A_a.gif","","","","",""
"","null","html-keyboard-response","64","1258036","0.0-19.0-0.3","SS1619739570391","","","null","","","","","","<p><img src= images/blank.png width =""600"" height = ""600"" style=""position:fixed;top:50%; left:50%; transform: translate(-50%, -50%); border:5px solid black"">","","","","","","","",""
"","16567.66499999864","sequential-stimulus-presentation-old","65","1275108","0.0-19.0-1.3","SS1619739570391","trial","","40","500","17067.66499999864","images/stimuli/spore_stims/complex_07_A_a.gif","images/stimuli/spore_stims/complex_17_A_b.gif","self_paced","","5","complex_dissimilar","images/stimuli/spore_stims/complex_17_A_b.gif","","","","",""
"","null","html-keyboard-response","66","1276378","0.0-19.0-0.4","SS1619739570391","","","null","","","","","","<p><img src= images/blank.png width =""600"" height = ""600"" style=""position:fixed;top:50%; left:50%; transform: translate(-50%, -50%); border:5px solid black"">","","","","","","","",""
"","8297.68499999959","sequential-stimulus-presentation-old","67","1285180","0.0-19.0-1.4","SS1619739570391","trial","","40","500","8797.68499999959","images/stimuli/spore_stims/complex_07_A_a.gif","images/stimuli/spore_stims/complex_17_A_b.gif","self_paced","","5","complex_dissimilar","images/stimuli/spore_stims/complex_07_A_a.gif","","","","",""
"","2770.6250000009313","survey-multi-choice","68","1287954","0.0-20.0","SS1619739570391","math_question","","","","","","","","","","","","{""Q0"":""10""}","[0]","10","",""
"","null","html-keyboard-response","69","1289037","0.0-21.0-0.0","SS1619739570391","","","null","","","","","","<p><img src= images/blank.png width =""600"" height = ""600"" style=""position:fixed;top:50%; left:50%; transform: translate(-50%, -50%); border:5px solid black"">","","","","","","","",""
"","5835.140000001062","sequential-stimulus-presentation-old","70","1295385","0.0-21.0-1.0","SS1619739570391","trial","","40","500","6335.140000001062","images/stimuli/spore_stims/simple_19_A_a.gif","images/stimuli/spore_stims/simple_10_A_b.gif","self_paced","","6","simple_dissimilar","images/stimuli/spore_stims/simple_10_A_b.gif","","","","",""
"","null","html-keyboard-response","71","1296468","0.0-21.0-0.1","SS1619739570391","","","null","","","","","","<p><img src= images/blank.png width =""600"" height = ""600"" style=""position:fixed;top:50%; left:50%; transform: translate(-50%, -50%); border:5px solid black"">","","","","","","","",""
"","3140.5649999997113","sequential-stimulus-presentation-old","72","1300118","0.0-21.0-1.1","SS1619739570391","trial","","40","500","3640.5649999997113","images/stimuli/spore_stims/simple_19_A_a.gif","images/stimuli/spore_stims/simple_10_A_b.gif","self_paced","","6","simple_dissimilar","images/stimuli/spore_stims/simple_10_A_b.gif","","","","",""
"","null","html-keyboard-response","73","1301403","0.0-21.0-0.2","SS1619739570391","","","null","","","","","","<p><img src= images/blank.png width =""600"" height = ""600"" style=""position:fixed;top:50%; left:50%; transform: translate(-50%, -50%); border:5px solid black"">","","","","","","","",""
"","3987.0850000006612","sequential-stimulus-presentation-old","74","1305897","0.0-21.0-1.2","SS1619739570391","trial","","40","500","4487.085000000661","images/stimuli/spore_stims/simple_19_A_a.gif","images/stimuli/spore_stims/simple_10_A_b.gif","self_paced","","6","simple_dissimilar","images/stimuli/spore_stims/simple_19_A_a.gif","","","","",""
"","null","html-keyboard-response","75","1306772","0.0-21.0-0.3","SS1619739570391","","","null","","","","","","<p><img src= images/blank.png width =""600"" height = ""600"" style=""position:fixed;top:50%; left:50%; transform: translate(-50%, -50%); border:5px solid black"">","","","","","","","",""
"","2748.274999999907","sequential-stimulus-presentation-old","76","1310024","0.0-21.0-1.3","SS1619739570391","trial","","40","500","3248.274999999907","images/stimuli/spore_stims/simple_19_A_a.gif","images/stimuli/spore_stims/simple_10_A_b.gif","self_paced","","6","simple_dissimilar","images/stimuli/spore_stims/simple_10_A_b.gif","","","","",""
"","null","html-keyboard-response","77","1310857","0.0-21.0-0.4","SS1619739570391","","","null","","","","","","<p><img src= images/blank.png width =""600"" height = ""600"" style=""position:fixed;top:50%; left:50%; transform: translate(-50%, -50%); border:5px solid black"">","","","","","","","",""
"","3885.0799999998417","sequential-stimulus-presentation-old","78","1315249","0.0-21.0-1.4","SS1619739570391","trial","","40","500","4385.079999999842","images/stimuli/spore_stims/simple_19_A_a.gif","images/stimuli/spore_stims/simple_10_A_b.gif","self_paced","","6","simple_dissimilar","images/stimuli/spore_stims/simple_10_A_b.gif","","","","",""
"","2611.984999999637","survey-multi-choice","79","1317864","0.0-22.0","SS1619739570391","math_question","","","","","","","","","","","","{""Q0"":""9""}","[0]","9","",""
"","null","html-keyboard-response","80","1319070","0.0-23.0-0.0","SS1619739570391","","","null","","","","","","<p><img src= images/blank.png width =""600"" height = ""600"" style=""position:fixed;top:50%; left:50%; transform: translate(-50%, -50%); border:5px solid black"">","","","","","","","",""
"","842.8000000002794","sequential-stimulus-presentation-old","81","1334922","0.0-23.0-1.0","SS1619739570391","trial","","40","500","1342.8000000002794","images/stimuli/spore_stims/simple_13_A_b.gif","images/stimuli/spore_stims/simple_09_A_a.gif","forced_long","","7","simple_dissimilar","images/stimuli/spore_stims/simple_09_A_a.gif","","","","",""
"","null","html-keyboard-response","82","1335753","0.0-23.0-0.1","SS1619739570391","","","null","","","","","","<p><img src= images/blank.png width =""600"" height = ""600"" style=""position:fixed;top:50%; left:50%; transform: translate(-50%, -50%); border:5px solid black"">","","","","","","","",""
"","6051.884999999078","sequential-stimulus-presentation-old","83","1342311","0.0-23.0-1.1","SS1619739570391","trial","","40","500","6551.884999999078","images/stimuli/spore_stims/simple_13_A_b.gif","images/stimuli/spore_stims/simple_09_A_a.gif","forced_long","","7","simple_dissimilar","images/stimuli/spore_stims/simple_09_A_a.gif","","","","",""
"","null","html-keyboard-response","84","1343587","0.0-23.0-0.2","SS1619739570391","","","null","","","","","","<p><img src= images/blank.png width =""600"" height = ""600"" style=""position:fixed;top:50%; left:50%; transform: translate(-50%, -50%); border:5px solid black"">","","","","","","","",""
"","6104.7250000010245","sequential-stimulus-presentation-old","85","1350202","0.0-23.0-1.2","SS1619739570391","trial","","40","500","6604.7250000010245","images/stimuli/spore_stims/simple_13_A_b.gif","images/stimuli/spore_stims/simple_09_A_a.gif","forced_long","","7","simple_dissimilar","images/stimuli/spore_stims/simple_09_A_a.gif","","","","",""
"","null","html-keyboard-response","86","1351157","0.0-23.0-0.3","SS1619739570391","","","null","","","","","","<p><img src= images/blank.png width =""600"" height = ""600"" style=""position:fixed;top:50%; left:50%; transform: translate(-50%, -50%); border:5px solid black"">","","","","","","","",""
"","5803.920000000391","sequential-stimulus-presentation-old","87","1357468","0.0-23.0-1.3","SS1619739570391","trial","","40","500","6303.920000000391","images/stimuli/spore_stims/simple_13_A_b.gif","images/stimuli/spore_stims/simple_09_A_a.gif","forced_long","","7","simple_dissimilar","images/stimuli/spore_stims/simple_09_A_a.gif","","","","",""
"","null","html-keyboard-response","88","1358723","0.0-23.0-0.4","SS1619739570391","","","null","","","","","","<p><img src= images/blank.png width =""600"" height = ""600"" style=""position:fixed;top:50%; left:50%; transform: translate(-50%, -50%); border:5px solid black"">","","","","","","","",""
"","7062.43499999959","sequential-stimulus-presentation-old","89","1366290","0.0-23.0-1.4","SS1619739570391","trial","","40","500","7562.43499999959","images/stimuli/spore_stims/simple_13_A_b.gif","images/stimuli/spore_stims/simple_09_A_a.gif","forced_long","","7","simple_dissimilar","images/stimuli/spore_stims/simple_09_A_a.gif","","","","",""
"","null","html-keyboard-response","90","1367458","0.0-23.0-0.5","SS1619739570391","","","null","","","","","","<p><img src= images/blank.png width =""600"" height = ""600"" style=""position:fixed;top:50%; left:50%; transform: translate(-50%, -50%); border:5px solid black"">","","","","","","","",""
"","5833.99500000081","sequential-stimulus-presentation-old","91","1373797","0.0-23.0-1.5","SS1619739570391","trial","","40","500","6333.99500000081","images/stimuli/spore_stims/simple_13_A_b.gif","images/stimuli/spore_stims/simple_09_A_a.gif","forced_long","","7","simple_dissimilar","images/stimuli/spore_stims/simple_13_A_b.gif","","","","",""
"","6355.724999999395","survey-multi-choice","92","1380156","0.0-24.0","SS1619739570391","math_question","","","","","","","","","","","","{""Q0"":""13""}","[0]","13","",""
"","null","html-keyboard-response","93","1381164","0.0-25.0-0.0","SS1619739570391","","","null","","","","","","<p><img src= images/blank.png width =""600"" height = ""600"" style=""position:fixed;top:50%; left:50%; transform: translate(-50%, -50%); border:5px solid black"">","","","","","","","",""
"","1233.524999999674","sequential-stimulus-presentation-old","94","1382904","0.0-25.0-1.0","SS1619739570391","trial","","40","500","1733.524999999674","images/stimuli/spore_stims/simple_18_A_a.gif","images/stimuli/spore_stims/simple_20_A_b.gif","forced_short","","8","simple_dissimilar","images/stimuli/spore_stims/simple_20_A_b.gif","","","","",""
"","null","html-keyboard-response","95","1383978","0.0-25.0-0.1","SS1619739570391","","","null","","","","","","<p><img src= images/blank.png width =""600"" height = ""600"" style=""position:fixed;top:50%; left:50%; transform: translate(-50%, -50%); border:5px solid black"">","","","","","","","",""
"","5436.199999998324","sequential-stimulus-presentation-old","96","1389920","0.0-25.0-1.1","SS1619739570391","trial","","40","500","5936.199999998324","images/stimuli/spore_stims/simple_18_A_a.gif","images/stimuli/spore_stims/simple_20_A_b.gif","forced_short","","8","simple_dissimilar","images/stimuli/spore_stims/simple_20_A_b.gif","","","","",""
"","null","html-keyboard-response","97","1390839","0.0-25.0-0.2","SS1619739570391","","","null","","","","","","<p><img src= images/blank.png width =""600"" height = ""600"" style=""position:fixed;top:50%; left:50%; transform: translate(-50%, -50%); border:5px solid black"">","","","","","","","",""
"","5098.135000000009","sequential-stimulus-presentation-old","98","1396443","0.0-25.0-1.2","SS1619739570391","trial","","40","500","5598.135000000009","images/stimuli/spore_stims/simple_18_A_a.gif","images/stimuli/spore_stims/simple_20_A_b.gif","forced_short","","8","simple_dissimilar","images/stimuli/spore_stims/simple_20_A_b.gif","","","","",""
"","null","html-keyboard-response","99","1397508","0.0-25.0-0.3","SS1619739570391","","","null","","","","","","<p><img src= images/blank.png width =""600"" height = ""600"" style=""position:fixed;top:50%; left:50%; transform: translate(-50%, -50%); border:5px solid black"">","","","","","","","",""
"","6814.075000000186","sequential-stimulus-presentation-old","100","1404831","0.0-25.0-1.3","SS1619739570391","trial","","40","500","7314.075000000186","images/stimuli/spore_stims/simple_18_A_a.gif","images/stimuli/spore_stims/simple_20_A_b.gif","forced_short","","8","simple_dissimilar","images/stimuli/spore_stims/simple_20_A_b.gif","","","","",""
"","null","html-keyboard-response","101","1406047","0.0-25.0-0.4","SS1619739570391","","","null","","","","","","<p><img src= images/blank.png width =""600"" height = ""600"" style=""position:fixed;top:50%; left:50%; transform: translate(-50%, -50%); border:5px solid black"">","","","","","","","",""
"","4835.23000000068","sequential-stimulus-presentation-old","102","1411394","0.0-25.0-1.4","SS1619739570391","trial","","40","500","5335.23000000068","images/stimuli/spore_stims/simple_18_A_a.gif","images/stimuli/spore_stims/simple_20_A_b.gif","forced_short","","8","simple_dissimilar","images/stimuli/spore_stims/simple_20_A_b.gif","","","","",""
"","null","html-keyboard-response","103","1412375","0.0-25.0-0.5","SS1619739570391","","","null","","","","","","<p><img src= images/blank.png width =""600"" height = ""600"" style=""position:fixed;top:50%; left:50%; transform: translate(-50%, -50%); border:5px solid black"">","","","","","","","",""
"","5365.539999998873","sequential-stimulus-presentation-old","104","1418251","0.0-25.0-1.5","SS1619739570391","trial","","40","500","5865.539999998873","images/stimuli/spore_stims/simple_18_A_a.gif","images/stimuli/spore_stims/simple_20_A_b.gif","forced_short","","8","simple_dissimilar","images/stimuli/spore_stims/simple_20_A_b.gif","","","","",""
"","2570.10500000068","survey-multi-choice","105","1420825","0.0-26.0","SS1619739570391","math_question","","","","","","","","","","","","{""Q0"":""3""}","[0]","3","",""
"","null","html-keyboard-response","106","1421986","0.0-27.0-0.0","SS1619739570391","","","null","","","","","","<p><img src= images/blank.png width =""600"" height = ""600"" style=""position:fixed;top:50%; left:50%; transform: translate(-50%, -50%); border:5px solid black"">","","","","","","","",""
"","529.3450000006706","sequential-stimulus-presentation-old","107","1437523","0.0-27.0-1.0","SS1619739570391","trial","","40","500","1029.3450000006706","images/stimuli/spore_stims/complex_12_A_a.gif","images/stimuli/spore_stims/complex_03_A_b.gif","forced_long","","9","complex_dissimilar","images/stimuli/spore_stims/complex_03_A_b.gif","","","","",""
"","null","html-keyboard-response","108","1438639","0.0-27.0-0.1","SS1619739570391","","","null","","","","","","<p><img src= images/blank.png width =""600"" height = ""600"" style=""position:fixed;top:50%; left:50%; transform: translate(-50%, -50%); border:5px solid black"">","","","","","","","",""
"","3210.439999999013","sequential-stimulus-presentation-old","109","1442354","0.0-27.0-1.1","SS1619739570391","trial","","40","500","3710.439999999013","images/stimuli/spore_stims/complex_12_A_a.gif","images/stimuli/spore_stims/complex_03_A_b.gif","forced_long","","9","complex_dissimilar","images/stimuli/spore_stims/complex_12_A_a.gif","","","","",""
"","null","html-keyboard-response","110","1443436","0.0-27.0-0.2","SS1619739570391","","","null","","","","","","<p><img src= images/blank.png width =""600"" height = ""600"" style=""position:fixed;top:50%; left:50%; transform: translate(-50%, -50%); border:5px solid black"">","","","","","","","",""
"","7401.239999999292","sequential-stimulus-presentation-old","111","1451348","0.0-27.0-1.2","SS1619739570391","trial","","40","500","7901.239999999292","images/stimuli/spore_stims/complex_12_A_a.gif","images/stimuli/spore_stims/complex_03_A_b.gif","forced_long","","9","complex_dissimilar","images/stimuli/spore_stims/complex_03_A_b.gif","","","","",""
"","null","html-keyboard-response","112","1452209","0.0-27.0-0.3","SS1619739570391","","","null","","","","","","<p><img src= images/blank.png width =""600"" height = ""600"" style=""position:fixed;top:50%; left:50%; transform: translate(-50%, -50%); border:5px solid black"">","","","","","","","",""
"","8037.1450000002515","sequential-stimulus-presentation-old","113","1460754","0.0-27.0-1.3","SS1619739570391","trial","","40","500","8537.145000000251","images/stimuli/spore_stims/complex_12_A_a.gif","images/stimuli/spore_stims/complex_03_A_b.gif","forced_long","","9","complex_dissimilar","images/stimuli/spore_stims/complex_12_A_a.gif","","","","",""
"","null","html-keyboard-response","114","1461911","0.0-27.0-0.4","SS1619739570391","","","null","","","","","","<p><img src= images/blank.png width =""600"" height = ""600"" style=""position:fixed;top:50%; left:50%; transform: translate(-50%, -50%); border:5px solid black"">","","","","","","","",""
"","16395.52000000002","sequential-stimulus-presentation-old","115","1478814","0.0-27.0-1.4","SS1619739570391","trial","","40","500","16895.52000000002","images/stimuli/spore_stims/complex_12_A_a.gif","images/stimuli/spore_stims/complex_03_A_b.gif","forced_long","","9","complex_dissimilar","images/stimuli/spore_stims/complex_03_A_b.gif","","","","",""
"","null","html-keyboard-response","116","1479775","0.0-27.0-0.5","SS1619739570391","","","null","","","","","","<p><img src= images/blank.png width =""600"" height = ""600"" style=""position:fixed;top:50%; left:50%; transform: translate(-50%, -50%); border:5px solid black"">","","","","","","","",""
"","23436.29999999958","sequential-stimulus-presentation-old","117","1503721","0.0-27.0-1.5","SS1619739570391","trial","","40","500","23936.29999999958","images/stimuli/spore_stims/complex_12_A_a.gif","images/stimuli/spore_stims/complex_03_A_b.gif","forced_long","","9","complex_dissimilar","images/stimuli/spore_stims/complex_03_A_b.gif","","","","",""
"","3942.9999999993015","survey-multi-choice","118","1507667","0.0-28.0","SS1619739570391","math_question","","","","","","","","","","","","{""Q0"":""6""}","[0]","6","",""
"","null","html-keyboard-response","119","1508640","0.0-29.0-0.0","SS1619739570391","","","null","","","","","","<p><img src= images/blank.png width =""600"" height = ""600"" style=""position:fixed;top:50%; left:50%; transform: translate(-50%, -50%); border:5px solid black"">","","","","","","","",""
"","2956.234999999637","sequential-stimulus-presentation-old","120","1512105","0.0-29.0-1.0","SS1619739570391","trial","","40","500","3456.234999999637","images/stimuli/spore_stims/simple_19_A_b.gif","images/stimuli/spore_stims/simple_04_A_a.gif","self_paced","","10","simple_dissimilar","images/stimuli/spore_stims/simple_04_A_a.gif","","","","",""
"","null","html-keyboard-response","121","1512912","0.0-29.0-0.1","SS1619739570391","","","null","","","","","","<p><img src= images/blank.png width =""600"" height = ""600"" style=""position:fixed;top:50%; left:50%; transform: translate(-50%, -50%); border:5px solid black"">","","","","","","","",""
"","4658.605000000447","sequential-stimulus-presentation-old","122","1518079","0.0-29.0-1.1","SS1619739570391","trial","","40","500","5158.605000000447","images/stimuli/spore_stims/simple_19_A_b.gif","images/stimuli/spore_stims/simple_04_A_a.gif","self_paced","","10","simple_dissimilar","images/stimuli/spore_stims/simple_04_A_a.gif","","","","",""
"","null","html-keyboard-response","123","1519216","0.0-29.0-0.2","SS1619739570391","","","null","","","","","","<p><img src= images/blank.png width =""600"" height = ""600"" style=""position:fixed;top:50%; left:50%; transform: translate(-50%, -50%); border:5px solid black"">","","","","","","","",""
"","3184.3950000002515","sequential-stimulus-presentation-old","124","1522911","0.0-29.0-1.2","SS1619739570391","trial","","40","500","3684.3950000002515","images/stimuli/spore_stims/simple_19_A_b.gif","images/stimuli/spore_stims/simple_04_A_a.gif","self_paced","","10","simple_dissimilar","images/stimuli/spore_stims/simple_04_A_a.gif","","","","",""
"","null","html-keyboard-response","125","1524045","0.0-29.0-0.3","SS1619739570391","","","null","","","","","","<p><img src= images/blank.png width =""600"" height = ""600"" style=""position:fixed;top:50%; left:50%; transform: translate(-50%, -50%); border:5px solid black"">","","","","","","","",""
"","4286.614999999292","sequential-stimulus-presentation-old","126","1528838","0.0-29.0-1.3","SS1619739570391","trial","","40","500","4786.614999999292","images/stimuli/spore_stims/simple_19_A_b.gif","images/stimuli/spore_stims/simple_04_A_a.gif","self_paced","","10","simple_dissimilar","images/stimuli/spore_stims/simple_19_A_b.gif","","","","",""
"","null","html-keyboard-response","127","1529852","0.0-29.0-0.4","SS1619739570391","","","null","","","","","","<p><img src= images/blank.png width =""600"" height = ""600"" style=""position:fixed;top:50%; left:50%; transform: translate(-50%, -50%); border:5px solid black"">","","","","","","","",""
"","4179.64000000013","sequential-stimulus-presentation-old","128","1534541","0.0-29.0-1.4","SS1619739570391","trial","","40","500","4679.64000000013","images/stimuli/spore_stims/simple_19_A_b.gif","images/stimuli/spore_stims/simple_04_A_a.gif","self_paced","","10","simple_dissimilar","images/stimuli/spore_stims/simple_04_A_a.gif","","","","",""
"","null","html-keyboard-response","129","1535815","0.0-29.0-0.5","SS1619739570391","","","null","","","","","","<p><img src= images/blank.png width =""600"" height = ""600"" style=""position:fixed;top:50%; left:50%; transform: translate(-50%, -50%); border:5px solid black"">","","","","","","","",""
"","4226.725000000559","sequential-stimulus-presentation-old","130","1540550","0.0-29.0-1.5","SS1619739570391","trial","","40","500","4726.725000000559","images/stimuli/spore_stims/simple_19_A_b.gif","images/stimuli/spore_stims/simple_04_A_a.gif","self_paced","","10","simple_dissimilar","images/stimuli/spore_stims/simple_04_A_a.gif","","","","",""
"","3062.0249999992084","survey-multi-choice","131","1543617","0.0-30.0","SS1619739570391","math_question","","","","","","","","","","","","{""Q0"":""12""}","[0]","12","",""
"","null","html-keyboard-response","132","1544450","0.0-31.0-0.0","SS1619739570391","","","null","","","","","","<p><img src= images/blank.png width =""600"" height = ""600"" style=""position:fixed;top:50%; left:50%; transform: translate(-50%, -50%); border:5px solid black"">","","","","","","","",""
"","532.8599999991711","sequential-stimulus-presentation-old","133","1559992","0.0-31.0-1.0","SS1619739570391","trial","","40","500","1032.8599999991711","images/stimuli/spore_stims/complex_13_A_b.gif","images/stimuli/spore_stims/complex_02_A_a.gif","forced_long","","11","complex_dissimilar","images/stimuli/spore_stims/complex_02_A_a.gif","","","","",""
"","null","html-keyboard-response","134","1561272","0.0-31.0-0.1","SS1619739570391","","","null","","","","","","<p><img src= images/blank.png width =""600"" height = ""600"" style=""position:fixed;top:50%; left:50%; transform: translate(-50%, -50%); border:5px solid black"">","","","","","","","",""
"","49113.26999999792","sequential-stimulus-presentation-old","135","1610889","0.0-31.0-1.1","SS1619739570391","trial","","40","500","49613.26999999792","images/stimuli/spore_stims/complex_13_A_b.gif","images/stimuli/spore_stims/complex_02_A_a.gif","forced_long","","11","complex_dissimilar","images/stimuli/spore_stims/complex_02_A_a.gif","","","","",""
"","null","html-keyboard-response","136","1611944","0.0-31.0-0.2","SS1619739570391","","","null","","","","","","<p><img src= images/blank.png width =""600"" height = ""600"" style=""position:fixed;top:50%; left:50%; transform: translate(-50%, -50%); border:5px solid black"">","","","","","","","",""
"","8659.045000000391","sequential-stimulus-presentation-old","137","1621112","0.0-31.0-1.2","SS1619739570391","trial","","40","500","9159.045000000391","images/stimuli/spore_stims/complex_13_A_b.gif","images/stimuli/spore_stims/complex_02_A_a.gif","forced_long","","11","complex_dissimilar","images/stimuli/spore_stims/complex_13_A_b.gif","","","","",""
"","null","html-keyboard-response","138","1622253","0.0-31.0-0.3","SS1619739570391","","","null","","","","","","<p><img src= images/blank.png width =""600"" height = ""600"" style=""position:fixed;top:50%; left:50%; transform: translate(-50%, -50%); border:5px solid black"">","","","","","","","",""
"","4726.5000000006985","sequential-stimulus-presentation-old","139","1627490","0.0-31.0-1.3","SS1619739570391","trial","","40","500","5226.5000000006985","images/stimuli/spore_stims/complex_13_A_b.gif","images/stimuli/spore_stims/complex_02_A_a.gif","forced_long","","11","complex_dissimilar","images/stimuli/spore_stims/complex_02_A_a.gif","","","","",""
"[{""page_index"":0,""viewing_time"":7628.2400000016205}]","7628.605000001611","instructions","140","1635122","0.0-32.0","SS1619739570391","instructions","","","","","","","","","","","","","","","",""
"","14131.239999998827","survey-likert","141","1649258","0.0-33.0","SS1619739570391","similarity_question","","","","","","","","","","","","{""Q0"":4}","[0]","","images/stimuli/spore_stims/simple_14_A_a.gif","images/stimuli/spore_stims/simple_05_A_b.gif"
"","7104.429999999469","survey-likert","142","1656369","0.0-34.0","SS1619739570391","similarity_question","","","","","","","","","","","","{""Q0"":5}","[0]","","images/stimuli/spore_stims/simple_19_A_a.gif","images/stimuli/spore_stims/simple_10_A_b.gif"
"","6411.280000000261","survey-likert","143","1662786","0.0-35.0","SS1619739570391","similarity_question","","","","","","","","","","","","{""Q0"":2}","[0]","","images/stimuli/spore_stims/complex_19_A_a.gif","images/stimuli/spore_stims/complex_08_A_b.gif"
"","6824.665000000037","survey-likert","144","1669617","0.0-36.0","SS1619739570391","similarity_question","","","","","","","","","","","","{""Q0"":0}","[0]","","images/stimuli/spore_stims/complex_06_A_b.gif","images/stimuli/spore_stims/complex_05_A_a.gif"
"","3952.8400000017136","survey-likert","145","1673576","0.0-37.0","SS1619739570391","similarity_question","","","","","","","","","","","","{""Q0"":4}","[0]","","images/stimuli/spore_stims/simple_18_A_a.gif","images/stimuli/spore_stims/simple_20_A_b.gif"
"","2561.830000002403","survey-likert","146","1676144","0.0-38.0","SS1619739570391","similarity_question","","","","","","","","","","","","{""Q0"":5}","[0]","","images/stimuli/spore_stims/simple_09_A_a.gif","images/stimuli/spore_stims/simple_13_A_b.gif"
"","3057.8050000004005","survey-likert","147","1679208","0.0-39.0","SS1619739570391","similarity_question","","","","","","","","","","","","{""Q0"":5}","[0]","","images/stimuli/spore_stims/simple_12_A_a.gif","images/stimuli/spore_stims/simple_06_A_b.gif"
"","5416.629999999655","survey-likert","148","1684631","0.0-40.0","SS1619739570391","similarity_question","","","","","","","","","","","","{""Q0"":0}","[0]","","images/stimuli/spore_stims/complex_13_A_b.gif","images/stimuli/spore_stims/complex_02_A_a.gif"
"","5329.624999998603","survey-likert","149","1689967","0.0-41.0","SS1619739570391","similarity_question","","","","","","","","","","","","{""Q0"":2}","[0]","","images/stimuli/spore_stims/complex_12_A_a.gif","images/stimuli/spore_stims/complex_03_A_b.gif"
"","4098.3200000009965","survey-likert","150","1694071","0.0-42.0","SS1619739570391","similarity_question","","","","","","","","","","","","{""Q0"":4}","[0]","","images/stimuli/spore_stims/complex_20_A_b.gif","images/stimuli/spore_stims/complex_04_A_a.gif"
"","3503.7749999973457","survey-likert","151","1697582","0.0-43.0","SS1619739570391","similarity_question","","","","","","","","","","","","{""Q0"":3}","[0]","","images/stimuli/spore_stims/simple_19_A_b.gif","images/stimuli/spore_stims/simple_04_A_a.gif"
"","8640.714999997756","survey-likert","152","1706228","0.0-44.0","SS1619739570391","similarity_question","","","","","","","","","","","","{""Q0"":1}","[0]","","images/stimuli/spore_stims/complex_17_A_b.gif","images/stimuli/spore_stims/complex_07_A_a.gif"
"[{""page_index"":0,""viewing_time"":7850.115000001155}]","7850.569999998901","instructions","153","1714085","0.0-45.0","SS1619739570391","instructions","","","","","","","","","","","","","","","",""
"","7057.75","survey-likert","154","1721148","0.0-46.0","SS1619739570391","","","","","","","","","images/stimuli/spore_stims/complex_20_A_b.gif","","","","{""Q0"":4}","[0]","","",""
"","3322.6100000031292","survey-likert","155","1724476","0.0-47.0","SS1619739570391","","","","","","","","","images/stimuli/spore_stims/complex_12_A_a.gif","","","","{""Q0"":4}","[0]","","",""
"","4416.874999999069","survey-likert","156","1728900","0.0-48.0","SS1619739570391","","","","","","","","","images/stimuli/spore_stims/simple_09_A_a.gif","","","","{""Q0"":0}","[0]","","",""
"","3307.25000000163","survey-likert","157","1732212","0.0-49.0","SS1619739570391","","","","","","","","","images/stimuli/spore_stims/simple_20_A_b.gif","","","","{""Q0"":1}","[0]","","",""
"","2320.4650000005495","survey-likert","158","1734540","0.0-50.0","SS1619739570391","","","","","","","","","images/stimuli/spore_stims/simple_14_A_a.gif","","","","{""Q0"":1}","[0]","","",""
"","5167.219999999274","survey-likert","159","1739715","0.0-51.0","SS1619739570391","","","","","","","","","images/stimuli/spore_stims/complex_07_A_a.gif","","","","{""Q0"":6}","[0]","","",""
"","2643.465000001015","survey-likert","160","1742367","0.0-52.0","SS1619739570391","","","","","","","","","images/stimuli/spore_stims/simple_06_A_b.gif","","","","{""Q0"":0}","[0]","","",""
"","2118.2299999999814","survey-likert","161","1744492","0.0-53.0","SS1619739570391","","","","","","","","","images/stimuli/spore_stims/simple_19_A_a.gif","","","","{""Q0"":1}","[0]","","",""
"","4929.6450000002515","survey-likert","162","1749428","0.0-54.0","SS1619739570391","","","","","","","","","images/stimuli/spore_stims/complex_08_A_b.gif","","","","{""Q0"":5}","[0]","","",""
"","2872.5249999987427","survey-likert","163","1752307","0.0-55.0","SS1619739570391","","","","","","","","","images/stimuli/spore_stims/simple_04_A_a.gif","","","","{""Q0"":0}","[0]","","",""
"","2255.554999999702","survey-likert","164","1754571","0.0-56.0","SS1619739570391","","","","","","","","","images/stimuli/spore_stims/complex_13_A_b.gif","","","","{""Q0"":5}","[0]","","",""
"","3585.094999998575","survey-likert","165","1758162","0.0-57.0","SS1619739570391","","","","","","","","","images/stimuli/spore_stims/complex_05_A_a.gif","","","","{""Q0"":4}","[0]","","",""
"[{""page_index"":0,""viewing_time"":2776.740000001155}]","2777.0650000020396","instructions","166","1760947","0.0-58.0","SS1619739570391","instructions","","","","","","","","","","","","","","","",""
"","3022.840000001481","demog-age","167","1763978","0.0-59.0","SS1619739570391","","","","","","","","","","","","","{""age"":""20""}","","","",""
"","2690.8399999993853","demog-ethnic-US","168","1766683","0.0-60.0","SS1619739570391","","","","","","","","","","","","","{""ethnicity"":[""Hispanic or Latino""]}","[0]","","",""
"","34087.61999999825","demog-gender-and-education","169","1800776","0.0-61.0","SS1619739570391","","","","","","","","","","","","","{""gender"":""Female"",""education"":""High school diploma""}","[0,1]","","",""
"","13830.625000002328","survey-text","170","1814614","0.0-62.0","SS1619739570391","feedback","","","","","","","","","","","","{""Q0"":""Nope, it was not laggy at all""}","","","",""
"[{""page_index"":0,""viewing_time"":2298.674999998184}]","2299.134999997448","instructions","171","1816918","0.0-63.0","SS1619739570391","instructions","","","","","","","","","","","","","","","",""
