"view_history","rt","trial_type","trial_index","time_elapsed","internal_node_id","subject","stimulus_type","trial_stimulus","key_press","minimum_viewing_duration","trial_looking_time","block_deviant","block_background","exposure_type","stimulus","block_number","block_type","stimulus_displayed","responses","question_order","math_correct_answer","stimulus_left","stimulus_right"
"[{""page_index"":0,""viewing_time"":296513.3150000038}]","296513.8250000018","instructions","0","296515","0.0-0.0","SS1619739886734","","","","","","","","","","","","","","","","",""
"[{""page_index"":0,""viewing_time"":131680.75999998837},{""page_index"":1,""viewing_time"":7748.045000000275}]","139428.94499999238","instructions","1","437945","0.0-1.0","SS1619739886734","instructions","","","","","","","","","","","","","","","",""
"","8791.610000000219","sequential-stimulus-presentation-old","2","447240","0.0-2.0","SS1619739886734","","","40","500","9291.610000000219","null","null","self_paced","","","","","","","","",""
"","12889.835000009043","sequential-stimulus-presentation-old","3","460632","0.0-3.0","SS1619739886734","","","40","500","13389.835000009043","null","null","self_paced","","","","","","","","",""
"[{""page_index"":0,""viewing_time"":347352.81500000565}]","347352.9950000084","instructions","4","807984","0.0-4.0","SS1619739886734","instructions","","","","","","","","","","","","","","","",""
"","7173.555000001215","sequential-stimulus-presentation-old","5","830159","0.0-5.0","SS1619739886734","","","40","500","7673.555000001215","null","null","forced_long","","","","","","","","",""
"","7873.905000000377","sequential-stimulus-presentation-old","6","838534","0.0-6.0","SS1619739886734","","","40","500","8373.905000000377","null","null","forced_long","","","","","","","","",""
"[{""page_index"":0,""viewing_time"":18945.424999998068}]","18945.569999996223","instructions","7","857481","0.0-7.0","SS1619739886734","instructions","","","","","","","","","","","","","","","",""
"[{""page_index"":0,""viewing_time"":18540.020000000368},{""page_index"":1,""viewing_time"":16106.120000011288},{""page_index"":2,""viewing_time"":11003.264999992098},{""page_index"":3,""viewing_time"":2540.8449999958975},{""page_index"":4,""viewing_time"":1510.0100000126986}]","49700.41499999934","instructions","8","907182","0.0-8.0","SS1619739886734","instructions","","","","","","","","","","","","","","","",""
"","null","html-keyboard-response","9","908165","0.0-9.0-0.0","SS1619739886734","","","null","","","","","","<p><img src= images/blank.png width =""600"" height = ""600"" style=""position:fixed;top:50%; left:50%; transform: translate(-50%, -50%); border:5px solid black"">","","","","","","","",""
"","52139.66499999515","sequential-stimulus-presentation-old","10","960807","0.0-9.0-1.0","SS1619739886734","trial","","40","500","52639.66499999515","images/stimuli/spore_stims/complex_12_A_a.gif","images/stimuli/spore_stims/complex_04_A_b.gif","self_paced","","0","complex_dissimilar","images/stimuli/spore_stims/complex_04_A_b.gif","","","","",""
"","null","html-keyboard-response","11","961886","0.0-9.0-0.1","SS1619739886734","","","null","","","","","","<p><img src= images/blank.png width =""600"" height = ""600"" style=""position:fixed;top:50%; left:50%; transform: translate(-50%, -50%); border:5px solid black"">","","","","","","","",""
"","6562.2199999925215","sequential-stimulus-presentation-old","12","968950","0.0-9.0-1.1","SS1619739886734","trial","","40","500","7062.2199999925215","images/stimuli/spore_stims/complex_12_A_a.gif","images/stimuli/spore_stims/complex_04_A_b.gif","self_paced","","0","complex_dissimilar","images/stimuli/spore_stims/complex_12_A_a.gif","","","","",""
"","null","html-keyboard-response","13","969868","0.0-9.0-0.2","SS1619739886734","","","null","","","","","","<p><img src= images/blank.png width =""600"" height = ""600"" style=""position:fixed;top:50%; left:50%; transform: translate(-50%, -50%); border:5px solid black"">","","","","","","","",""
"","3786.9300000020303","sequential-stimulus-presentation-old","14","974158","0.0-9.0-1.2","SS1619739886734","trial","","40","500","4286.93000000203","images/stimuli/spore_stims/complex_12_A_a.gif","images/stimuli/spore_stims/complex_04_A_b.gif","self_paced","","0","complex_dissimilar","images/stimuli/spore_stims/complex_12_A_a.gif","","","","",""
"","null","html-keyboard-response","15","975138","0.0-9.0-0.3","SS1619739886734","","","null","","","","","","<p><img src= images/blank.png width =""600"" height = ""600"" style=""position:fixed;top:50%; left:50%; transform: translate(-50%, -50%); border:5px solid black"">","","","","","","","",""
"","4245.899999994435","sequential-stimulus-presentation-old","16","979886","0.0-9.0-1.3","SS1619739886734","trial","","40","500","4745.899999994435","images/stimuli/spore_stims/complex_12_A_a.gif","images/stimuli/spore_stims/complex_04_A_b.gif","self_paced","","0","complex_dissimilar","images/stimuli/spore_stims/complex_04_A_b.gif","","","","",""
"","null","html-keyboard-response","17","981142","0.0-9.0-0.4","SS1619739886734","","","null","","","","","","<p><img src= images/blank.png width =""600"" height = ""600"" style=""position:fixed;top:50%; left:50%; transform: translate(-50%, -50%); border:5px solid black"">","","","","","","","",""
"","4114.499999996042","sequential-stimulus-presentation-old","18","985758","0.0-9.0-1.4","SS1619739886734","trial","","40","500","4614.499999996042","images/stimuli/spore_stims/complex_12_A_a.gif","images/stimuli/spore_stims/complex_04_A_b.gif","self_paced","","0","complex_dissimilar","images/stimuli/spore_stims/complex_04_A_b.gif","","","","",""
"","9910.840000011376","survey-multi-choice","19","995672","0.0-10.0","SS1619739886734","math_question","","","","","","","","","","","","{""Q0"":""7""}","[0]","7","",""
"","null","html-keyboard-response","20","996907","0.0-11.0-0.0","SS1619739886734","","","null","","","","","","<p><img src= images/blank.png width =""600"" height = ""600"" style=""position:fixed;top:50%; left:50%; transform: translate(-50%, -50%); border:5px solid black"">","","","","","","","",""
"","14520.539999997709","sequential-stimulus-presentation-old","21","1026431","0.0-11.0-1.0","SS1619739886734","trial","","40","500","15020.539999997709","images/stimuli/spore_stims/simple_10_A_a.gif","images/stimuli/spore_stims/simple_19_A_b.gif","forced_long","","1","simple_dissimilar","images/stimuli/spore_stims/simple_19_A_b.gif","","","","",""
"","null","html-keyboard-response","22","1027641","0.0-11.0-0.1","SS1619739886734","","","null","","","","","","<p><img src= images/blank.png width =""600"" height = ""600"" style=""position:fixed;top:50%; left:50%; transform: translate(-50%, -50%); border:5px solid black"">","","","","","","","",""
"","5263.514999998733","sequential-stimulus-presentation-old","23","1033407","0.0-11.0-1.1","SS1619739886734","trial","","40","500","5763.514999998733","images/stimuli/spore_stims/simple_10_A_a.gif","images/stimuli/spore_stims/simple_19_A_b.gif","forced_long","","1","simple_dissimilar","images/stimuli/spore_stims/simple_19_A_b.gif","","","","",""
"","null","html-keyboard-response","24","1034357","0.0-11.0-0.2","SS1619739886734","","","null","","","","","","<p><img src= images/blank.png width =""600"" height = ""600"" style=""position:fixed;top:50%; left:50%; transform: translate(-50%, -50%); border:5px solid black"">","","","","","","","",""
"","4571.485000007669","sequential-stimulus-presentation-old","25","1039431","0.0-11.0-1.2","SS1619739886734","trial","","40","500","5071.485000007669","images/stimuli/spore_stims/simple_10_A_a.gif","images/stimuli/spore_stims/simple_19_A_b.gif","forced_long","","1","simple_dissimilar","images/stimuli/spore_stims/simple_10_A_a.gif","","","","",""
"","null","html-keyboard-response","26","1040458","0.0-11.0-0.3","SS1619739886734","","","null","","","","","","<p><img src= images/blank.png width =""600"" height = ""600"" style=""position:fixed;top:50%; left:50%; transform: translate(-50%, -50%); border:5px solid black"">","","","","","","","",""
"","3446.7500000029104","sequential-stimulus-presentation-old","27","1044407","0.0-11.0-1.3","SS1619739886734","trial","","40","500","3946.7500000029104","images/stimuli/spore_stims/simple_10_A_a.gif","images/stimuli/spore_stims/simple_19_A_b.gif","forced_long","","1","simple_dissimilar","images/stimuli/spore_stims/simple_19_A_b.gif","","","","",""
"","null","html-keyboard-response","28","1045420","0.0-11.0-0.4","SS1619739886734","","","null","","","","","","<p><img src= images/blank.png width =""600"" height = ""600"" style=""position:fixed;top:50%; left:50%; transform: translate(-50%, -50%); border:5px solid black"">","","","","","","","",""
"","3748.149999999441","sequential-stimulus-presentation-old","29","1049671","0.0-11.0-1.4","SS1619739886734","trial","","40","500","4248.149999999441","images/stimuli/spore_stims/simple_10_A_a.gif","images/stimuli/spore_stims/simple_19_A_b.gif","forced_long","","1","simple_dissimilar","images/stimuli/spore_stims/simple_19_A_b.gif","","","","",""
"","null","html-keyboard-response","30","1050666","0.0-11.0-0.5","SS1619739886734","","","null","","","","","","<p><img src= images/blank.png width =""600"" height = ""600"" style=""position:fixed;top:50%; left:50%; transform: translate(-50%, -50%); border:5px solid black"">","","","","","","","",""
"","2006.225000004517","sequential-stimulus-presentation-old","31","1053175","0.0-11.0-1.5","SS1619739886734","trial","","40","500","2506.225000004517","images/stimuli/spore_stims/simple_10_A_a.gif","images/stimuli/spore_stims/simple_19_A_b.gif","forced_long","","1","simple_dissimilar","images/stimuli/spore_stims/simple_19_A_b.gif","","","","",""
"","8411.860000007553","survey-multi-choice","32","1061588","0.0-12.0","SS1619739886734","math_question","","","","","","","","","","","","{""Q0"":""14""}","[0]","14","",""
"","null","html-keyboard-response","33","1062434","0.0-13.0-0.0","SS1619739886734","","","null","","","","","","<p><img src= images/blank.png width =""600"" height = ""600"" style=""position:fixed;top:50%; left:50%; transform: translate(-50%, -50%); border:5px solid black"">","","","","","","","",""
"","1958.9350000023842","sequential-stimulus-presentation-old","34","1064895","0.0-13.0-1.0","SS1619739886734","trial","","40","500","2458.935000002384","images/stimuli/spore_stims/complex_09_A_b.gif","images/stimuli/spore_stims/complex_02_A_a.gif","forced_short","","2","complex_dissimilar","images/stimuli/spore_stims/complex_02_A_a.gif","","","","",""
"","null","html-keyboard-response","35","1065893","0.0-13.0-0.1","SS1619739886734","","","null","","","","","","<p><img src= images/blank.png width =""600"" height = ""600"" style=""position:fixed;top:50%; left:50%; transform: translate(-50%, -50%); border:5px solid black"">","","","","","","","",""
"","4603.2800000102725","sequential-stimulus-presentation-old","36","1070998","0.0-13.0-1.1","SS1619739886734","trial","","40","500","5103.2800000102725","images/stimuli/spore_stims/complex_09_A_b.gif","images/stimuli/spore_stims/complex_02_A_a.gif","forced_short","","2","complex_dissimilar","images/stimuli/spore_stims/complex_02_A_a.gif","","","","",""
"","null","html-keyboard-response","37","1071949","0.0-13.0-0.2","SS1619739886734","","","null","","","","","","<p><img src= images/blank.png width =""600"" height = ""600"" style=""position:fixed;top:50%; left:50%; transform: translate(-50%, -50%); border:5px solid black"">","","","","","","","",""
"","4563.194999995176","sequential-stimulus-presentation-old","38","1077014","0.0-13.0-1.2","SS1619739886734","trial","","40","500","5063.194999995176","images/stimuli/spore_stims/complex_09_A_b.gif","images/stimuli/spore_stims/complex_02_A_a.gif","forced_short","","2","complex_dissimilar","images/stimuli/spore_stims/complex_02_A_a.gif","","","","",""
"","null","html-keyboard-response","39","1078165","0.0-13.0-0.3","SS1619739886734","","","null","","","","","","<p><img src= images/blank.png width =""600"" height = ""600"" style=""position:fixed;top:50%; left:50%; transform: translate(-50%, -50%); border:5px solid black"">","","","","","","","",""
"","3586.9099999982864","sequential-stimulus-presentation-old","40","1082254","0.0-13.0-1.3","SS1619739886734","trial","","40","500","4086.9099999982864","images/stimuli/spore_stims/complex_09_A_b.gif","images/stimuli/spore_stims/complex_02_A_a.gif","forced_short","","2","complex_dissimilar","images/stimuli/spore_stims/complex_02_A_a.gif","","","","",""
"","null","html-keyboard-response","41","1083064","0.0-13.0-0.4","SS1619739886734","","","null","","","","","","<p><img src= images/blank.png width =""600"" height = ""600"" style=""position:fixed;top:50%; left:50%; transform: translate(-50%, -50%); border:5px solid black"">","","","","","","","",""
"","4440.370000011288","sequential-stimulus-presentation-old","42","1088006","0.0-13.0-1.4","SS1619739886734","trial","","40","500","4940.370000011288","images/stimuli/spore_stims/complex_09_A_b.gif","images/stimuli/spore_stims/complex_02_A_a.gif","forced_short","","2","complex_dissimilar","images/stimuli/spore_stims/complex_02_A_a.gif","","","","",""
"","4005.9449999970384","survey-multi-choice","43","1092013","0.0-14.0","SS1619739886734","math_question","","","","","","","","","","","","{""Q0"":""4""}","[0]","4","",""
"","null","html-keyboard-response","44","1092984","0.0-15.0-0.0","SS1619739886734","","","null","","","","","","<p><img src= images/blank.png width =""600"" height = ""600"" style=""position:fixed;top:50%; left:50%; transform: translate(-50%, -50%); border:5px solid black"">","","","","","","","",""
"","2831.975000008242","sequential-stimulus-presentation-old","45","1096318","0.0-15.0-1.0","SS1619739886734","trial","","40","500","3331.975000008242","images/stimuli/spore_stims/complex_08_A_a.gif","images/stimuli/spore_stims/complex_03_A_b.gif","self_paced","","3","complex_dissimilar","images/stimuli/spore_stims/complex_03_A_b.gif","","","","",""
"","null","html-keyboard-response","46","1097329","0.0-15.0-0.1","SS1619739886734","","","null","","","","","","<p><img src= images/blank.png width =""600"" height = ""600"" style=""position:fixed;top:50%; left:50%; transform: translate(-50%, -50%); border:5px solid black"">","","","","","","","",""
"","2887.779999990016","sequential-stimulus-presentation-old","47","1100719","0.0-15.0-1.1","SS1619739886734","trial","","40","500","3387.779999990016","images/stimuli/spore_stims/complex_08_A_a.gif","images/stimuli/spore_stims/complex_03_A_b.gif","self_paced","","3","complex_dissimilar","images/stimuli/spore_stims/complex_03_A_b.gif","","","","",""
"","null","html-keyboard-response","48","1102018","0.0-15.0-0.2","SS1619739886734","","","null","","","","","","<p><img src= images/blank.png width =""600"" height = ""600"" style=""position:fixed;top:50%; left:50%; transform: translate(-50%, -50%); border:5px solid black"">","","","","","","","",""
"","1597.7350000031292","sequential-stimulus-presentation-old","49","1104118","0.0-15.0-1.2","SS1619739886734","trial","","40","500","2097.7350000031292","images/stimuli/spore_stims/complex_08_A_a.gif","images/stimuli/spore_stims/complex_03_A_b.gif","self_paced","","3","complex_dissimilar","images/stimuli/spore_stims/complex_03_A_b.gif","","","","",""
"","null","html-keyboard-response","50","1105072","0.0-15.0-0.3","SS1619739886734","","","null","","","","","","<p><img src= images/blank.png width =""600"" height = ""600"" style=""position:fixed;top:50%; left:50%; transform: translate(-50%, -50%); border:5px solid black"">","","","","","","","",""
"","2456.8799999980256","sequential-stimulus-presentation-old","51","1108031","0.0-15.0-1.3","SS1619739886734","trial","","40","500","2956.8799999980256","images/stimuli/spore_stims/complex_08_A_a.gif","images/stimuli/spore_stims/complex_03_A_b.gif","self_paced","","3","complex_dissimilar","images/stimuli/spore_stims/complex_03_A_b.gif","","","","",""
"","null","html-keyboard-response","52","1109135","0.0-15.0-0.4","SS1619739886734","","","null","","","","","","<p><img src= images/blank.png width =""600"" height = ""600"" style=""position:fixed;top:50%; left:50%; transform: translate(-50%, -50%); border:5px solid black"">","","","","","","","",""
"","6729.47000000556","sequential-stimulus-presentation-old","53","1116367","0.0-15.0-1.4","SS1619739886734","trial","","40","500","7229.47000000556","images/stimuli/spore_stims/complex_08_A_a.gif","images/stimuli/spore_stims/complex_03_A_b.gif","self_paced","","3","complex_dissimilar","images/stimuli/spore_stims/complex_03_A_b.gif","","","","",""
"","null","html-keyboard-response","54","1117377","0.0-15.0-0.5","SS1619739886734","","","null","","","","","","<p><img src= images/blank.png width =""600"" height = ""600"" style=""position:fixed;top:50%; left:50%; transform: translate(-50%, -50%); border:5px solid black"">","","","","","","","",""
"","4415.079999991693","sequential-stimulus-presentation-old","55","1122294","0.0-15.0-1.5","SS1619739886734","trial","","40","500","4915.079999991693","images/stimuli/spore_stims/complex_08_A_a.gif","images/stimuli/spore_stims/complex_03_A_b.gif","self_paced","","3","complex_dissimilar","images/stimuli/spore_stims/complex_08_A_a.gif","","","","",""
"","3905.3150000106543","survey-multi-choice","56","1126200","0.0-16.0","SS1619739886734","math_question","","","","","","","","","","","","{""Q0"":""9""}","[0]","9","",""
"","null","html-keyboard-response","57","1127329","0.0-17.0-0.0","SS1619739886734","","","null","","","","","","<p><img src= images/blank.png width =""600"" height = ""600"" style=""position:fixed;top:50%; left:50%; transform: translate(-50%, -50%); border:5px solid black"">","","","","","","","",""
"","1359.3550000078976","sequential-stimulus-presentation-old","58","1129191","0.0-17.0-1.0","SS1619739886734","trial","","40","500","1859.3550000078976","images/stimuli/spore_stims/simple_15_A_b.gif","images/stimuli/spore_stims/simple_08_A_a.gif","forced_short","","4","simple_dissimilar","images/stimuli/spore_stims/simple_08_A_a.gif","","","","",""
"","null","html-keyboard-response","59","1130105","0.0-17.0-0.1","SS1619739886734","","","null","","","","","","<p><img src= images/blank.png width =""600"" height = ""600"" style=""position:fixed;top:50%; left:50%; transform: translate(-50%, -50%); border:5px solid black"">","","","","","","","",""
"","2710.7949999915436","sequential-stimulus-presentation-old","60","1133319","0.0-17.0-1.1","SS1619739886734","trial","","40","500","3210.7949999915436","images/stimuli/spore_stims/simple_15_A_b.gif","images/stimuli/spore_stims/simple_08_A_a.gif","forced_short","","4","simple_dissimilar","images/stimuli/spore_stims/simple_15_A_b.gif","","","","",""
"","null","html-keyboard-response","61","1134394","0.0-17.0-0.2","SS1619739886734","","","null","","","","","","<p><img src= images/blank.png width =""600"" height = ""600"" style=""position:fixed;top:50%; left:50%; transform: translate(-50%, -50%); border:5px solid black"">","","","","","","","",""
"","1278.5050000094343","sequential-stimulus-presentation-old","62","1136175","0.0-17.0-1.2","SS1619739886734","trial","","40","500","1778.5050000094343","images/stimuli/spore_stims/simple_15_A_b.gif","images/stimuli/spore_stims/simple_08_A_a.gif","forced_short","","4","simple_dissimilar","images/stimuli/spore_stims/simple_08_A_a.gif","","","","",""
"","null","html-keyboard-response","63","1137061","0.0-17.0-0.3","SS1619739886734","","","null","","","","","","<p><img src= images/blank.png width =""600"" height = ""600"" style=""position:fixed;top:50%; left:50%; transform: translate(-50%, -50%); border:5px solid black"">","","","","","","","",""
"","4435.7999999918975","sequential-stimulus-presentation-old","64","1141999","0.0-17.0-1.3","SS1619739886734","trial","","40","500","4935.7999999918975","images/stimuli/spore_stims/simple_15_A_b.gif","images/stimuli/spore_stims/simple_08_A_a.gif","forced_short","","4","simple_dissimilar","images/stimuli/spore_stims/simple_15_A_b.gif","","","","",""
"","null","html-keyboard-response","65","1143127","0.0-17.0-0.4","SS1619739886734","","","null","","","","","","<p><img src= images/blank.png width =""600"" height = ""600"" style=""position:fixed;top:50%; left:50%; transform: translate(-50%, -50%); border:5px solid black"">","","","","","","","",""
"","1410.009999992326","sequential-stimulus-presentation-old","66","1145039","0.0-17.0-1.4","SS1619739886734","trial","","40","500","1910.009999992326","images/stimuli/spore_stims/simple_15_A_b.gif","images/stimuli/spore_stims/simple_08_A_a.gif","forced_short","","4","simple_dissimilar","images/stimuli/spore_stims/simple_08_A_a.gif","","","","",""
"","3347.719999990659","survey-multi-choice","67","1148388","0.0-18.0","SS1619739886734","math_question","","","","","","","","","","","","{""Q0"":""9""}","[0]","9","",""
"","null","html-keyboard-response","68","1149385","0.0-19.0-0.0","SS1619739886734","","","null","","","","","","<p><img src= images/blank.png width =""600"" height = ""600"" style=""position:fixed;top:50%; left:50%; transform: translate(-50%, -50%); border:5px solid black"">","","","","","","","",""
"","959.3449999955483","sequential-stimulus-presentation-old","69","1150847","0.0-19.0-1.0","SS1619739886734","trial","","40","500","1459.3449999955483","images/stimuli/spore_stims/simple_04_A_b.gif","images/stimuli/spore_stims/simple_12_A_a.gif","forced_short","","5","simple_dissimilar","images/stimuli/spore_stims/simple_12_A_a.gif","","","","",""
"","null","html-keyboard-response","70","1151670","0.0-19.0-0.1","SS1619739886734","","","null","","","","","","<p><img src= images/blank.png width =""600"" height = ""600"" style=""position:fixed;top:50%; left:50%; transform: translate(-50%, -50%); border:5px solid black"">","","","","","","","",""
"","4161.315000005066","sequential-stimulus-presentation-old","71","1156334","0.0-19.0-1.1","SS1619739886734","trial","","40","500","4661.315000005066","images/stimuli/spore_stims/simple_04_A_b.gif","images/stimuli/spore_stims/simple_12_A_a.gif","forced_short","","5","simple_dissimilar","images/stimuli/spore_stims/simple_12_A_a.gif","","","","",""
"","null","html-keyboard-response","72","1157531","0.0-19.0-0.2","SS1619739886734","","","null","","","","","","<p><img src= images/blank.png width =""600"" height = ""600"" style=""position:fixed;top:50%; left:50%; transform: translate(-50%, -50%); border:5px solid black"">","","","","","","","",""
"","1742.0649999985471","sequential-stimulus-presentation-old","73","1159775","0.0-19.0-1.2","SS1619739886734","trial","","40","500","2242.064999998547","images/stimuli/spore_stims/simple_04_A_b.gif","images/stimuli/spore_stims/simple_12_A_a.gif","forced_short","","5","simple_dissimilar","images/stimuli/spore_stims/simple_04_A_b.gif","","","","",""
"","null","html-keyboard-response","74","1160695","0.0-19.0-0.3","SS1619739886734","","","null","","","","","","<p><img src= images/blank.png width =""600"" height = ""600"" style=""position:fixed;top:50%; left:50%; transform: translate(-50%, -50%); border:5px solid black"">","","","","","","","",""
"","2392.924999992829","sequential-stimulus-presentation-old","75","1163591","0.0-19.0-1.3","SS1619739886734","trial","","40","500","2892.924999992829","images/stimuli/spore_stims/simple_04_A_b.gif","images/stimuli/spore_stims/simple_12_A_a.gif","forced_short","","5","simple_dissimilar","images/stimuli/spore_stims/simple_12_A_a.gif","","","","",""
"","null","html-keyboard-response","76","1164886","0.0-19.0-0.4","SS1619739886734","","","null","","","","","","<p><img src= images/blank.png width =""600"" height = ""600"" style=""position:fixed;top:50%; left:50%; transform: translate(-50%, -50%); border:5px solid black"">","","","","","","","",""
"","1777.0350000064354","sequential-stimulus-presentation-old","77","1167167","0.0-19.0-1.4","SS1619739886734","trial","","40","500","2277.0350000064354","images/stimuli/spore_stims/simple_04_A_b.gif","images/stimuli/spore_stims/simple_12_A_a.gif","forced_short","","5","simple_dissimilar","images/stimuli/spore_stims/simple_12_A_a.gif","","","","",""
"","null","html-keyboard-response","78","1168088","0.0-19.0-0.5","SS1619739886734","","","null","","","","","","<p><img src= images/blank.png width =""600"" height = ""600"" style=""position:fixed;top:50%; left:50%; transform: translate(-50%, -50%); border:5px solid black"">","","","","","","","",""
"","3489.005000010133","sequential-stimulus-presentation-old","79","1172079","0.0-19.0-1.5","SS1619739886734","trial","","40","500","3989.005000010133","images/stimuli/spore_stims/simple_04_A_b.gif","images/stimuli/spore_stims/simple_12_A_a.gif","forced_short","","5","simple_dissimilar","images/stimuli/spore_stims/simple_12_A_a.gif","","","","",""
"","6842.8649999988265","survey-multi-choice","80","1178923","0.0-20.0","SS1619739886734","math_question","","","","","","","","","","","","{""Q0"":""8""}","[0]","8","",""
"","null","html-keyboard-response","81","1180187","0.0-21.0-0.0","SS1619739886734","","","null","","","","","","<p><img src= images/blank.png width =""600"" height = ""600"" style=""position:fixed;top:50%; left:50%; transform: translate(-50%, -50%); border:5px solid black"">","","","","","","","",""
"","2299.744999996852","sequential-stimulus-presentation-old","82","1182990","0.0-21.0-1.0","SS1619739886734","trial","","40","500","2799.744999996852","images/stimuli/spore_stims/complex_18_A_a.gif","images/stimuli/spore_stims/complex_05_A_b.gif","forced_short","","6","complex_dissimilar","images/stimuli/spore_stims/complex_05_A_b.gif","","","","",""
"","null","html-keyboard-response","83","1184195","0.0-21.0-0.1","SS1619739886734","","","null","","","","","","<p><img src= images/blank.png width =""600"" height = ""600"" style=""position:fixed;top:50%; left:50%; transform: translate(-50%, -50%); border:5px solid black"">","","","","","","","",""
"","4100.1000000105705","sequential-stimulus-presentation-old","84","1188799","0.0-21.0-1.1","SS1619739886734","trial","","40","500","4600.1000000105705","images/stimuli/spore_stims/complex_18_A_a.gif","images/stimuli/spore_stims/complex_05_A_b.gif","forced_short","","6","complex_dissimilar","images/stimuli/spore_stims/complex_18_A_a.gif","","","","",""
"","null","html-keyboard-response","85","1189665","0.0-21.0-0.2","SS1619739886734","","","null","","","","","","<p><img src= images/blank.png width =""600"" height = ""600"" style=""position:fixed;top:50%; left:50%; transform: translate(-50%, -50%); border:5px solid black"">","","","","","","","",""
"","6566.875000003958","sequential-stimulus-presentation-old","86","1196735","0.0-21.0-1.2","SS1619739886734","trial","","40","500","7066.875000003958","images/stimuli/spore_stims/complex_18_A_a.gif","images/stimuli/spore_stims/complex_05_A_b.gif","forced_short","","6","complex_dissimilar","images/stimuli/spore_stims/complex_05_A_b.gif","","","","",""
"","null","html-keyboard-response","87","1197860","0.0-21.0-0.3","SS1619739886734","","","null","","","","","","<p><img src= images/blank.png width =""600"" height = ""600"" style=""position:fixed;top:50%; left:50%; transform: translate(-50%, -50%); border:5px solid black"">","","","","","","","",""
"","2596.585000006715","sequential-stimulus-presentation-old","88","1200959","0.0-21.0-1.3","SS1619739886734","trial","","40","500","3096.585000006715","images/stimuli/spore_stims/complex_18_A_a.gif","images/stimuli/spore_stims/complex_05_A_b.gif","forced_short","","6","complex_dissimilar","images/stimuli/spore_stims/complex_05_A_b.gif","","","","",""
"","null","html-keyboard-response","89","1202251","0.0-21.0-0.4","SS1619739886734","","","null","","","","","","<p><img src= images/blank.png width =""600"" height = ""600"" style=""position:fixed;top:50%; left:50%; transform: translate(-50%, -50%); border:5px solid black"">","","","","","","","",""
"","1659.7100000071805","sequential-stimulus-presentation-old","90","1204415","0.0-21.0-1.4","SS1619739886734","trial","","40","500","2159.7100000071805","images/stimuli/spore_stims/complex_18_A_a.gif","images/stimuli/spore_stims/complex_05_A_b.gif","forced_short","","6","complex_dissimilar","images/stimuli/spore_stims/complex_18_A_a.gif","","","","",""
"","4871.310000002151","survey-multi-choice","91","1209287","0.0-22.0","SS1619739886734","math_question","","","","","","","","","","","","{""Q0"":""16""}","[0]","16","",""
"","null","html-keyboard-response","92","1210315","0.0-23.0-0.0","SS1619739886734","","","null","","","","","","<p><img src= images/blank.png width =""600"" height = ""600"" style=""position:fixed;top:50%; left:50%; transform: translate(-50%, -50%); border:5px solid black"">","","","","","","","",""
"","8392.284999994561","sequential-stimulus-presentation-old","93","1233711","0.0-23.0-1.0","SS1619739886734","trial","","40","500","8892.284999994561","images/stimuli/spore_stims/complex_13_A_a.gif","images/stimuli/spore_stims/complex_02_A_b.gif","forced_long","","7","complex_dissimilar","images/stimuli/spore_stims/complex_02_A_b.gif","","","","",""
"","null","html-keyboard-response","94","1234583","0.0-23.0-0.1","SS1619739886734","","","null","","","","","","<p><img src= images/blank.png width =""600"" height = ""600"" style=""position:fixed;top:50%; left:50%; transform: translate(-50%, -50%); border:5px solid black"">","","","","","","","",""
"","4024.3400000035763","sequential-stimulus-presentation-old","95","1239111","0.0-23.0-1.1","SS1619739886734","trial","","40","500","4524.340000003576","images/stimuli/spore_stims/complex_13_A_a.gif","images/stimuli/spore_stims/complex_02_A_b.gif","forced_long","","7","complex_dissimilar","images/stimuli/spore_stims/complex_02_A_b.gif","","","","",""
"","null","html-keyboard-response","96","1240268","0.0-23.0-0.2","SS1619739886734","","","null","","","","","","<p><img src= images/blank.png width =""600"" height = ""600"" style=""position:fixed;top:50%; left:50%; transform: translate(-50%, -50%); border:5px solid black"">","","","","","","","",""
"","708.0300000091083","sequential-stimulus-presentation-old","97","1241479","0.0-23.0-1.2","SS1619739886734","trial","","40","500","1208.0300000091083","images/stimuli/spore_stims/complex_13_A_a.gif","images/stimuli/spore_stims/complex_02_A_b.gif","forced_long","","7","complex_dissimilar","images/stimuli/spore_stims/complex_02_A_b.gif","","","","",""
"","null","html-keyboard-response","98","1242373","0.0-23.0-0.3","SS1619739886734","","","null","","","","","","<p><img src= images/blank.png width =""600"" height = ""600"" style=""position:fixed;top:50%; left:50%; transform: translate(-50%, -50%); border:5px solid black"">","","","","","","","",""
"","242.76500000269152","sequential-stimulus-presentation-old","99","1243118","0.0-23.0-1.3","SS1619739886734","trial","","40","500","742.7650000026915","images/stimuli/spore_stims/complex_13_A_a.gif","images/stimuli/spore_stims/complex_02_A_b.gif","forced_long","","7","complex_dissimilar","images/stimuli/spore_stims/complex_02_A_b.gif","","","","",""
"","null","html-keyboard-response","100","1244177","0.0-23.0-0.4","SS1619739886734","","","null","","","","","","<p><img src= images/blank.png width =""600"" height = ""600"" style=""position:fixed;top:50%; left:50%; transform: translate(-50%, -50%); border:5px solid black"">","","","","","","","",""
"","398.30000000074506","sequential-stimulus-presentation-old","101","1245079","0.0-23.0-1.4","SS1619739886734","trial","","40","500","898.3000000007451","images/stimuli/spore_stims/complex_13_A_a.gif","images/stimuli/spore_stims/complex_02_A_b.gif","forced_long","","7","complex_dissimilar","images/stimuli/spore_stims/complex_02_A_b.gif","","","","",""
"","null","html-keyboard-response","102","1245909","0.0-23.0-0.5","SS1619739886734","","","null","","","","","","<p><img src= images/blank.png width =""600"" height = ""600"" style=""position:fixed;top:50%; left:50%; transform: translate(-50%, -50%); border:5px solid black"">","","","","","","","",""
"","16947.54500000272","sequential-stimulus-presentation-old","103","1263359","0.0-23.0-1.5","SS1619739886734","trial","","40","500","17447.54500000272","images/stimuli/spore_stims/complex_13_A_a.gif","images/stimuli/spore_stims/complex_02_A_b.gif","forced_long","","7","complex_dissimilar","images/stimuli/spore_stims/complex_13_A_a.gif","","","","",""
"","2310.0450000055134","survey-multi-choice","104","1265670","0.0-24.0","SS1619739886734","math_question","","","","","","","","","","","","{""Q0"":""6""}","[0]","6","",""
"","null","html-keyboard-response","105","1266778","0.0-25.0-0.0","SS1619739886734","","","null","","","","","","<p><img src= images/blank.png width =""600"" height = ""600"" style=""position:fixed;top:50%; left:50%; transform: translate(-50%, -50%); border:5px solid black"">","","","","","","","",""
"","2525.6499999959487","sequential-stimulus-presentation-old","106","1269806","0.0-25.0-1.0","SS1619739886734","trial","","40","500","3025.6499999959487","images/stimuli/spore_stims/simple_13_A_b.gif","images/stimuli/spore_stims/simple_05_A_a.gif","self_paced","","8","simple_dissimilar","images/stimuli/spore_stims/simple_05_A_a.gif","","","","",""
"","null","html-keyboard-response","107","1271099","0.0-25.0-0.1","SS1619739886734","","","null","","","","","","<p><img src= images/blank.png width =""600"" height = ""600"" style=""position:fixed;top:50%; left:50%; transform: translate(-50%, -50%); border:5px solid black"">","","","","","","","",""
"","356.9299999945797","sequential-stimulus-presentation-old","108","1271959","0.0-25.0-1.1","SS1619739886734","trial","","40","500","856.9299999945797","images/stimuli/spore_stims/simple_13_A_b.gif","images/stimuli/spore_stims/simple_05_A_a.gif","self_paced","","8","simple_dissimilar","images/stimuli/spore_stims/simple_05_A_a.gif","","","","",""
"","null","html-keyboard-response","109","1273259","0.0-25.0-0.2","SS1619739886734","","","null","","","","","","<p><img src= images/blank.png width =""600"" height = ""600"" style=""position:fixed;top:50%; left:50%; transform: translate(-50%, -50%); border:5px solid black"">","","","","","","","",""
"","204.63000000733882","sequential-stimulus-presentation-old","110","1273966","0.0-25.0-1.2","SS1619739886734","trial","","40","500","704.6300000073388","images/stimuli/spore_stims/simple_13_A_b.gif","images/stimuli/spore_stims/simple_05_A_a.gif","self_paced","","8","simple_dissimilar","images/stimuli/spore_stims/simple_05_A_a.gif","","","","",""
"","null","html-keyboard-response","111","1274833","0.0-25.0-0.3","SS1619739886734","","","null","","","","","","<p><img src= images/blank.png width =""600"" height = ""600"" style=""position:fixed;top:50%; left:50%; transform: translate(-50%, -50%); border:5px solid black"">","","","","","","","",""
"","534.8949999897741","sequential-stimulus-presentation-old","112","1275870","0.0-25.0-1.3","SS1619739886734","trial","","40","500","1034.894999989774","images/stimuli/spore_stims/simple_13_A_b.gif","images/stimuli/spore_stims/simple_05_A_a.gif","self_paced","","8","simple_dissimilar","images/stimuli/spore_stims/simple_05_A_a.gif","","","","",""
"","null","html-keyboard-response","113","1277152","0.0-25.0-0.4","SS1619739886734","","","null","","","","","","<p><img src= images/blank.png width =""600"" height = ""600"" style=""position:fixed;top:50%; left:50%; transform: translate(-50%, -50%); border:5px solid black"">","","","","","","","",""
"","3279.2150000021793","sequential-stimulus-presentation-old","114","1280934","0.0-25.0-1.4","SS1619739886734","trial","","40","500","3779.2150000021793","images/stimuli/spore_stims/simple_13_A_b.gif","images/stimuli/spore_stims/simple_05_A_a.gif","self_paced","","8","simple_dissimilar","images/stimuli/spore_stims/simple_05_A_a.gif","","","","",""
"","2758.8649999960326","survey-multi-choice","115","1283694","0.0-26.0","SS1619739886734","math_question","","","","","","","","","","","","{""Q0"":""7""}","[0]","7","",""
"","null","html-keyboard-response","116","1284971","0.0-27.0-0.0","SS1619739886734","","","null","","","","","","<p><img src= images/blank.png width =""600"" height = ""600"" style=""position:fixed;top:50%; left:50%; transform: translate(-50%, -50%); border:5px solid black"">","","","","","","","",""
"","7376.154999990715","sequential-stimulus-presentation-old","117","1307350","0.0-27.0-1.0","SS1619739886734","trial","","40","500","7876.154999990715","images/stimuli/spore_stims/simple_16_A_a.gif","images/stimuli/spore_stims/simple_18_A_b.gif","forced_long","","9","simple_dissimilar","images/stimuli/spore_stims/simple_18_A_b.gif","","","","",""
"","null","html-keyboard-response","118","1308223","0.0-27.0-0.1","SS1619739886734","","","null","","","","","","<p><img src= images/blank.png width =""600"" height = ""600"" style=""position:fixed;top:50%; left:50%; transform: translate(-50%, -50%); border:5px solid black"">","","","","","","","",""
"","3912.2449999994133","sequential-stimulus-presentation-old","119","1312638","0.0-27.0-1.1","SS1619739886734","trial","","40","500","4412.244999999413","images/stimuli/spore_stims/simple_16_A_a.gif","images/stimuli/spore_stims/simple_18_A_b.gif","forced_long","","9","simple_dissimilar","images/stimuli/spore_stims/simple_18_A_b.gif","","","","",""
"","null","html-keyboard-response","120","1313782","0.0-27.0-0.2","SS1619739886734","","","null","","","","","","<p><img src= images/blank.png width =""600"" height = ""600"" style=""position:fixed;top:50%; left:50%; transform: translate(-50%, -50%); border:5px solid black"">","","","","","","","",""
"","1193.2500000111759","sequential-stimulus-presentation-old","121","1315478","0.0-27.0-1.2","SS1619739886734","trial","","40","500","1693.2500000111759","images/stimuli/spore_stims/simple_16_A_a.gif","images/stimuli/spore_stims/simple_18_A_b.gif","forced_long","","9","simple_dissimilar","images/stimuli/spore_stims/simple_18_A_b.gif","","","","",""
"","null","html-keyboard-response","122","1316692","0.0-27.0-0.3","SS1619739886734","","","null","","","","","","<p><img src= images/blank.png width =""600"" height = ""600"" style=""position:fixed;top:50%; left:50%; transform: translate(-50%, -50%); border:5px solid black"">","","","","","","","",""
"","1820.5100000051316","sequential-stimulus-presentation-old","123","1319014","0.0-27.0-1.3","SS1619739886734","trial","","40","500","2320.5100000051316","images/stimuli/spore_stims/simple_16_A_a.gif","images/stimuli/spore_stims/simple_18_A_b.gif","forced_long","","9","simple_dissimilar","images/stimuli/spore_stims/simple_18_A_b.gif","","","","",""
"","null","html-keyboard-response","124","1320020","0.0-27.0-0.4","SS1619739886734","","","null","","","","","","<p><img src= images/blank.png width =""600"" height = ""600"" style=""position:fixed;top:50%; left:50%; transform: translate(-50%, -50%); border:5px solid black"">","","","","","","","",""
"","1882.3750000009313","sequential-stimulus-presentation-old","125","1322406","0.0-27.0-1.4","SS1619739886734","trial","","40","500","2382.3750000009313","images/stimuli/spore_stims/simple_16_A_a.gif","images/stimuli/spore_stims/simple_18_A_b.gif","forced_long","","9","simple_dissimilar","images/stimuli/spore_stims/simple_18_A_b.gif","","","","",""
"","null","html-keyboard-response","126","1323672","0.0-27.0-0.5","SS1619739886734","","","null","","","","","","<p><img src= images/blank.png width =""600"" height = ""600"" style=""position:fixed;top:50%; left:50%; transform: translate(-50%, -50%); border:5px solid black"">","","","","","","","",""
"","2103.3200000093784","sequential-stimulus-presentation-old","127","1326278","0.0-27.0-1.5","SS1619739886734","trial","","40","500","2603.3200000093784","images/stimuli/spore_stims/simple_16_A_a.gif","images/stimuli/spore_stims/simple_18_A_b.gif","forced_long","","9","simple_dissimilar","images/stimuli/spore_stims/simple_18_A_b.gif","","","","",""
"","3810.520000013523","survey-multi-choice","128","1330090","0.0-28.0","SS1619739886734","math_question","","","","","","","","","","","","{""Q0"":""9""}","[0]","9","",""
"","null","html-keyboard-response","129","1331235","0.0-29.0-0.0","SS1619739886734","","","null","","","","","","<p><img src= images/blank.png width =""600"" height = ""600"" style=""position:fixed;top:50%; left:50%; transform: translate(-50%, -50%); border:5px solid black"">","","","","","","","",""
"","6747.975000005681","sequential-stimulus-presentation-old","130","1338486","0.0-29.0-1.0","SS1619739886734","trial","","40","500","7247.975000005681","images/stimuli/spore_stims/simple_03_A_b.gif","images/stimuli/spore_stims/simple_02_A_a.gif","self_paced","","10","simple_dissimilar","images/stimuli/spore_stims/simple_02_A_a.gif","","","","",""
"","null","html-keyboard-response","131","1339737","0.0-29.0-0.1","SS1619739886734","","","null","","","","","","<p><img src= images/blank.png width =""600"" height = ""600"" style=""position:fixed;top:50%; left:50%; transform: translate(-50%, -50%); border:5px solid black"">","","","","","","","",""
"","2532.3399999905378","sequential-stimulus-presentation-old","132","1342774","0.0-29.0-1.1","SS1619739886734","trial","","40","500","3032.3399999905378","images/stimuli/spore_stims/simple_03_A_b.gif","images/stimuli/spore_stims/simple_02_A_a.gif","self_paced","","10","simple_dissimilar","images/stimuli/spore_stims/simple_02_A_a.gif","","","","",""
"","null","html-keyboard-response","133","1343907","0.0-29.0-0.2","SS1619739886734","","","null","","","","","","<p><img src= images/blank.png width =""600"" height = ""600"" style=""position:fixed;top:50%; left:50%; transform: translate(-50%, -50%); border:5px solid black"">","","","","","","","",""
"","2547.4249999970198","sequential-stimulus-presentation-old","134","1346958","0.0-29.0-1.2","SS1619739886734","trial","","40","500","3047.4249999970198","images/stimuli/spore_stims/simple_03_A_b.gif","images/stimuli/spore_stims/simple_02_A_a.gif","self_paced","","10","simple_dissimilar","images/stimuli/spore_stims/simple_02_A_a.gif","","","","",""
"","null","html-keyboard-response","135","1347847","0.0-29.0-0.3","SS1619739886734","","","null","","","","","","<p><img src= images/blank.png width =""600"" height = ""600"" style=""position:fixed;top:50%; left:50%; transform: translate(-50%, -50%); border:5px solid black"">","","","","","","","",""
"","2408.2400000044145","sequential-stimulus-presentation-old","136","1350758","0.0-29.0-1.3","SS1619739886734","trial","","40","500","2908.2400000044145","images/stimuli/spore_stims/simple_03_A_b.gif","images/stimuli/spore_stims/simple_02_A_a.gif","self_paced","","10","simple_dissimilar","images/stimuli/spore_stims/simple_02_A_a.gif","","","","",""
"","null","html-keyboard-response","137","1351978","0.0-29.0-0.4","SS1619739886734","","","null","","","","","","<p><img src= images/blank.png width =""600"" height = ""600"" style=""position:fixed;top:50%; left:50%; transform: translate(-50%, -50%); border:5px solid black"">","","","","","","","",""
"","2948.160000000149","sequential-stimulus-presentation-old","138","1355430","0.0-29.0-1.4","SS1619739886734","trial","","40","500","3448.160000000149","images/stimuli/spore_stims/simple_03_A_b.gif","images/stimuli/spore_stims/simple_02_A_a.gif","self_paced","","10","simple_dissimilar","images/stimuli/spore_stims/simple_03_A_b.gif","","","","",""
"","4493.190000008326","survey-multi-choice","139","1359925","0.0-30.0","SS1619739886734","math_question","","","","","","","","","","","","{""Q0"":""9""}","[0]","9","",""
"","null","html-keyboard-response","140","1361227","0.0-31.0-0.0","SS1619739886734","","","null","","","","","","<p><img src= images/blank.png width =""600"" height = ""600"" style=""position:fixed;top:50%; left:50%; transform: translate(-50%, -50%); border:5px solid black"">","","","","","","","",""
"","87.50000000861473","sequential-stimulus-presentation-old","141","1376319","0.0-31.0-1.0","SS1619739886734","trial","","40","500","587.5000000086147","images/stimuli/spore_stims/complex_09_A_a.gif","images/stimuli/spore_stims/complex_17_A_b.gif","forced_long","","11","complex_dissimilar","images/stimuli/spore_stims/complex_17_A_b.gif","","","","",""
"","null","html-keyboard-response","142","1377462","0.0-31.0-0.1","SS1619739886734","","","null","","","","","","<p><img src= images/blank.png width =""600"" height = ""600"" style=""position:fixed;top:50%; left:50%; transform: translate(-50%, -50%); border:5px solid black"">","","","","","","","",""
"","841.9299999950454","sequential-stimulus-presentation-old","143","1378806","0.0-31.0-1.1","SS1619739886734","trial","","40","500","1341.9299999950454","images/stimuli/spore_stims/complex_09_A_a.gif","images/stimuli/spore_stims/complex_17_A_b.gif","forced_long","","11","complex_dissimilar","images/stimuli/spore_stims/complex_17_A_b.gif","","","","",""
"","null","html-keyboard-response","144","1380032","0.0-31.0-0.2","SS1619739886734","","","null","","","","","","<p><img src= images/blank.png width =""600"" height = ""600"" style=""position:fixed;top:50%; left:50%; transform: translate(-50%, -50%); border:5px solid black"">","","","","","","","",""
"","2976.345000002533","sequential-stimulus-presentation-old","145","1383510","0.0-31.0-1.2","SS1619739886734","trial","","40","500","3476.345000002533","images/stimuli/spore_stims/complex_09_A_a.gif","images/stimuli/spore_stims/complex_17_A_b.gif","forced_long","","11","complex_dissimilar","images/stimuli/spore_stims/complex_09_A_a.gif","","","","",""
"","null","html-keyboard-response","146","1384481","0.0-31.0-0.3","SS1619739886734","","","null","","","","","","<p><img src= images/blank.png width =""600"" height = ""600"" style=""position:fixed;top:50%; left:50%; transform: translate(-50%, -50%); border:5px solid black"">","","","","","","","",""
"","1111.2900000007357","sequential-stimulus-presentation-old","147","1386094","0.0-31.0-1.3","SS1619739886734","trial","","40","500","1611.2900000007357","images/stimuli/spore_stims/complex_09_A_a.gif","images/stimuli/spore_stims/complex_17_A_b.gif","forced_long","","11","complex_dissimilar","images/stimuli/spore_stims/complex_09_A_a.gif","","","","",""
"","null","html-keyboard-response","148","1386908","0.0-31.0-0.4","SS1619739886734","","","null","","","","","","<p><img src= images/blank.png width =""600"" height = ""600"" style=""position:fixed;top:50%; left:50%; transform: translate(-50%, -50%); border:5px solid black"">","","","","","","","",""
"","1514.4599999911152","sequential-stimulus-presentation-old","149","1388926","0.0-31.0-1.4","SS1619739886734","trial","","40","500","2014.4599999911152","images/stimuli/spore_stims/complex_09_A_a.gif","images/stimuli/spore_stims/complex_17_A_b.gif","forced_long","","11","complex_dissimilar","images/stimuli/spore_stims/complex_17_A_b.gif","","","","",""
"","null","html-keyboard-response","150","1390115","0.0-31.0-0.5","SS1619739886734","","","null","","","","","","<p><img src= images/blank.png width =""600"" height = ""600"" style=""position:fixed;top:50%; left:50%; transform: translate(-50%, -50%); border:5px solid black"">","","","","","","","",""
"","4756.3399999924","sequential-stimulus-presentation-old","151","1395374","0.0-31.0-1.5","SS1619739886734","trial","","40","500","5256.3399999924","images/stimuli/spore_stims/complex_09_A_a.gif","images/stimuli/spore_stims/complex_17_A_b.gif","forced_long","","11","complex_dissimilar","images/stimuli/spore_stims/complex_17_A_b.gif","","","","",""
"[{""page_index"":0,""viewing_time"":8325.010000000708}]","8325.184999994468","instructions","152","1403701","0.0-32.0","SS1619739886734","instructions","","","","","","","","","","","","","","","",""
"","9088.885000004899","survey-likert","153","1412792","0.0-33.0","SS1619739886734","similarity_question","","","","","","","","","","","","{""Q0"":5}","[0]","","images/stimuli/spore_stims/complex_12_A_a.gif","images/stimuli/spore_stims/complex_04_A_b.gif"
"","12317.829999999842","survey-likert","154","1425114","0.0-34.0","SS1619739886734","similarity_question","","","","","","","","","","","","{""Q0"":3}","[0]","","images/stimuli/spore_stims/simple_19_A_b.gif","images/stimuli/spore_stims/simple_10_A_a.gif"
"","5633.55499999295","survey-likert","155","1430752","0.0-35.0","SS1619739886734","similarity_question","","","","","","","","","","","","{""Q0"":1}","[0]","","images/stimuli/spore_stims/simple_15_A_b.gif","images/stimuli/spore_stims/simple_08_A_a.gif"
"","9182.654999997001","survey-likert","156","1439940","0.0-36.0","SS1619739886734","similarity_question","","","","","","","","","","","","{""Q0"":0}","[0]","","images/stimuli/spore_stims/simple_12_A_a.gif","images/stimuli/spore_stims/simple_04_A_b.gif"
"","7815.570000006352","survey-likert","157","1447760","0.0-37.0","SS1619739886734","similarity_question","","","","","","","","","","","","{""Q0"":1}","[0]","","images/stimuli/spore_stims/simple_16_A_a.gif","images/stimuli/spore_stims/simple_18_A_b.gif"
"","5052.405000009341","survey-likert","158","1452817","0.0-38.0","SS1619739886734","similarity_question","","","","","","","","","","","","{""Q0"":5}","[0]","","images/stimuli/spore_stims/simple_03_A_b.gif","images/stimuli/spore_stims/simple_02_A_a.gif"
"","6573.459999999497","survey-likert","159","1459395","0.0-39.0","SS1619739886734","similarity_question","","","","","","","","","","","","{""Q0"":1}","[0]","","images/stimuli/spore_stims/complex_08_A_a.gif","images/stimuli/spore_stims/complex_03_A_b.gif"
"","4036.175000000978","survey-likert","160","1463435","0.0-40.0","SS1619739886734","similarity_question","","","","","","","","","","","","{""Q0"":5}","[0]","","images/stimuli/spore_stims/complex_02_A_a.gif","images/stimuli/spore_stims/complex_09_A_b.gif"
"","9885.825000004843","survey-likert","161","1473325","0.0-41.0","SS1619739886734","similarity_question","","","","","","","","","","","","{""Q0"":3}","[0]","","images/stimuli/spore_stims/complex_05_A_b.gif","images/stimuli/spore_stims/complex_18_A_a.gif"
"","4565.229999992764","survey-likert","162","1477894","0.0-42.0","SS1619739886734","similarity_question","","","","","","","","","","","","{""Q0"":6}","[0]","","images/stimuli/spore_stims/simple_13_A_b.gif","images/stimuli/spore_stims/simple_05_A_a.gif"
"","5269.285000002012","survey-likert","163","1483168","0.0-43.0","SS1619739886734","similarity_question","","","","","","","","","","","","{""Q0"":6}","[0]","","images/stimuli/spore_stims/complex_17_A_b.gif","images/stimuli/spore_stims/complex_09_A_a.gif"
"","4767.7200000034645","survey-likert","164","1487940","0.0-44.0","SS1619739886734","similarity_question","","","","","","","","","","","","{""Q0"":2}","[0]","","images/stimuli/spore_stims/complex_13_A_a.gif","images/stimuli/spore_stims/complex_02_A_b.gif"
"[{""page_index"":0,""viewing_time"":9437.139999994542}]","9437.2949999962","instructions","165","1497381","0.0-45.0","SS1619739886734","instructions","","","","","","","","","","","","","","","",""
"","8323.195000004489","survey-likert","166","1505706","0.0-46.0","SS1619739886734","","","","","","","","","images/stimuli/spore_stims/simple_16_A_a.gif","","","","{""Q0"":2}","[0]","","",""
"","3258.2250000122003","survey-likert","167","1508968","0.0-47.0","SS1619739886734","","","","","","","","","images/stimuli/spore_stims/simple_08_A_a.gif","","","","{""Q0"":1}","[0]","","",""
"","1689.2899999946821","survey-likert","168","1510662","0.0-48.0","SS1619739886734","","","","","","","","","images/stimuli/spore_stims/simple_10_A_a.gif","","","","{""Q0"":0}","[0]","","",""
"","3355.169999995269","survey-likert","169","1514021","0.0-49.0","SS1619739886734","","","","","","","","","images/stimuli/spore_stims/simple_03_A_b.gif","","","","{""Q0"":3}","[0]","","",""
"","3374.5099999941885","survey-likert","170","1517400","0.0-50.0","SS1619739886734","","","","","","","","","images/stimuli/spore_stims/complex_05_A_b.gif","","","","{""Q0"":4}","[0]","","",""
"","3077.50500000827","survey-likert","171","1520481","0.0-51.0","SS1619739886734","","","","","","","","","images/stimuli/spore_stims/complex_02_A_a.gif","","","","{""Q0"":5}","[0]","","",""
"","2991.5999999940395","survey-likert","172","1523477","0.0-52.0","SS1619739886734","","","","","","","","","images/stimuli/spore_stims/simple_04_A_b.gif","","","","{""Q0"":1}","[0]","","",""
"","3426.5750000050757","survey-likert","173","1526908","0.0-53.0","SS1619739886734","","","","","","","","","images/stimuli/spore_stims/complex_13_A_a.gif","","","","{""Q0"":5}","[0]","","",""
"","2756.1950000091456","survey-likert","174","1529668","0.0-54.0","SS1619739886734","","","","","","","","","images/stimuli/spore_stims/complex_08_A_a.gif","","","","{""Q0"":6}","[0]","","",""
"","3195.2849999943282","survey-likert","175","1532868","0.0-55.0","SS1619739886734","","","","","","","","","images/stimuli/spore_stims/simple_13_A_b.gif","","","","{""Q0"":0}","[0]","","",""
"","4923.729999994859","survey-likert","176","1537796","0.0-56.0","SS1619739886734","","","","","","","","","images/stimuli/spore_stims/complex_17_A_b.gif","","","","{""Q0"":4}","[0]","","",""
"","2466.5149999929126","survey-likert","177","1540266","0.0-57.0","SS1619739886734","","","","","","","","","images/stimuli/spore_stims/complex_04_A_b.gif","","","","{""Q0"":4}","[0]","","",""
"[{""page_index"":0,""viewing_time"":3814.8749999962747}]","3815.024999988731","instructions","178","1544085","0.0-58.0","SS1619739886734","instructions","","","","","","","","","","","","","","","",""
"","3722.359999999637","demog-age","179","1547811","0.0-59.0","SS1619739886734","","","","","","","","","","","","","{""age"":""25""}","","","",""
"","13591.925000000745","demog-ethnic-US","180","1561407","0.0-60.0","SS1619739886734","","","","","","","","","","","","","{""ethnicity"":[""Hispanic or Latino""]}","[0]","","",""
"","35898.94500000798","demog-gender-and-education","181","1597311","0.0-61.0","SS1619739886734","","","","","","","","","","","","","{""gender"":""Male"",""education"":""High school diploma""}","[0,1]","","",""
"","75582.65999999992","survey-text","182","1672898","0.0-62.0","SS1619739886734","feedback","","","","","","","","","","","","{""Q0"":""no, it wasn't laggy, it was quite fluid""}","","","",""
"[{""page_index"":0,""viewing_time"":4550.824999998324}]","4550.984999994282","instructions","183","1677451","0.0-63.0","SS1619739886734","instructions","","","","","","","","","","","","","","","",""
