"view_history","rt","trial_type","trial_index","time_elapsed","internal_node_id","subject","stimulus_type","trial_stimulus","key_press","minimum_viewing_duration","trial_looking_time","block_deviant","block_background","exposure_type","stimulus","block_number","block_type","stimulus_displayed","responses","question_order","math_correct_answer","stimulus_left","stimulus_right"
"[{""page_index"":0,""viewing_time"":1759.6000000012282}]","1759.845000000496","instructions","0","1761","0.0-0.0","SS1619739830079","","","","","","","","","","","","","","","","",""
"[{""page_index"":0,""viewing_time"":10968.689999999697},{""page_index"":1,""viewing_time"":3802.154999999402}]","14771.03999999963","instructions","1","18534","0.0-1.0","SS1619739830079","instructions","","","","","","","","","","","","","","","",""
"","6228.965000000244","sequential-stimulus-presentation-old","2","25265","0.0-2.0","SS1619739830079","","","40","500","6728.965000000244","null","null","self_paced","","","","","","","","",""
"","3995.774999999412","sequential-stimulus-presentation-old","3","29768","0.0-3.0","SS1619739830079","","","40","500","4495.774999999412","null","null","self_paced","","","","","","","","",""
"[{""page_index"":0,""viewing_time"":18642.809999999372}]","18643.009999999776","instructions","4","48412","0.0-4.0","SS1619739830079","instructions","","","","","","","","","","","","","","","",""
"","2538.7399999999616","sequential-stimulus-presentation-old","5","65952","0.0-5.0","SS1619739830079","","","40","500","3038.7399999999616","null","null","forced_long","","","","","","","","",""
"","2348.649999999907","sequential-stimulus-presentation-old","6","68816","0.0-6.0","SS1619739830079","","","40","500","2848.649999999907","null","null","forced_long","","","","","","","","",""
"[{""page_index"":0,""viewing_time"":1471.9399999994494}]","1472.0149999993737","instructions","7","70289","0.0-7.0","SS1619739830079","instructions","","","","","","","","","","","","","","","",""
"[{""page_index"":0,""viewing_time"":8710.755000000063},{""page_index"":1,""viewing_time"":8288.150000000314},{""page_index"":2,""viewing_time"":2703.975000000355},{""page_index"":3,""viewing_time"":647.8750000005675},{""page_index"":4,""viewing_time"":544.0349999989849}]","20894.87999999983","instructions","8","91184","0.0-8.0","SS1619739830079","instructions","","","","","","","","","","","","","","","",""
"","null","html-keyboard-response","9","92110","0.0-9.0-0.0","SS1619739830079","","","null","","","","","","<p><img src= images/blank.png width =""600"" height = ""600"" style=""position:fixed;top:50%; left:50%; transform: translate(-50%, -50%); border:5px solid black"">","","","","","","","",""
"","2572.1100000009756","sequential-stimulus-presentation-old","10","95184","0.0-9.0-1.0","SS1619739830079","trial","","40","500","3072.1100000009756","images/stimuli/spore_stims/simple_05_A_b.gif","images/stimuli/spore_stims/simple_10_A_a.gif","forced_short","","0","simple_dissimilar","images/stimuli/spore_stims/simple_10_A_a.gif","","","","",""
"","null","html-keyboard-response","11","96214","0.0-9.0-0.1","SS1619739830079","","","null","","","","","","<p><img src= images/blank.png width =""600"" height = ""600"" style=""position:fixed;top:50%; left:50%; transform: translate(-50%, -50%); border:5px solid black"">","","","","","","","",""
"","6292.295000001104","sequential-stimulus-presentation-old","12","103008","0.0-9.0-1.1","SS1619739830079","trial","","40","500","6792.295000001104","images/stimuli/spore_stims/simple_05_A_b.gif","images/stimuli/spore_stims/simple_10_A_a.gif","forced_short","","0","simple_dissimilar","images/stimuli/spore_stims/simple_10_A_a.gif","","","","",""
"","null","html-keyboard-response","13","104132","0.0-9.0-0.2","SS1619739830079","","","null","","","","","","<p><img src= images/blank.png width =""600"" height = ""600"" style=""position:fixed;top:50%; left:50%; transform: translate(-50%, -50%); border:5px solid black"">","","","","","","","",""
"","1798.305000000255","sequential-stimulus-presentation-old","14","106432","0.0-9.0-1.2","SS1619739830079","trial","","40","500","2298.305000000255","images/stimuli/spore_stims/simple_05_A_b.gif","images/stimuli/spore_stims/simple_10_A_a.gif","forced_short","","0","simple_dissimilar","images/stimuli/spore_stims/simple_10_A_a.gif","","","","",""
"","null","html-keyboard-response","15","107607","0.0-9.0-0.3","SS1619739830079","","","null","","","","","","<p><img src= images/blank.png width =""600"" height = ""600"" style=""position:fixed;top:50%; left:50%; transform: translate(-50%, -50%); border:5px solid black"">","","","","","","","",""
"","182.85000000105356","sequential-stimulus-presentation-old","16","108296","0.0-9.0-1.3","SS1619739830079","trial","","40","500","682.8500000010536","images/stimuli/spore_stims/simple_05_A_b.gif","images/stimuli/spore_stims/simple_10_A_a.gif","forced_short","","0","simple_dissimilar","images/stimuli/spore_stims/simple_10_A_a.gif","","","","",""
"","null","html-keyboard-response","17","109485","0.0-9.0-0.4","SS1619739830079","","","null","","","","","","<p><img src= images/blank.png width =""600"" height = ""600"" style=""position:fixed;top:50%; left:50%; transform: translate(-50%, -50%); border:5px solid black"">","","","","","","","",""
"","1325.4049999995914","sequential-stimulus-presentation-old","18","111312","0.0-9.0-1.4","SS1619739830079","trial","","40","500","1825.4049999995914","images/stimuli/spore_stims/simple_05_A_b.gif","images/stimuli/spore_stims/simple_10_A_a.gif","forced_short","","0","simple_dissimilar","images/stimuli/spore_stims/simple_10_A_a.gif","","","","",""
"","3365.3050000011717","survey-multi-choice","19","114680","0.0-10.0","SS1619739830079","math_question","","","","","","","","","","","","{""Q0"":""9""}","[0]","9","",""
"","null","html-keyboard-response","20","115773","0.0-11.0-0.0","SS1619739830079","","","null","","","","","","<p><img src= images/blank.png width =""600"" height = ""600"" style=""position:fixed;top:50%; left:50%; transform: translate(-50%, -50%); border:5px solid black"">","","","","","","","",""
"","3633.350000000064","sequential-stimulus-presentation-old","21","134408","0.0-11.0-1.0","SS1619739830079","trial","","40","500","4133.350000000064","images/stimuli/spore_stims/simple_14_A_a.gif","images/stimuli/spore_stims/simple_03_A_b.gif","forced_long","","1","simple_dissimilar","images/stimuli/spore_stims/simple_03_A_b.gif","","","","",""
"","null","html-keyboard-response","22","135450","0.0-11.0-0.1","SS1619739830079","","","null","","","","","","<p><img src= images/blank.png width =""600"" height = ""600"" style=""position:fixed;top:50%; left:50%; transform: translate(-50%, -50%); border:5px solid black"">","","","","","","","",""
"","6751.7399999997","sequential-stimulus-presentation-old","23","142704","0.0-11.0-1.1","SS1619739830079","trial","","40","500","7251.7399999997","images/stimuli/spore_stims/simple_14_A_a.gif","images/stimuli/spore_stims/simple_03_A_b.gif","forced_long","","1","simple_dissimilar","images/stimuli/spore_stims/simple_03_A_b.gif","","","","",""
"","null","html-keyboard-response","24","143832","0.0-11.0-0.2","SS1619739830079","","","null","","","","","","<p><img src= images/blank.png width =""600"" height = ""600"" style=""position:fixed;top:50%; left:50%; transform: translate(-50%, -50%); border:5px solid black"">","","","","","","","",""
"","2817.8550000011455","sequential-stimulus-presentation-old","25","147152","0.0-11.0-1.2","SS1619739830079","trial","","40","500","3317.8550000011455","images/stimuli/spore_stims/simple_14_A_a.gif","images/stimuli/spore_stims/simple_03_A_b.gif","forced_long","","1","simple_dissimilar","images/stimuli/spore_stims/simple_03_A_b.gif","","","","",""
"","null","html-keyboard-response","26","148193","0.0-11.0-0.3","SS1619739830079","","","null","","","","","","<p><img src= images/blank.png width =""600"" height = ""600"" style=""position:fixed;top:50%; left:50%; transform: translate(-50%, -50%); border:5px solid black"">","","","","","","","",""
"","1224.5300000013085","sequential-stimulus-presentation-old","27","149920","0.0-11.0-1.3","SS1619739830079","trial","","40","500","1724.5300000013085","images/stimuli/spore_stims/simple_14_A_a.gif","images/stimuli/spore_stims/simple_03_A_b.gif","forced_long","","1","simple_dissimilar","images/stimuli/spore_stims/simple_03_A_b.gif","","","","",""
"","null","html-keyboard-response","28","151118","0.0-11.0-0.4","SS1619739830079","","","null","","","","","","<p><img src= images/blank.png width =""600"" height = ""600"" style=""position:fixed;top:50%; left:50%; transform: translate(-50%, -50%); border:5px solid black"">","","","","","","","",""
"","1468.259999999631","sequential-stimulus-presentation-old","29","153088","0.0-11.0-1.4","SS1619739830079","trial","","40","500","1968.259999999631","images/stimuli/spore_stims/simple_14_A_a.gif","images/stimuli/spore_stims/simple_03_A_b.gif","forced_long","","1","simple_dissimilar","images/stimuli/spore_stims/simple_03_A_b.gif","","","","",""
"","2797.5950000000303","survey-multi-choice","30","155888","0.0-12.0","SS1619739830079","math_question","","","","","","","","","","","","{""Q0"":""8""}","[0]","8","",""
"","null","html-keyboard-response","31","156981","0.0-13.0-0.0","SS1619739830079","","","null","","","","","","<p><img src= images/blank.png width =""600"" height = ""600"" style=""position:fixed;top:50%; left:50%; transform: translate(-50%, -50%); border:5px solid black"">","","","","","","","",""
"","3755.7949999991397","sequential-stimulus-presentation-old","32","161240","0.0-13.0-1.0","SS1619739830079","trial","","40","500","4255.79499999914","images/stimuli/spore_stims/complex_02_A_b.gif","images/stimuli/spore_stims/complex_04_A_a.gif","self_paced","","2","complex_dissimilar","images/stimuli/spore_stims/complex_04_A_a.gif","","","","",""
"","null","html-keyboard-response","33","162513","0.0-13.0-0.1","SS1619739830079","","","null","","","","","","<p><img src= images/blank.png width =""600"" height = ""600"" style=""position:fixed;top:50%; left:50%; transform: translate(-50%, -50%); border:5px solid black"">","","","","","","","",""
"","1765.5699999995995","sequential-stimulus-presentation-old","34","164784","0.0-13.0-1.1","SS1619739830079","trial","","40","500","2265.5699999995995","images/stimuli/spore_stims/complex_02_A_b.gif","images/stimuli/spore_stims/complex_04_A_a.gif","self_paced","","2","complex_dissimilar","images/stimuli/spore_stims/complex_04_A_a.gif","","","","",""
"","null","html-keyboard-response","35","165887","0.0-13.0-0.2","SS1619739830079","","","null","","","","","","<p><img src= images/blank.png width =""600"" height = ""600"" style=""position:fixed;top:50%; left:50%; transform: translate(-50%, -50%); border:5px solid black"">","","","","","","","",""
"","1613.6599999990722","sequential-stimulus-presentation-old","36","168016","0.0-13.0-1.2","SS1619739830079","trial","","40","500","2113.659999999072","images/stimuli/spore_stims/complex_02_A_b.gif","images/stimuli/spore_stims/complex_04_A_a.gif","self_paced","","2","complex_dissimilar","images/stimuli/spore_stims/complex_04_A_a.gif","","","","",""
"","null","html-keyboard-response","37","168829","0.0-13.0-0.3","SS1619739830079","","","null","","","","","","<p><img src= images/blank.png width =""600"" height = ""600"" style=""position:fixed;top:50%; left:50%; transform: translate(-50%, -50%); border:5px solid black"">","","","","","","","",""
"","5694.414999999921","sequential-stimulus-presentation-old","38","175025","0.0-13.0-1.3","SS1619739830079","trial","","40","500","6194.414999999921","images/stimuli/spore_stims/complex_02_A_b.gif","images/stimuli/spore_stims/complex_04_A_a.gif","self_paced","","2","complex_dissimilar","images/stimuli/spore_stims/complex_02_A_b.gif","","","","",""
"","null","html-keyboard-response","39","176058","0.0-13.0-0.4","SS1619739830079","","","null","","","","","","<p><img src= images/blank.png width =""600"" height = ""600"" style=""position:fixed;top:50%; left:50%; transform: translate(-50%, -50%); border:5px solid black"">","","","","","","","",""
"","1807.6799999998766","sequential-stimulus-presentation-old","40","178369","0.0-13.0-1.4","SS1619739830079","trial","","40","500","2307.6799999998766","images/stimuli/spore_stims/complex_02_A_b.gif","images/stimuli/spore_stims/complex_04_A_a.gif","self_paced","","2","complex_dissimilar","images/stimuli/spore_stims/complex_04_A_a.gif","","","","",""
"","2953.154999999213","survey-multi-choice","41","181323","0.0-14.0","SS1619739830079","math_question","","","","","","","","","","","","{""Q0"":""6""}","[0]","6","",""
"","null","html-keyboard-response","42","182404","0.0-15.0-0.0","SS1619739830079","","","null","","","","","","<p><img src= images/blank.png width =""600"" height = ""600"" style=""position:fixed;top:50%; left:50%; transform: translate(-50%, -50%); border:5px solid black"">","","","","","","","",""
"","1557.3899999999267","sequential-stimulus-presentation-old","43","184465","0.0-15.0-1.0","SS1619739830079","trial","","40","500","2057.3899999999267","images/stimuli/spore_stims/simple_19_A_b.gif","images/stimuli/spore_stims/simple_08_A_a.gif","forced_short","","3","simple_dissimilar","images/stimuli/spore_stims/simple_08_A_a.gif","","","","",""
"","null","html-keyboard-response","44","185480","0.0-15.0-0.1","SS1619739830079","","","null","","","","","","<p><img src= images/blank.png width =""600"" height = ""600"" style=""position:fixed;top:50%; left:50%; transform: translate(-50%, -50%); border:5px solid black"">","","","","","","","",""
"","2282.920000001468","sequential-stimulus-presentation-old","45","188265","0.0-15.0-1.1","SS1619739830079","trial","","40","500","2782.920000001468","images/stimuli/spore_stims/simple_19_A_b.gif","images/stimuli/spore_stims/simple_08_A_a.gif","forced_short","","3","simple_dissimilar","images/stimuli/spore_stims/simple_08_A_a.gif","","","","",""
"","null","html-keyboard-response","46","189540","0.0-15.0-0.2","SS1619739830079","","","null","","","","","","<p><img src= images/blank.png width =""600"" height = ""600"" style=""position:fixed;top:50%; left:50%; transform: translate(-50%, -50%); border:5px solid black"">","","","","","","","",""
"","2822.439999999915","sequential-stimulus-presentation-old","47","192865","0.0-15.0-1.2","SS1619739830079","trial","","40","500","3322.439999999915","images/stimuli/spore_stims/simple_19_A_b.gif","images/stimuli/spore_stims/simple_08_A_a.gif","forced_short","","3","simple_dissimilar","images/stimuli/spore_stims/simple_08_A_a.gif","","","","",""
"","null","html-keyboard-response","48","193886","0.0-15.0-0.3","SS1619739830079","","","null","","","","","","<p><img src= images/blank.png width =""600"" height = ""600"" style=""position:fixed;top:50%; left:50%; transform: translate(-50%, -50%); border:5px solid black"">","","","","","","","",""
"","1196.1999999984982","sequential-stimulus-presentation-old","49","195585","0.0-15.0-1.3","SS1619739830079","trial","","40","500","1696.1999999984982","images/stimuli/spore_stims/simple_19_A_b.gif","images/stimuli/spore_stims/simple_08_A_a.gif","forced_short","","3","simple_dissimilar","images/stimuli/spore_stims/simple_08_A_a.gif","","","","",""
"","null","html-keyboard-response","50","196515","0.0-15.0-0.4","SS1619739830079","","","null","","","","","","<p><img src= images/blank.png width =""600"" height = ""600"" style=""position:fixed;top:50%; left:50%; transform: translate(-50%, -50%); border:5px solid black"">","","","","","","","",""
"","1374.9950000001118","sequential-stimulus-presentation-old","51","198393","0.0-15.0-1.4","SS1619739830079","trial","","40","500","1874.9950000001118","images/stimuli/spore_stims/simple_19_A_b.gif","images/stimuli/spore_stims/simple_08_A_a.gif","forced_short","","3","simple_dissimilar","images/stimuli/spore_stims/simple_08_A_a.gif","","","","",""
"","null","html-keyboard-response","52","199381","0.0-15.0-0.5","SS1619739830079","","","null","","","","","","<p><img src= images/blank.png width =""600"" height = ""600"" style=""position:fixed;top:50%; left:50%; transform: translate(-50%, -50%); border:5px solid black"">","","","","","","","",""
"","1253.7149999989197","sequential-stimulus-presentation-old","53","201137","0.0-15.0-1.5","SS1619739830079","trial","","40","500","1753.7149999989197","images/stimuli/spore_stims/simple_19_A_b.gif","images/stimuli/spore_stims/simple_08_A_a.gif","forced_short","","3","simple_dissimilar","images/stimuli/spore_stims/simple_08_A_a.gif","","","","",""
"","2634.154999999737","survey-multi-choice","54","203772","0.0-16.0","SS1619739830079","math_question","","","","","","","","","","","","{""Q0"":""12""}","[0]","12","",""
"","null","html-keyboard-response","55","204788","0.0-17.0-0.0","SS1619739830079","","","null","","","","","","<p><img src= images/blank.png width =""600"" height = ""600"" style=""position:fixed;top:50%; left:50%; transform: translate(-50%, -50%); border:5px solid black"">","","","","","","","",""
"","947.079999999929","sequential-stimulus-presentation-old","56","220745","0.0-17.0-1.0","SS1619739830079","trial","","40","500","1447.079999999929","images/stimuli/spore_stims/complex_12_A_a.gif","images/stimuli/spore_stims/complex_19_A_b.gif","forced_long","","4","complex_dissimilar","images/stimuli/spore_stims/complex_19_A_b.gif","","","","",""
"","null","html-keyboard-response","57","221898","0.0-17.0-0.1","SS1619739830079","","","null","","","","","","<p><img src= images/blank.png width =""600"" height = ""600"" style=""position:fixed;top:50%; left:50%; transform: translate(-50%, -50%); border:5px solid black"">","","","","","","","",""
"","5536.449999999604","sequential-stimulus-presentation-old","58","227937","0.0-17.0-1.1","SS1619739830079","trial","","40","500","6036.449999999604","images/stimuli/spore_stims/complex_12_A_a.gif","images/stimuli/spore_stims/complex_19_A_b.gif","forced_long","","4","complex_dissimilar","images/stimuli/spore_stims/complex_12_A_a.gif","","","","",""
"","null","html-keyboard-response","59","228907","0.0-17.0-0.2","SS1619739830079","","","null","","","","","","<p><img src= images/blank.png width =""600"" height = ""600"" style=""position:fixed;top:50%; left:50%; transform: translate(-50%, -50%); border:5px solid black"">","","","","","","","",""
"","2736.300000000483","sequential-stimulus-presentation-old","60","232145","0.0-17.0-1.2","SS1619739830079","trial","","40","500","3236.300000000483","images/stimuli/spore_stims/complex_12_A_a.gif","images/stimuli/spore_stims/complex_19_A_b.gif","forced_long","","4","complex_dissimilar","images/stimuli/spore_stims/complex_19_A_b.gif","","","","",""
"","null","html-keyboard-response","61","233119","0.0-17.0-0.3","SS1619739830079","","","null","","","","","","<p><img src= images/blank.png width =""600"" height = ""600"" style=""position:fixed;top:50%; left:50%; transform: translate(-50%, -50%); border:5px solid black"">","","","","","","","",""
"","3233.2900000000955","sequential-stimulus-presentation-old","62","236857","0.0-17.0-1.3","SS1619739830079","trial","","40","500","3733.2900000000955","images/stimuli/spore_stims/complex_12_A_a.gif","images/stimuli/spore_stims/complex_19_A_b.gif","forced_long","","4","complex_dissimilar","images/stimuli/spore_stims/complex_19_A_b.gif","","","","",""
"","null","html-keyboard-response","63","238037","0.0-17.0-0.4","SS1619739830079","","","null","","","","","","<p><img src= images/blank.png width =""600"" height = ""600"" style=""position:fixed;top:50%; left:50%; transform: translate(-50%, -50%); border:5px solid black"">","","","","","","","",""
"","707.7900000003865","sequential-stimulus-presentation-old","64","239249","0.0-17.0-1.4","SS1619739830079","trial","","40","500","1207.7900000003865","images/stimuli/spore_stims/complex_12_A_a.gif","images/stimuli/spore_stims/complex_19_A_b.gif","forced_long","","4","complex_dissimilar","images/stimuli/spore_stims/complex_19_A_b.gif","","","","",""
"","null","html-keyboard-response","65","240338","0.0-17.0-0.5","SS1619739830079","","","null","","","","","","<p><img src= images/blank.png width =""600"" height = ""600"" style=""position:fixed;top:50%; left:50%; transform: translate(-50%, -50%); border:5px solid black"">","","","","","","","",""
"","992.6049999994575","sequential-stimulus-presentation-old","66","241833","0.0-17.0-1.5","SS1619739830079","trial","","40","500","1492.6049999994575","images/stimuli/spore_stims/complex_12_A_a.gif","images/stimuli/spore_stims/complex_19_A_b.gif","forced_long","","4","complex_dissimilar","images/stimuli/spore_stims/complex_19_A_b.gif","","","","",""
"","3505.6650000006193","survey-multi-choice","67","245340","0.0-18.0","SS1619739830079","math_question","","","","","","","","","","","","{""Q0"":""5""}","[0]","5","",""
"","null","html-keyboard-response","68","246374","0.0-19.0-0.0","SS1619739830079","","","null","","","","","","<p><img src= images/blank.png width =""600"" height = ""600"" style=""position:fixed;top:50%; left:50%; transform: translate(-50%, -50%); border:5px solid black"">","","","","","","","",""
"","3157.014999998879","sequential-stimulus-presentation-old","69","250033","0.0-19.0-1.0","SS1619739830079","trial","","40","500","3657.014999998879","images/stimuli/spore_stims/simple_06_A_b.gif","images/stimuli/spore_stims/simple_07_A_a.gif","self_paced","","5","simple_dissimilar","images/stimuli/spore_stims/simple_07_A_a.gif","","","","",""
"","null","html-keyboard-response","70","250948","0.0-19.0-0.1","SS1619739830079","","","null","","","","","","<p><img src= images/blank.png width =""600"" height = ""600"" style=""position:fixed;top:50%; left:50%; transform: translate(-50%, -50%); border:5px solid black"">","","","","","","","",""
"","3094.465000000113","sequential-stimulus-presentation-old","71","254545","0.0-19.0-1.1","SS1619739830079","trial","","40","500","3594.465000000113","images/stimuli/spore_stims/simple_06_A_b.gif","images/stimuli/spore_stims/simple_07_A_a.gif","self_paced","","5","simple_dissimilar","images/stimuli/spore_stims/simple_07_A_a.gif","","","","",""
"","null","html-keyboard-response","72","255834","0.0-19.0-0.2","SS1619739830079","","","null","","","","","","<p><img src= images/blank.png width =""600"" height = ""600"" style=""position:fixed;top:50%; left:50%; transform: translate(-50%, -50%); border:5px solid black"">","","","","","","","",""
"","1464.49500000017","sequential-stimulus-presentation-old","73","257801","0.0-19.0-1.2","SS1619739830079","trial","","40","500","1964.49500000017","images/stimuli/spore_stims/simple_06_A_b.gif","images/stimuli/spore_stims/simple_07_A_a.gif","self_paced","","5","simple_dissimilar","images/stimuli/spore_stims/simple_07_A_a.gif","","","","",""
"","null","html-keyboard-response","74","258965","0.0-19.0-0.3","SS1619739830079","","","null","","","","","","<p><img src= images/blank.png width =""600"" height = ""600"" style=""position:fixed;top:50%; left:50%; transform: translate(-50%, -50%); border:5px solid black"">","","","","","","","",""
"","1343.525000000198","sequential-stimulus-presentation-old","75","260825","0.0-19.0-1.3","SS1619739830079","trial","","40","500","1843.525000000198","images/stimuli/spore_stims/simple_06_A_b.gif","images/stimuli/spore_stims/simple_07_A_a.gif","self_paced","","5","simple_dissimilar","images/stimuli/spore_stims/simple_07_A_a.gif","","","","",""
"","null","html-keyboard-response","76","261754","0.0-19.0-0.4","SS1619739830079","","","null","","","","","","<p><img src= images/blank.png width =""600"" height = ""600"" style=""position:fixed;top:50%; left:50%; transform: translate(-50%, -50%); border:5px solid black"">","","","","","","","",""
"","910.5099999997183","sequential-stimulus-presentation-old","77","263169","0.0-19.0-1.4","SS1619739830079","trial","","40","500","1410.5099999997183","images/stimuli/spore_stims/simple_06_A_b.gif","images/stimuli/spore_stims/simple_07_A_a.gif","self_paced","","5","simple_dissimilar","images/stimuli/spore_stims/simple_07_A_a.gif","","","","",""
"","null","html-keyboard-response","78","264459","0.0-19.0-0.5","SS1619739830079","","","null","","","","","","<p><img src= images/blank.png width =""600"" height = ""600"" style=""position:fixed;top:50%; left:50%; transform: translate(-50%, -50%); border:5px solid black"">","","","","","","","",""
"","591.28500000044","sequential-stimulus-presentation-old","79","265553","0.0-19.0-1.5","SS1619739830079","trial","","40","500","1091.28500000044","images/stimuli/spore_stims/simple_06_A_b.gif","images/stimuli/spore_stims/simple_07_A_a.gif","self_paced","","5","simple_dissimilar","images/stimuli/spore_stims/simple_07_A_a.gif","","","","",""
"","3116.955000001297","survey-multi-choice","80","268671","0.0-20.0","SS1619739830079","math_question","","","","","","","","","","","","{""Q0"":""15""}","[0]","15","",""
"","null","html-keyboard-response","81","269984","0.0-21.0-0.0","SS1619739830079","","","null","","","","","","<p><img src= images/blank.png width =""600"" height = ""600"" style=""position:fixed;top:50%; left:50%; transform: translate(-50%, -50%); border:5px solid black"">","","","","","","","",""
"","4570.239999999059","sequential-stimulus-presentation-old","82","275057","0.0-21.0-1.0","SS1619739830079","trial","","40","500","5070.239999999059","images/stimuli/spore_stims/complex_19_A_a.gif","images/stimuli/spore_stims/complex_09_A_b.gif","forced_short","","6","complex_dissimilar","images/stimuli/spore_stims/complex_09_A_b.gif","","","","",""
"","null","html-keyboard-response","83","276213","0.0-21.0-0.1","SS1619739830079","","","null","","","","","","<p><img src= images/blank.png width =""600"" height = ""600"" style=""position:fixed;top:50%; left:50%; transform: translate(-50%, -50%); border:5px solid black"">","","","","","","","",""
"","4420.860000000161","sequential-stimulus-presentation-old","84","281137","0.0-21.0-1.1","SS1619739830079","trial","","40","500","4920.860000000161","images/stimuli/spore_stims/complex_19_A_a.gif","images/stimuli/spore_stims/complex_09_A_b.gif","forced_short","","6","complex_dissimilar","images/stimuli/spore_stims/complex_09_A_b.gif","","","","",""
"","null","html-keyboard-response","85","282012","0.0-21.0-0.2","SS1619739830079","","","null","","","","","","<p><img src= images/blank.png width =""600"" height = ""600"" style=""position:fixed;top:50%; left:50%; transform: translate(-50%, -50%); border:5px solid black"">","","","","","","","",""
"","2565.77499999915","sequential-stimulus-presentation-old","86","285081","0.0-21.0-1.2","SS1619739830079","trial","","40","500","3065.77499999915","images/stimuli/spore_stims/complex_19_A_a.gif","images/stimuli/spore_stims/complex_09_A_b.gif","forced_short","","6","complex_dissimilar","images/stimuli/spore_stims/complex_09_A_b.gif","","","","",""
"","null","html-keyboard-response","87","285919","0.0-21.0-0.3","SS1619739830079","","","null","","","","","","<p><img src= images/blank.png width =""600"" height = ""600"" style=""position:fixed;top:50%; left:50%; transform: translate(-50%, -50%); border:5px solid black"">","","","","","","","",""
"","691.6250000012806","sequential-stimulus-presentation-old","88","287113","0.0-21.0-1.3","SS1619739830079","trial","","40","500","1191.6250000012806","images/stimuli/spore_stims/complex_19_A_a.gif","images/stimuli/spore_stims/complex_09_A_b.gif","forced_short","","6","complex_dissimilar","images/stimuli/spore_stims/complex_09_A_b.gif","","","","",""
"","3077.0899999989197","survey-multi-choice","89","290191","0.0-22.0","SS1619739830079","math_question","","","","","","","","","","","","{""Q0"":""12""}","[0]","12","",""
"","null","html-keyboard-response","90","291413","0.0-23.0-0.0","SS1619739830079","","","null","","","","","","<p><img src= images/blank.png width =""600"" height = ""600"" style=""position:fixed;top:50%; left:50%; transform: translate(-50%, -50%); border:5px solid black"">","","","","","","","",""
"","407.6750000003958","sequential-stimulus-presentation-old","91","306824","0.0-23.0-1.0","SS1619739830079","trial","","40","500","907.6750000003958","images/stimuli/spore_stims/complex_10_A_a.gif","images/stimuli/spore_stims/complex_06_A_b.gif","forced_long","","7","complex_dissimilar","images/stimuli/spore_stims/complex_06_A_b.gif","","","","",""
"","null","html-keyboard-response","92","307844","0.0-23.0-0.1","SS1619739830079","","","null","","","","","","<p><img src= images/blank.png width =""600"" height = ""600"" style=""position:fixed;top:50%; left:50%; transform: translate(-50%, -50%); border:5px solid black"">","","","","","","","",""
"","5301.504999999481","sequential-stimulus-presentation-old","93","313648","0.0-23.0-1.1","SS1619739830079","trial","","40","500","5801.504999999481","images/stimuli/spore_stims/complex_10_A_a.gif","images/stimuli/spore_stims/complex_06_A_b.gif","forced_long","","7","complex_dissimilar","images/stimuli/spore_stims/complex_10_A_a.gif","","","","",""
"","null","html-keyboard-response","94","314455","0.0-23.0-0.2","SS1619739830079","","","null","","","","","","<p><img src= images/blank.png width =""600"" height = ""600"" style=""position:fixed;top:50%; left:50%; transform: translate(-50%, -50%); border:5px solid black"">","","","","","","","",""
"","3039.229999998526","sequential-stimulus-presentation-old","95","318008","0.0-23.0-1.2","SS1619739830079","trial","","40","500","3539.229999998526","images/stimuli/spore_stims/complex_10_A_a.gif","images/stimuli/spore_stims/complex_06_A_b.gif","forced_long","","7","complex_dissimilar","images/stimuli/spore_stims/complex_06_A_b.gif","","","","",""
"","null","html-keyboard-response","96","318988","0.0-23.0-0.3","SS1619739830079","","","null","","","","","","<p><img src= images/blank.png width =""600"" height = ""600"" style=""position:fixed;top:50%; left:50%; transform: translate(-50%, -50%); border:5px solid black"">","","","","","","","",""
"","1165.3549999991665","sequential-stimulus-presentation-old","97","320656","0.0-23.0-1.3","SS1619739830079","trial","","40","500","1665.3549999991665","images/stimuli/spore_stims/complex_10_A_a.gif","images/stimuli/spore_stims/complex_06_A_b.gif","forced_long","","7","complex_dissimilar","images/stimuli/spore_stims/complex_06_A_b.gif","","","","",""
"","3923.3449999992736","survey-multi-choice","98","324581","0.0-24.0","SS1619739830079","math_question","","","","","","","","","","","","{""Q0"":""11""}","[0]","11","",""
"","null","html-keyboard-response","99","325445","0.0-25.0-0.0","SS1619739830079","","","null","","","","","","<p><img src= images/blank.png width =""600"" height = ""600"" style=""position:fixed;top:50%; left:50%; transform: translate(-50%, -50%); border:5px solid black"">","","","","","","","",""
"","8836.909999999974","sequential-stimulus-presentation-old","100","334784","0.0-25.0-1.0","SS1619739830079","trial","","40","500","9336.909999999974","images/stimuli/spore_stims/complex_18_A_b.gif","images/stimuli/spore_stims/complex_01_A_a.gif","self_paced","","8","complex_dissimilar","images/stimuli/spore_stims/complex_01_A_a.gif","","","","",""
"","null","html-keyboard-response","101","335822","0.0-25.0-0.1","SS1619739830079","","","null","","","","","","<p><img src= images/blank.png width =""600"" height = ""600"" style=""position:fixed;top:50%; left:50%; transform: translate(-50%, -50%); border:5px solid black"">","","","","","","","",""
"","3131.150000001071","sequential-stimulus-presentation-old","102","339456","0.0-25.0-1.1","SS1619739830079","trial","","40","500","3631.150000001071","images/stimuli/spore_stims/complex_18_A_b.gif","images/stimuli/spore_stims/complex_01_A_a.gif","self_paced","","8","complex_dissimilar","images/stimuli/spore_stims/complex_01_A_a.gif","","","","",""
"","null","html-keyboard-response","103","340321","0.0-25.0-0.2","SS1619739830079","","","null","","","","","","<p><img src= images/blank.png width =""600"" height = ""600"" style=""position:fixed;top:50%; left:50%; transform: translate(-50%, -50%); border:5px solid black"">","","","","","","","",""
"","1008.2600000005332","sequential-stimulus-presentation-old","104","341832","0.0-25.0-1.2","SS1619739830079","trial","","40","500","1508.2600000005332","images/stimuli/spore_stims/complex_18_A_b.gif","images/stimuli/spore_stims/complex_01_A_a.gif","self_paced","","8","complex_dissimilar","images/stimuli/spore_stims/complex_01_A_a.gif","","","","",""
"","null","html-keyboard-response","105","342973","0.0-25.0-0.3","SS1619739830079","","","null","","","","","","<p><img src= images/blank.png width =""600"" height = ""600"" style=""position:fixed;top:50%; left:50%; transform: translate(-50%, -50%); border:5px solid black"">","","","","","","","",""
"","1917.0200000007753","sequential-stimulus-presentation-old","106","345392","0.0-25.0-1.3","SS1619739830079","trial","","40","500","2417.0200000007753","images/stimuli/spore_stims/complex_18_A_b.gif","images/stimuli/spore_stims/complex_01_A_a.gif","self_paced","","8","complex_dissimilar","images/stimuli/spore_stims/complex_01_A_a.gif","","","","",""
"","4163.435000000405","survey-multi-choice","107","349558","0.0-26.0","SS1619739830079","math_question","","","","","","","","","","","","{""Q0"":""3""}","[0]","3","",""
"","null","html-keyboard-response","108","350562","0.0-27.0-0.0","SS1619739830079","","","null","","","","","","<p><img src= images/blank.png width =""600"" height = ""600"" style=""position:fixed;top:50%; left:50%; transform: translate(-50%, -50%); border:5px solid black"">","","","","","","","",""
"","7350.495000000577","sequential-stimulus-presentation-old","109","358416","0.0-27.0-1.0","SS1619739830079","trial","","40","500","7850.495000000577","images/stimuli/spore_stims/simple_06_A_a.gif","images/stimuli/spore_stims/simple_20_A_b.gif","self_paced","","9","simple_dissimilar","images/stimuli/spore_stims/simple_20_A_b.gif","","","","",""
"","null","html-keyboard-response","110","359461","0.0-27.0-0.1","SS1619739830079","","","null","","","","","","<p><img src= images/blank.png width =""600"" height = ""600"" style=""position:fixed;top:50%; left:50%; transform: translate(-50%, -50%); border:5px solid black"">","","","","","","","",""
"","2968.914999999455","sequential-stimulus-presentation-old","111","362937","0.0-27.0-1.1","SS1619739830079","trial","","40","500","3468.914999999455","images/stimuli/spore_stims/simple_06_A_a.gif","images/stimuli/spore_stims/simple_20_A_b.gif","self_paced","","9","simple_dissimilar","images/stimuli/spore_stims/simple_20_A_b.gif","","","","",""
"","null","html-keyboard-response","112","363992","0.0-27.0-0.2","SS1619739830079","","","null","","","","","","<p><img src= images/blank.png width =""600"" height = ""600"" style=""position:fixed;top:50%; left:50%; transform: translate(-50%, -50%); border:5px solid black"">","","","","","","","",""
"","4040.320000000065","sequential-stimulus-presentation-old","113","368536","0.0-27.0-1.2","SS1619739830079","trial","","40","500","4540.320000000065","images/stimuli/spore_stims/simple_06_A_a.gif","images/stimuli/spore_stims/simple_20_A_b.gif","self_paced","","9","simple_dissimilar","images/stimuli/spore_stims/simple_20_A_b.gif","","","","",""
"","null","html-keyboard-response","114","369568","0.0-27.0-0.3","SS1619739830079","","","null","","","","","","<p><img src= images/blank.png width =""600"" height = ""600"" style=""position:fixed;top:50%; left:50%; transform: translate(-50%, -50%); border:5px solid black"">","","","","","","","",""
"","4697.845000000612","sequential-stimulus-presentation-old","115","374768","0.0-27.0-1.3","SS1619739830079","trial","","40","500","5197.845000000612","images/stimuli/spore_stims/simple_06_A_a.gif","images/stimuli/spore_stims/simple_20_A_b.gif","self_paced","","9","simple_dissimilar","images/stimuli/spore_stims/simple_06_A_a.gif","","","","",""
"","3371.9199999995762","survey-multi-choice","116","378142","0.0-28.0","SS1619739830079","math_question","","","","","","","","","","","","{""Q0"":""10""}","[0]","10","",""
"","null","html-keyboard-response","117","379253","0.0-29.0-0.0","SS1619739830079","","","null","","","","","","<p><img src= images/blank.png width =""600"" height = ""600"" style=""position:fixed;top:50%; left:50%; transform: translate(-50%, -50%); border:5px solid black"">","","","","","","","",""
"","2395.880000000063","sequential-stimulus-presentation-old","118","382152","0.0-29.0-1.0","SS1619739830079","trial","","40","500","2895.880000000063","images/stimuli/spore_stims/complex_13_A_b.gif","images/stimuli/spore_stims/complex_05_A_a.gif","forced_short","","10","complex_dissimilar","images/stimuli/spore_stims/complex_05_A_a.gif","","","","",""
"","null","html-keyboard-response","119","383102","0.0-29.0-0.1","SS1619739830079","","","null","","","","","","<p><img src= images/blank.png width =""600"" height = ""600"" style=""position:fixed;top:50%; left:50%; transform: translate(-50%, -50%); border:5px solid black"">","","","","","","","",""
"","10395.134999998845","sequential-stimulus-presentation-old","120","394000","0.0-29.0-1.1","SS1619739830079","trial","","40","500","10895.134999998845","images/stimuli/spore_stims/complex_13_A_b.gif","images/stimuli/spore_stims/complex_05_A_a.gif","forced_short","","10","complex_dissimilar","images/stimuli/spore_stims/complex_05_A_a.gif","","","","",""
"","null","html-keyboard-response","121","395025","0.0-29.0-0.2","SS1619739830079","","","null","","","","","","<p><img src= images/blank.png width =""600"" height = ""600"" style=""position:fixed;top:50%; left:50%; transform: translate(-50%, -50%); border:5px solid black"">","","","","","","","",""
"","3095.749999998603","sequential-stimulus-presentation-old","122","398624","0.0-29.0-1.2","SS1619739830079","trial","","40","500","3595.749999998603","images/stimuli/spore_stims/complex_13_A_b.gif","images/stimuli/spore_stims/complex_05_A_a.gif","forced_short","","10","complex_dissimilar","images/stimuli/spore_stims/complex_05_A_a.gif","","","","",""
"","null","html-keyboard-response","123","399767","0.0-29.0-0.3","SS1619739830079","","","null","","","","","","<p><img src= images/blank.png width =""600"" height = ""600"" style=""position:fixed;top:50%; left:50%; transform: translate(-50%, -50%); border:5px solid black"">","","","","","","","",""
"","7821.149999999732","sequential-stimulus-presentation-old","124","408096","0.0-29.0-1.3","SS1619739830079","trial","","40","500","8321.149999999732","images/stimuli/spore_stims/complex_13_A_b.gif","images/stimuli/spore_stims/complex_05_A_a.gif","forced_short","","10","complex_dissimilar","images/stimuli/spore_stims/complex_13_A_b.gif","","","","",""
"","null","html-keyboard-response","125","409091","0.0-29.0-0.4","SS1619739830079","","","null","","","","","","<p><img src= images/blank.png width =""600"" height = ""600"" style=""position:fixed;top:50%; left:50%; transform: translate(-50%, -50%); border:5px solid black"">","","","","","","","",""
"","1597.710000000021","sequential-stimulus-presentation-old","126","411193","0.0-29.0-1.4","SS1619739830079","trial","","40","500","2097.710000000021","images/stimuli/spore_stims/complex_13_A_b.gif","images/stimuli/spore_stims/complex_05_A_a.gif","forced_short","","10","complex_dissimilar","images/stimuli/spore_stims/complex_13_A_b.gif","","","","",""
"","3110.344999999157","survey-multi-choice","127","414305","0.0-30.0","SS1619739830079","math_question","","","","","","","","","","","","{""Q0"":""9""}","[0]","9","",""
"","null","html-keyboard-response","128","415199","0.0-31.0-0.0","SS1619739830079","","","null","","","","","","<p><img src= images/blank.png width =""600"" height = ""600"" style=""position:fixed;top:50%; left:50%; transform: translate(-50%, -50%); border:5px solid black"">","","","","","","","",""
"","8045.740000001388","sequential-stimulus-presentation-old","129","438249","0.0-31.0-1.0","SS1619739830079","trial","","40","500","8545.740000001388","images/stimuli/spore_stims/simple_11_A_a.gif","images/stimuli/spore_stims/simple_15_A_b.gif","forced_long","","11","simple_dissimilar","images/stimuli/spore_stims/simple_15_A_b.gif","","","","",""
"","null","html-keyboard-response","130","439115","0.0-31.0-0.1","SS1619739830079","","","null","","","","","","<p><img src= images/blank.png width =""600"" height = ""600"" style=""position:fixed;top:50%; left:50%; transform: translate(-50%, -50%); border:5px solid black"">","","","","","","","",""
"","194.80500000098255","sequential-stimulus-presentation-old","131","439817","0.0-31.0-1.1","SS1619739830079","trial","","40","500","694.8050000009825","images/stimuli/spore_stims/simple_11_A_a.gif","images/stimuli/spore_stims/simple_15_A_b.gif","forced_long","","11","simple_dissimilar","images/stimuli/spore_stims/simple_15_A_b.gif","","","","",""
"","null","html-keyboard-response","132","440741","0.0-31.0-0.2","SS1619739830079","","","null","","","","","","<p><img src= images/blank.png width =""600"" height = ""600"" style=""position:fixed;top:50%; left:50%; transform: translate(-50%, -50%); border:5px solid black"">","","","","","","","",""
"","796.2150000003166","sequential-stimulus-presentation-old","133","442041","0.0-31.0-1.2","SS1619739830079","trial","","40","500","1296.2150000003166","images/stimuli/spore_stims/simple_11_A_a.gif","images/stimuli/spore_stims/simple_15_A_b.gif","forced_long","","11","simple_dissimilar","images/stimuli/spore_stims/simple_15_A_b.gif","","","","",""
"","null","html-keyboard-response","134","443191","0.0-31.0-0.3","SS1619739830079","","","null","","","","","","<p><img src= images/blank.png width =""600"" height = ""600"" style=""position:fixed;top:50%; left:50%; transform: translate(-50%, -50%); border:5px solid black"">","","","","","","","",""
"","539.7949999987613","sequential-stimulus-presentation-old","135","444233","0.0-31.0-1.3","SS1619739830079","trial","","40","500","1039.7949999987613","images/stimuli/spore_stims/simple_11_A_a.gif","images/stimuli/spore_stims/simple_15_A_b.gif","forced_long","","11","simple_dissimilar","images/stimuli/spore_stims/simple_15_A_b.gif","","","","",""
"","null","html-keyboard-response","136","445265","0.0-31.0-0.4","SS1619739830079","","","null","","","","","","<p><img src= images/blank.png width =""600"" height = ""600"" style=""position:fixed;top:50%; left:50%; transform: translate(-50%, -50%); border:5px solid black"">","","","","","","","",""
"","3039.570000000822","sequential-stimulus-presentation-old","137","448809","0.0-31.0-1.4","SS1619739830079","trial","","40","500","3539.570000000822","images/stimuli/spore_stims/simple_11_A_a.gif","images/stimuli/spore_stims/simple_15_A_b.gif","forced_long","","11","simple_dissimilar","images/stimuli/spore_stims/simple_15_A_b.gif","","","","",""
"","null","html-keyboard-response","138","449927","0.0-31.0-0.5","SS1619739830079","","","null","","","","","","<p><img src= images/blank.png width =""600"" height = ""600"" style=""position:fixed;top:50%; left:50%; transform: translate(-50%, -50%); border:5px solid black"">","","","","","","","",""
"","5074.279999998864","sequential-stimulus-presentation-old","139","455505","0.0-31.0-1.5","SS1619739830079","trial","","40","500","5574.279999998864","images/stimuli/spore_stims/simple_11_A_a.gif","images/stimuli/spore_stims/simple_15_A_b.gif","forced_long","","11","simple_dissimilar","images/stimuli/spore_stims/simple_15_A_b.gif","","","","",""
"[{""page_index"":0,""viewing_time"":4886.575000000477}]","4886.665000000037","instructions","140","460393","0.0-32.0","SS1619739830079","instructions","","","","","","","","","","","","","","","",""
"","12927.95999999909","survey-likert","141","473323","0.0-33.0","SS1619739830079","similarity_question","","","","","","","","","","","","{""Q0"":2}","[0]","","images/stimuli/spore_stims/complex_10_A_a.gif","images/stimuli/spore_stims/complex_06_A_b.gif"
"","4655.120000001276","survey-likert","142","477981","0.0-34.0","SS1619739830079","similarity_question","","","","","","","","","","","","{""Q0"":3}","[0]","","images/stimuli/spore_stims/simple_05_A_b.gif","images/stimuli/spore_stims/simple_10_A_a.gif"
"","6622.345000001602","survey-likert","143","484606","0.0-35.0","SS1619739830079","similarity_question","","","","","","","","","","","","{""Q0"":1}","[0]","","images/stimuli/spore_stims/simple_20_A_b.gif","images/stimuli/spore_stims/simple_06_A_a.gif"
"","4978.435000000929","survey-likert","144","489587","0.0-36.0","SS1619739830079","similarity_question","","","","","","","","","","","","{""Q0"":1}","[0]","","images/stimuli/spore_stims/simple_11_A_a.gif","images/stimuli/spore_stims/simple_15_A_b.gif"
"","4541.359999999229","survey-likert","145","494131","0.0-37.0","SS1619739830079","similarity_question","","","","","","","","","","","","{""Q0"":4}","[0]","","images/stimuli/spore_stims/simple_08_A_a.gif","images/stimuli/spore_stims/simple_19_A_b.gif"
"","4624.6149999988265","survey-likert","146","498758","0.0-38.0","SS1619739830079","similarity_question","","","","","","","","","","","","{""Q0"":1}","[0]","","images/stimuli/spore_stims/simple_14_A_a.gif","images/stimuli/spore_stims/simple_03_A_b.gif"
"","6483.334999999031","survey-likert","147","505244","0.0-39.0","SS1619739830079","similarity_question","","","","","","","","","","","","{""Q0"":1}","[0]","","images/stimuli/spore_stims/complex_05_A_a.gif","images/stimuli/spore_stims/complex_13_A_b.gif"
"","6745.394999999902","survey-likert","148","511993","0.0-40.0","SS1619739830079","similarity_question","","","","","","","","","","","","{""Q0"":1}","[0]","","images/stimuli/spore_stims/complex_04_A_a.gif","images/stimuli/spore_stims/complex_02_A_b.gif"
"","5647.614999999874","survey-likert","149","517643","0.0-41.0","SS1619739830079","similarity_question","","","","","","","","","","","","{""Q0"":2}","[0]","","images/stimuli/spore_stims/complex_09_A_b.gif","images/stimuli/spore_stims/complex_19_A_a.gif"
"","6515.409999999916","survey-likert","150","524161","0.0-42.0","SS1619739830079","similarity_question","","","","","","","","","","","","{""Q0"":0}","[0]","","images/stimuli/spore_stims/complex_12_A_a.gif","images/stimuli/spore_stims/complex_19_A_b.gif"
"","3378.4950000008103","survey-likert","151","527542","0.0-43.0","SS1619739830079","similarity_question","","","","","","","","","","","","{""Q0"":1}","[0]","","images/stimuli/spore_stims/simple_07_A_a.gif","images/stimuli/spore_stims/simple_06_A_b.gif"
"","6096.059999999823","survey-likert","152","533641","0.0-44.0","SS1619739830079","similarity_question","","","","","","","","","","","","{""Q0"":2}","[0]","","images/stimuli/spore_stims/complex_18_A_b.gif","images/stimuli/spore_stims/complex_01_A_a.gif"
"[{""page_index"":0,""viewing_time"":6380.919999999693}]","6381.020000000717","instructions","153","540025","0.0-45.0","SS1619739830079","instructions","","","","","","","","","","","","","","","",""
"","3097.134999999893","survey-likert","154","543124","0.0-46.0","SS1619739830079","","","","","","","","","images/stimuli/spore_stims/simple_14_A_a.gif","","","","{""Q0"":1}","[0]","","",""
"","3400.2199999995064","survey-likert","155","546528","0.0-47.0","SS1619739830079","","","","","","","","","images/stimuli/spore_stims/simple_10_A_a.gif","","","","{""Q0"":0}","[0]","","",""
"","6253.12999999919","survey-likert","156","552784","0.0-48.0","SS1619739830079","","","","","","","","","images/stimuli/spore_stims/complex_09_A_b.gif","","","","{""Q0"":5}","[0]","","",""
"","2039.3800000002375","survey-likert","157","554826","0.0-49.0","SS1619739830079","","","","","","","","","images/stimuli/spore_stims/simple_06_A_a.gif","","","","{""Q0"":0}","[0]","","",""
"","2419.2350000012666","survey-likert","158","557248","0.0-50.0","SS1619739830079","","","","","","","","","images/stimuli/spore_stims/simple_15_A_b.gif","","","","{""Q0"":1}","[0]","","",""
"","3135.1999999987893","survey-likert","159","560386","0.0-51.0","SS1619739830079","","","","","","","","","images/stimuli/spore_stims/complex_01_A_a.gif","","","","{""Q0"":4}","[0]","","",""
"","3519.3200000012293","survey-likert","160","563908","0.0-52.0","SS1619739830079","","","","","","","","","images/stimuli/spore_stims/simple_07_A_a.gif","","","","{""Q0"":1}","[0]","","",""
"","3977.4049999996787","survey-likert","161","567888","0.0-53.0","SS1619739830079","","","","","","","","","images/stimuli/spore_stims/complex_12_A_a.gif","","","","{""Q0"":6}","[0]","","",""
"","4437.210000000079","survey-likert","162","572328","0.0-54.0","SS1619739830079","","","","","","","","","images/stimuli/spore_stims/complex_10_A_a.gif","","","","{""Q0"":6}","[0]","","",""
"","2887.264999999432","survey-likert","163","575218","0.0-55.0","SS1619739830079","","","","","","","","","images/stimuli/spore_stims/complex_13_A_b.gif","","","","{""Q0"":4}","[0]","","",""
"","2449.2950000002747","survey-likert","164","577670","0.0-56.0","SS1619739830079","","","","","","","","","images/stimuli/spore_stims/simple_08_A_a.gif","","","","{""Q0"":1}","[0]","","",""
"","4895.394999999553","survey-likert","165","582568","0.0-57.0","SS1619739830079","","","","","","","","","images/stimuli/spore_stims/complex_04_A_a.gif","","","","{""Q0"":4}","[0]","","",""
"[{""page_index"":0,""viewing_time"":1422.3050000000512}]","1422.4049999993294","instructions","166","583993","0.0-58.0","SS1619739830079","instructions","","","","","","","","","","","","","","","",""
"","2216.7850000004983","demog-age","167","586213","0.0-59.0","SS1619739830079","","","","","","","","","","","","","{""age"":""22""}","","","",""
"","6678.219999999739","demog-ethnic-US","168","592897","0.0-60.0","SS1619739830079","","","","","","","","","","","","","{""ethnicity"":[""Hispanic or Latino""]}","[0]","","",""
"","20367.760000001057","demog-gender-and-education","169","613268","0.0-61.0","SS1619739830079","","","","","","","","","","","","","{""gender"":""Male"",""education"":""Bachelor's Degree""}","[0,1]","","",""
"","12405.244999999995","survey-text","170","625677","0.0-62.0","SS1619739830079","feedback","","","","","","","","","","","","{""Q0"":""No lag, very smooth.""}","","","",""
"[{""page_index"":0,""viewing_time"":892.0950000010198}]","892.3000000013271","instructions","171","626572","0.0-63.0","SS1619739830079","instructions","","","","","","","","","","","","","","","",""
