"view_history","rt","trial_type","trial_index","time_elapsed","internal_node_id","subject","stimulus_type","trial_stimulus","key_press","minimum_viewing_duration","trial_looking_time","block_deviant","block_background","exposure_type","stimulus","block_number","block_type","stimulus_displayed","responses","question_order","math_correct_answer","stimulus_left","stimulus_right"
"[{""page_index"":0,""viewing_time"":1456.6400000476278}]","1456.9699999992736","instructions","0","1458","0.0-0.0","SS1619739134468","","","","","","","","","","","","","","","","",""
"[{""page_index"":0,""viewing_time"":21130.050000036135},{""page_index"":1,""viewing_time"":10942.949999996927}]","32073.29500000924","instructions","1","35546","0.0-1.0","SS1619739134468","instructions","","","","","","","","","","","","","","","",""
"","13347.729999979492","sequential-stimulus-presentation-old","2","49397","0.0-2.0","SS1619739134468","","","40","500","13847.729999979492","null","null","self_paced","","","","","","","","",""
"","8991.214999987278","sequential-stimulus-presentation-old","3","58902","0.0-3.0","SS1619739134468","","","40","500","9491.214999987278","null","null","self_paced","","","","","","","","",""
"[{""page_index"":0,""viewing_time"":1603.720000013709}]","1603.8600000320002","instructions","4","60506","0.0-4.0","SS1619739134468","instructions","","","","","","","","","","","","","","","",""
"","1327.080000017304","sequential-stimulus-presentation-old","5","76843","0.0-5.0","SS1619739134468","","","40","500","1827.080000017304","null","null","forced_long","","","","","","","","",""
"","5783.460000006016","sequential-stimulus-presentation-old","6","83129","0.0-6.0","SS1619739134468","","","40","500","6283.460000006016","null","null","forced_long","","","","","","","","",""
"[{""page_index"":0,""viewing_time"":9798.060000000987}]","9798.334999999497","instructions","7","92928","0.0-7.0","SS1619739134468","instructions","","","","","","","","","","","","","","","",""
"[{""page_index"":0,""viewing_time"":8472.540000046138},{""page_index"":1,""viewing_time"":17736.979999986943},{""page_index"":2,""viewing_time"":9694.17999999132},{""page_index"":3,""viewing_time"":3284.884999971837},{""page_index"":4,""viewing_time"":2219.9600000167266}]","41408.9700000477","instructions","8","134338","0.0-8.0","SS1619739134468","instructions","","","","","","","","","","","","","","","",""
"","null","html-keyboard-response","9","135392","0.0-9.0-0.0","SS1619739134468","","","null","","","","","","<p><img src= images/blank.png width =""600"" height = ""600"" style=""position:fixed;top:50%; left:50%; transform: translate(-50%, -50%); border:5px solid black"">","","","","","","","",""
"","10153.894999995828","sequential-stimulus-presentation-old","10","146049","0.0-9.0-1.0","SS1619739134468","trial","","40","500","10653.894999995828","images/stimuli/spore_stims/complex_12_A_b.gif","images/stimuli/spore_stims/complex_10_A_a.gif","self_paced","","0","complex_dissimilar","images/stimuli/spore_stims/complex_10_A_a.gif","","","","",""
"","null","html-keyboard-response","11","147175","0.0-9.0-0.1","SS1619739134468","","","null","","","","","","<p><img src= images/blank.png width =""600"" height = ""600"" style=""position:fixed;top:50%; left:50%; transform: translate(-50%, -50%); border:5px solid black"">","","","","","","","",""
"","14609.244999999646","sequential-stimulus-presentation-old","12","162287","0.0-9.0-1.1","SS1619739134468","trial","","40","500","15109.244999999646","images/stimuli/spore_stims/complex_12_A_b.gif","images/stimuli/spore_stims/complex_10_A_a.gif","self_paced","","0","complex_dissimilar","images/stimuli/spore_stims/complex_10_A_a.gif","","","","",""
"","null","html-keyboard-response","13","163347","0.0-9.0-0.2","SS1619739134468","","","null","","","","","","<p><img src= images/blank.png width =""600"" height = ""600"" style=""position:fixed;top:50%; left:50%; transform: translate(-50%, -50%); border:5px solid black"">","","","","","","","",""
"","7911.885000008624","sequential-stimulus-presentation-old","14","171767","0.0-9.0-1.2","SS1619739134468","trial","","40","500","8411.885000008624","images/stimuli/spore_stims/complex_12_A_b.gif","images/stimuli/spore_stims/complex_10_A_a.gif","self_paced","","0","complex_dissimilar","images/stimuli/spore_stims/complex_10_A_a.gif","","","","",""
"","null","html-keyboard-response","15","172662","0.0-9.0-0.3","SS1619739134468","","","null","","","","","","<p><img src= images/blank.png width =""600"" height = ""600"" style=""position:fixed;top:50%; left:50%; transform: translate(-50%, -50%); border:5px solid black"">","","","","","","","",""
"","8729.749999998603","sequential-stimulus-presentation-old","16","181895","0.0-9.0-1.3","SS1619739134468","trial","","40","500","9229.749999998603","images/stimuli/spore_stims/complex_12_A_b.gif","images/stimuli/spore_stims/complex_10_A_a.gif","self_paced","","0","complex_dissimilar","images/stimuli/spore_stims/complex_12_A_b.gif","","","","",""
"","null","html-keyboard-response","17","182911","0.0-9.0-0.4","SS1619739134468","","","null","","","","","","<p><img src= images/blank.png width =""600"" height = ""600"" style=""position:fixed;top:50%; left:50%; transform: translate(-50%, -50%); border:5px solid black"">","","","","","","","",""
"","1928.5650000092573","sequential-stimulus-presentation-old","18","185342","0.0-9.0-1.4","SS1619739134468","trial","","40","500","2428.5650000092573","images/stimuli/spore_stims/complex_12_A_b.gif","images/stimuli/spore_stims/complex_10_A_a.gif","self_paced","","0","complex_dissimilar","images/stimuli/spore_stims/complex_12_A_b.gif","","","","",""
"","4963.295000023209","survey-multi-choice","19","190309","0.0-10.0","SS1619739134468","math_question","","","","","","","","","","","","{""Q0"":""14""}","[0]","14","",""
"","null","html-keyboard-response","20","191405","0.0-11.0-0.0","SS1619739134468","","","null","","","","","","<p><img src= images/blank.png width =""600"" height = ""600"" style=""position:fixed;top:50%; left:50%; transform: translate(-50%, -50%); border:5px solid black"">","","","","","","","",""
"","406.6599999787286","sequential-stimulus-presentation-old","21","206815","0.0-11.0-1.0","SS1619739134468","trial","","40","500","906.6599999787286","images/stimuli/spore_stims/simple_02_A_b.gif","images/stimuli/spore_stims/simple_08_A_a.gif","forced_long","","1","simple_dissimilar","images/stimuli/spore_stims/simple_08_A_a.gif","","","","",""
"","null","html-keyboard-response","22","207937","0.0-11.0-0.1","SS1619739134468","","","null","","","","","","<p><img src= images/blank.png width =""600"" height = ""600"" style=""position:fixed;top:50%; left:50%; transform: translate(-50%, -50%); border:5px solid black"">","","","","","","","",""
"","1654.00000003865","sequential-stimulus-presentation-old","23","210095","0.0-11.0-1.1","SS1619739134468","trial","","40","500","2154.00000003865","images/stimuli/spore_stims/simple_02_A_b.gif","images/stimuli/spore_stims/simple_08_A_a.gif","forced_long","","1","simple_dissimilar","images/stimuli/spore_stims/simple_08_A_a.gif","","","","",""
"","null","html-keyboard-response","24","211195","0.0-11.0-0.2","SS1619739134468","","","null","","","","","","<p><img src= images/blank.png width =""600"" height = ""600"" style=""position:fixed;top:50%; left:50%; transform: translate(-50%, -50%); border:5px solid black"">","","","","","","","",""
"","14297.565000015311","sequential-stimulus-presentation-old","25","225994","0.0-11.0-1.2","SS1619739134468","trial","","40","500","14797.565000015311","images/stimuli/spore_stims/simple_02_A_b.gif","images/stimuli/spore_stims/simple_08_A_a.gif","forced_long","","1","simple_dissimilar","images/stimuli/spore_stims/simple_08_A_a.gif","","","","",""
"","null","html-keyboard-response","26","226954","0.0-11.0-0.3","SS1619739134468","","","null","","","","","","<p><img src= images/blank.png width =""600"" height = ""600"" style=""position:fixed;top:50%; left:50%; transform: translate(-50%, -50%); border:5px solid black"">","","","","","","","",""
"","375.0650000292808","sequential-stimulus-presentation-old","27","227839","0.0-11.0-1.3","SS1619739134468","trial","","40","500","875.0650000292808","images/stimuli/spore_stims/simple_02_A_b.gif","images/stimuli/spore_stims/simple_08_A_a.gif","forced_long","","1","simple_dissimilar","images/stimuli/spore_stims/simple_08_A_a.gif","","","","",""
"","null","html-keyboard-response","28","228749","0.0-11.0-0.4","SS1619739134468","","","null","","","","","","<p><img src= images/blank.png width =""600"" height = ""600"" style=""position:fixed;top:50%; left:50%; transform: translate(-50%, -50%); border:5px solid black"">","","","","","","","",""
"","6177.785000007134","sequential-stimulus-presentation-old","29","235439","0.0-11.0-1.4","SS1619739134468","trial","","40","500","6677.785000007134","images/stimuli/spore_stims/simple_02_A_b.gif","images/stimuli/spore_stims/simple_08_A_a.gif","forced_long","","1","simple_dissimilar","images/stimuli/spore_stims/simple_08_A_a.gif","","","","",""
"","3807.1599999675527","survey-multi-choice","30","239247","0.0-12.0","SS1619739134468","math_question","","","","","","","","","","","","{""Q0"":""2""}","[0]","2","",""
"","null","html-keyboard-response","31","240111","0.0-13.0-0.0","SS1619739134468","","","null","","","","","","<p><img src= images/blank.png width =""600"" height = ""600"" style=""position:fixed;top:50%; left:50%; transform: translate(-50%, -50%); border:5px solid black"">","","","","","","","",""
"","897.4199999938719","sequential-stimulus-presentation-old","32","241512","0.0-13.0-1.0","SS1619739134468","trial","","40","500","1397.419999993872","images/stimuli/spore_stims/complex_11_A_b.gif","images/stimuli/spore_stims/complex_13_A_a.gif","forced_short","","2","complex_dissimilar","images/stimuli/spore_stims/complex_13_A_a.gif","","","","",""
"","null","html-keyboard-response","33","242773","0.0-13.0-0.1","SS1619739134468","","","null","","","","","","<p><img src= images/blank.png width =""600"" height = ""600"" style=""position:fixed;top:50%; left:50%; transform: translate(-50%, -50%); border:5px solid black"">","","","","","","","",""
"","6125.040000013541","sequential-stimulus-presentation-old","34","249401","0.0-13.0-1.1","SS1619739134468","trial","","40","500","6625.040000013541","images/stimuli/spore_stims/complex_11_A_b.gif","images/stimuli/spore_stims/complex_13_A_a.gif","forced_short","","2","complex_dissimilar","images/stimuli/spore_stims/complex_13_A_a.gif","","","","",""
"","null","html-keyboard-response","35","250420","0.0-13.0-0.2","SS1619739134468","","","null","","","","","","<p><img src= images/blank.png width =""600"" height = ""600"" style=""position:fixed;top:50%; left:50%; transform: translate(-50%, -50%); border:5px solid black"">","","","","","","","",""
"","6473.600000026636","sequential-stimulus-presentation-old","36","257397","0.0-13.0-1.2","SS1619739134468","trial","","40","500","6973.600000026636","images/stimuli/spore_stims/complex_11_A_b.gif","images/stimuli/spore_stims/complex_13_A_a.gif","forced_short","","2","complex_dissimilar","images/stimuli/spore_stims/complex_13_A_a.gif","","","","",""
"","null","html-keyboard-response","37","258386","0.0-13.0-0.3","SS1619739134468","","","null","","","","","","<p><img src= images/blank.png width =""600"" height = ""600"" style=""position:fixed;top:50%; left:50%; transform: translate(-50%, -50%); border:5px solid black"">","","","","","","","",""
"","2802.1650000009686","sequential-stimulus-presentation-old","38","261691","0.0-13.0-1.3","SS1619739134468","trial","","40","500","3302.1650000009686","images/stimuli/spore_stims/complex_11_A_b.gif","images/stimuli/spore_stims/complex_13_A_a.gif","forced_short","","2","complex_dissimilar","images/stimuli/spore_stims/complex_13_A_a.gif","","","","",""
"","null","html-keyboard-response","39","262874","0.0-13.0-0.4","SS1619739134468","","","null","","","","","","<p><img src= images/blank.png width =""600"" height = ""600"" style=""position:fixed;top:50%; left:50%; transform: translate(-50%, -50%); border:5px solid black"">","","","","","","","",""
"","2234.4150000135414","sequential-stimulus-presentation-old","40","265611","0.0-13.0-1.4","SS1619739134468","trial","","40","500","2734.4150000135414","images/stimuli/spore_stims/complex_11_A_b.gif","images/stimuli/spore_stims/complex_13_A_a.gif","forced_short","","2","complex_dissimilar","images/stimuli/spore_stims/complex_13_A_a.gif","","","","",""
"","3305.744999961462","survey-multi-choice","41","268918","0.0-14.0","SS1619739134468","math_question","","","","","","","","","","","","{""Q0"":""2""}","[0]","2","",""
"","null","html-keyboard-response","42","270131","0.0-15.0-0.0","SS1619739134468","","","null","","","","","","<p><img src= images/blank.png width =""600"" height = ""600"" style=""position:fixed;top:50%; left:50%; transform: translate(-50%, -50%); border:5px solid black"">","","","","","","","",""
"","739.7199999541044","sequential-stimulus-presentation-old","43","271374","0.0-15.0-1.0","SS1619739134468","trial","","40","500","1239.7199999541044","images/stimuli/spore_stims/simple_11_A_b.gif","images/stimuli/spore_stims/simple_10_A_a.gif","forced_short","","3","simple_dissimilar","images/stimuli/spore_stims/simple_10_A_a.gif","","","","",""
"","null","html-keyboard-response","44","272458","0.0-15.0-0.1","SS1619739134468","","","null","","","","","","<p><img src= images/blank.png width =""600"" height = ""600"" style=""position:fixed;top:50%; left:50%; transform: translate(-50%, -50%); border:5px solid black"">","","","","","","","",""
"","2492.150000005495","sequential-stimulus-presentation-old","45","275457","0.0-15.0-1.1","SS1619739134468","trial","","40","500","2992.150000005495","images/stimuli/spore_stims/simple_11_A_b.gif","images/stimuli/spore_stims/simple_10_A_a.gif","forced_short","","3","simple_dissimilar","images/stimuli/spore_stims/simple_11_A_b.gif","","","","",""
"","null","html-keyboard-response","46","276321","0.0-15.0-0.2","SS1619739134468","","","null","","","","","","<p><img src= images/blank.png width =""600"" height = ""600"" style=""position:fixed;top:50%; left:50%; transform: translate(-50%, -50%); border:5px solid black"">","","","","","","","",""
"","1531.6800000146031","sequential-stimulus-presentation-old","47","278356","0.0-15.0-1.2","SS1619739134468","trial","","40","500","2031.6800000146031","images/stimuli/spore_stims/simple_11_A_b.gif","images/stimuli/spore_stims/simple_10_A_a.gif","forced_short","","3","simple_dissimilar","images/stimuli/spore_stims/simple_10_A_a.gif","","","","",""
"","null","html-keyboard-response","48","279199","0.0-15.0-0.3","SS1619739134468","","","null","","","","","","<p><img src= images/blank.png width =""600"" height = ""600"" style=""position:fixed;top:50%; left:50%; transform: translate(-50%, -50%); border:5px solid black"">","","","","","","","",""
"","396.5050000115298","sequential-stimulus-presentation-old","49","280099","0.0-15.0-1.3","SS1619739134468","trial","","40","500","896.5050000115298","images/stimuli/spore_stims/simple_11_A_b.gif","images/stimuli/spore_stims/simple_10_A_a.gif","forced_short","","3","simple_dissimilar","images/stimuli/spore_stims/simple_10_A_a.gif","","","","",""
"","null","html-keyboard-response","50","280916","0.0-15.0-0.4","SS1619739134468","","","null","","","","","","<p><img src= images/blank.png width =""600"" height = ""600"" style=""position:fixed;top:50%; left:50%; transform: translate(-50%, -50%); border:5px solid black"">","","","","","","","",""
"","506.28999999025837","sequential-stimulus-presentation-old","51","281925","0.0-15.0-1.4","SS1619739134468","trial","","40","500","1006.2899999902584","images/stimuli/spore_stims/simple_11_A_b.gif","images/stimuli/spore_stims/simple_10_A_a.gif","forced_short","","3","simple_dissimilar","images/stimuli/spore_stims/simple_11_A_b.gif","","","","",""
"","3290.1200000196695","survey-multi-choice","52","285216","0.0-16.0","SS1619739134468","math_question","","","","","","","","","","","","{""Q0"":""9""}","[0]","9","",""
"","null","html-keyboard-response","53","286327","0.0-17.0-0.0","SS1619739134468","","","null","","","","","","<p><img src= images/blank.png width =""600"" height = ""600"" style=""position:fixed;top:50%; left:50%; transform: translate(-50%, -50%); border:5px solid black"">","","","","","","","",""
"","705.3500000038184","sequential-stimulus-presentation-old","54","302040","0.0-17.0-1.0","SS1619739134468","trial","","40","500","1205.3500000038184","images/stimuli/spore_stims/complex_05_A_b.gif","images/stimuli/spore_stims/complex_12_A_a.gif","forced_long","","4","complex_dissimilar","images/stimuli/spore_stims/complex_12_A_a.gif","","","","",""
"","null","html-keyboard-response","55","303259","0.0-17.0-0.1","SS1619739134468","","","null","","","","","","<p><img src= images/blank.png width =""600"" height = ""600"" style=""position:fixed;top:50%; left:50%; transform: translate(-50%, -50%); border:5px solid black"">","","","","","","","",""
"","1243.2149999658577","sequential-stimulus-presentation-old","56","305005","0.0-17.0-1.1","SS1619739134468","trial","","40","500","1743.2149999658577","images/stimuli/spore_stims/complex_05_A_b.gif","images/stimuli/spore_stims/complex_12_A_a.gif","forced_long","","4","complex_dissimilar","images/stimuli/spore_stims/complex_12_A_a.gif","","","","",""
"","null","html-keyboard-response","57","306028","0.0-17.0-0.2","SS1619739134468","","","null","","","","","","<p><img src= images/blank.png width =""600"" height = ""600"" style=""position:fixed;top:50%; left:50%; transform: translate(-50%, -50%); border:5px solid black"">","","","","","","","",""
"","3415.7650000415742","sequential-stimulus-presentation-old","58","309955","0.0-17.0-1.2","SS1619739134468","trial","","40","500","3915.7650000415742","images/stimuli/spore_stims/complex_05_A_b.gif","images/stimuli/spore_stims/complex_12_A_a.gif","forced_long","","4","complex_dissimilar","images/stimuli/spore_stims/complex_12_A_a.gif","","","","",""
"","null","html-keyboard-response","59","311103","0.0-17.0-0.3","SS1619739134468","","","null","","","","","","<p><img src= images/blank.png width =""600"" height = ""600"" style=""position:fixed;top:50%; left:50%; transform: translate(-50%, -50%); border:5px solid black"">","","","","","","","",""
"","2398.540000023786","sequential-stimulus-presentation-old","60","314005","0.0-17.0-1.3","SS1619739134468","trial","","40","500","2898.540000023786","images/stimuli/spore_stims/complex_05_A_b.gif","images/stimuli/spore_stims/complex_12_A_a.gif","forced_long","","4","complex_dissimilar","images/stimuli/spore_stims/complex_12_A_a.gif","","","","",""
"","null","html-keyboard-response","61","315074","0.0-17.0-0.4","SS1619739134468","","","null","","","","","","<p><img src= images/blank.png width =""600"" height = ""600"" style=""position:fixed;top:50%; left:50%; transform: translate(-50%, -50%); border:5px solid black"">","","","","","","","",""
"","2133.689999987837","sequential-stimulus-presentation-old","62","317716","0.0-17.0-1.4","SS1619739134468","trial","","40","500","2633.689999987837","images/stimuli/spore_stims/complex_05_A_b.gif","images/stimuli/spore_stims/complex_12_A_a.gif","forced_long","","4","complex_dissimilar","images/stimuli/spore_stims/complex_12_A_a.gif","","","","",""
"","null","html-keyboard-response","63","318680","0.0-17.0-0.5","SS1619739134468","","","null","","","","","","<p><img src= images/blank.png width =""600"" height = ""600"" style=""position:fixed;top:50%; left:50%; transform: translate(-50%, -50%); border:5px solid black"">","","","","","","","",""
"","1235.3399999556132","sequential-stimulus-presentation-old","64","320419","0.0-17.0-1.5","SS1619739134468","trial","","40","500","1735.3399999556132","images/stimuli/spore_stims/complex_05_A_b.gif","images/stimuli/spore_stims/complex_12_A_a.gif","forced_long","","4","complex_dissimilar","images/stimuli/spore_stims/complex_12_A_a.gif","","","","",""
"","3662.7599999774247","survey-multi-choice","65","324083","0.0-18.0","SS1619739134468","math_question","","","","","","","","","","","","{""Q0"":""12""}","[0]","12","",""
"","null","html-keyboard-response","66","325140","0.0-19.0-0.0","SS1619739134468","","","null","","","","","","<p><img src= images/blank.png width =""600"" height = ""600"" style=""position:fixed;top:50%; left:50%; transform: translate(-50%, -50%); border:5px solid black"">","","","","","","","",""
"","692.6150000072084","sequential-stimulus-presentation-old","67","340836","0.0-19.0-1.0","SS1619739134468","trial","","40","500","1192.6150000072084","images/stimuli/spore_stims/complex_15_A_b.gif","images/stimuli/spore_stims/complex_17_A_a.gif","forced_long","","5","complex_dissimilar","images/stimuli/spore_stims/complex_17_A_a.gif","","","","",""
"","null","html-keyboard-response","68","341684","0.0-19.0-0.1","SS1619739134468","","","null","","","","","","<p><img src= images/blank.png width =""600"" height = ""600"" style=""position:fixed;top:50%; left:50%; transform: translate(-50%, -50%); border:5px solid black"">","","","","","","","",""
"","5416.649999970105","sequential-stimulus-presentation-old","69","347608","0.0-19.0-1.1","SS1619739134468","trial","","40","500","5916.649999970105","images/stimuli/spore_stims/complex_15_A_b.gif","images/stimuli/spore_stims/complex_17_A_a.gif","forced_long","","5","complex_dissimilar","images/stimuli/spore_stims/complex_17_A_a.gif","","","","",""
"","null","html-keyboard-response","70","348839","0.0-19.0-0.2","SS1619739134468","","","null","","","","","","<p><img src= images/blank.png width =""600"" height = ""600"" style=""position:fixed;top:50%; left:50%; transform: translate(-50%, -50%); border:5px solid black"">","","","","","","","",""
"","7710.369999986142","sequential-stimulus-presentation-old","71","357053","0.0-19.0-1.2","SS1619739134468","trial","","40","500","8210.369999986142","images/stimuli/spore_stims/complex_15_A_b.gif","images/stimuli/spore_stims/complex_17_A_a.gif","forced_long","","5","complex_dissimilar","images/stimuli/spore_stims/complex_15_A_b.gif","","","","",""
"","null","html-keyboard-response","72","358235","0.0-19.0-0.3","SS1619739134468","","","null","","","","","","<p><img src= images/blank.png width =""600"" height = ""600"" style=""position:fixed;top:50%; left:50%; transform: translate(-50%, -50%); border:5px solid black"">","","","","","","","",""
"","2231.404999969527","sequential-stimulus-presentation-old","73","360971","0.0-19.0-1.3","SS1619739134468","trial","","40","500","2731.404999969527","images/stimuli/spore_stims/complex_15_A_b.gif","images/stimuli/spore_stims/complex_17_A_a.gif","forced_long","","5","complex_dissimilar","images/stimuli/spore_stims/complex_17_A_a.gif","","","","",""
"","null","html-keyboard-response","74","361818","0.0-19.0-0.4","SS1619739134468","","","null","","","","","","<p><img src= images/blank.png width =""600"" height = ""600"" style=""position:fixed;top:50%; left:50%; transform: translate(-50%, -50%); border:5px solid black"">","","","","","","","",""
"","1096.0049999994226","sequential-stimulus-presentation-old","75","363417","0.0-19.0-1.4","SS1619739134468","trial","","40","500","1596.0049999994226","images/stimuli/spore_stims/complex_15_A_b.gif","images/stimuli/spore_stims/complex_17_A_a.gif","forced_long","","5","complex_dissimilar","images/stimuli/spore_stims/complex_17_A_a.gif","","","","",""
"","3373.0600000126287","survey-multi-choice","76","366792","0.0-20.0","SS1619739134468","math_question","","","","","","","","","","","","{""Q0"":""8""}","[0]","8","",""
"","null","html-keyboard-response","77","368043","0.0-21.0-0.0","SS1619739134468","","","null","","","","","","<p><img src= images/blank.png width =""600"" height = ""600"" style=""position:fixed;top:50%; left:50%; transform: translate(-50%, -50%); border:5px solid black"">","","","","","","","",""
"","1525.7350000320002","sequential-stimulus-presentation-old","78","370072","0.0-21.0-1.0","SS1619739134468","trial","","40","500","2025.7350000320002","images/stimuli/spore_stims/complex_01_A_b.gif","images/stimuli/spore_stims/complex_15_A_a.gif","self_paced","","6","complex_dissimilar","images/stimuli/spore_stims/complex_15_A_a.gif","","","","",""
"","null","html-keyboard-response","79","371055","0.0-21.0-0.1","SS1619739134468","","","null","","","","","","<p><img src= images/blank.png width =""600"" height = ""600"" style=""position:fixed;top:50%; left:50%; transform: translate(-50%, -50%); border:5px solid black"">","","","","","","","",""
"","2339.7450000047684","sequential-stimulus-presentation-old","80","373903","0.0-21.0-1.1","SS1619739134468","trial","","40","500","2839.7450000047684","images/stimuli/spore_stims/complex_01_A_b.gif","images/stimuli/spore_stims/complex_15_A_a.gif","self_paced","","6","complex_dissimilar","images/stimuli/spore_stims/complex_15_A_a.gif","","","","",""
"","null","html-keyboard-response","81","374775","0.0-21.0-0.2","SS1619739134468","","","null","","","","","","<p><img src= images/blank.png width =""600"" height = ""600"" style=""position:fixed;top:50%; left:50%; transform: translate(-50%, -50%); border:5px solid black"">","","","","","","","",""
"","1847.3599999560975","sequential-stimulus-presentation-old","82","377127","0.0-21.0-1.2","SS1619739134468","trial","","40","500","2347.3599999560975","images/stimuli/spore_stims/complex_01_A_b.gif","images/stimuli/spore_stims/complex_15_A_a.gif","self_paced","","6","complex_dissimilar","images/stimuli/spore_stims/complex_15_A_a.gif","","","","",""
"","null","html-keyboard-response","83","378169","0.0-21.0-0.3","SS1619739134468","","","null","","","","","","<p><img src= images/blank.png width =""600"" height = ""600"" style=""position:fixed;top:50%; left:50%; transform: translate(-50%, -50%); border:5px solid black"">","","","","","","","",""
"","948.4049999737181","sequential-stimulus-presentation-old","84","379621","0.0-21.0-1.3","SS1619739134468","trial","","40","500","1448.404999973718","images/stimuli/spore_stims/complex_01_A_b.gif","images/stimuli/spore_stims/complex_15_A_a.gif","self_paced","","6","complex_dissimilar","images/stimuli/spore_stims/complex_15_A_a.gif","","","","",""
"","null","html-keyboard-response","85","380679","0.0-21.0-0.4","SS1619739134468","","","null","","","","","","<p><img src= images/blank.png width =""600"" height = ""600"" style=""position:fixed;top:50%; left:50%; transform: translate(-50%, -50%); border:5px solid black"">","","","","","","","",""
"","4150.320000015199","sequential-stimulus-presentation-old","86","385332","0.0-21.0-1.4","SS1619739134468","trial","","40","500","4650.320000015199","images/stimuli/spore_stims/complex_01_A_b.gif","images/stimuli/spore_stims/complex_15_A_a.gif","self_paced","","6","complex_dissimilar","images/stimuli/spore_stims/complex_01_A_b.gif","","","","",""
"","null","html-keyboard-response","87","386164","0.0-21.0-0.5","SS1619739134468","","","null","","","","","","<p><img src= images/blank.png width =""600"" height = ""600"" style=""position:fixed;top:50%; left:50%; transform: translate(-50%, -50%); border:5px solid black"">","","","","","","","",""
"","2963.9099999913014","sequential-stimulus-presentation-old","88","389636","0.0-21.0-1.5","SS1619739134468","trial","","40","500","3463.9099999913014","images/stimuli/spore_stims/complex_01_A_b.gif","images/stimuli/spore_stims/complex_15_A_a.gif","self_paced","","6","complex_dissimilar","images/stimuli/spore_stims/complex_15_A_a.gif","","","","",""
"","2978.3750000060536","survey-multi-choice","89","392616","0.0-22.0","SS1619739134468","math_question","","","","","","","","","","","","{""Q0"":""11""}","[0]","11","",""
"","null","html-keyboard-response","90","393696","0.0-23.0-0.0","SS1619739134468","","","null","","","","","","<p><img src= images/blank.png width =""600"" height = ""600"" style=""position:fixed;top:50%; left:50%; transform: translate(-50%, -50%); border:5px solid black"">","","","","","","","",""
"","995.5599999520928","sequential-stimulus-presentation-old","91","395200","0.0-23.0-1.0","SS1619739134468","trial","","40","500","1495.5599999520928","images/stimuli/spore_stims/complex_06_A_a.gif","images/stimuli/spore_stims/complex_13_A_b.gif","forced_short","","7","complex_dissimilar","images/stimuli/spore_stims/complex_13_A_b.gif","","","","",""
"","null","html-keyboard-response","92","396434","0.0-23.0-0.1","SS1619739134468","","","null","","","","","","<p><img src= images/blank.png width =""600"" height = ""600"" style=""position:fixed;top:50%; left:50%; transform: translate(-50%, -50%); border:5px solid black"">","","","","","","","",""
"","2271.4500000001863","sequential-stimulus-presentation-old","93","399208","0.0-23.0-1.1","SS1619739134468","trial","","40","500","2771.4500000001863","images/stimuli/spore_stims/complex_06_A_a.gif","images/stimuli/spore_stims/complex_13_A_b.gif","forced_short","","7","complex_dissimilar","images/stimuli/spore_stims/complex_13_A_b.gif","","","","",""
"","null","html-keyboard-response","94","400057","0.0-23.0-0.2","SS1619739134468","","","null","","","","","","<p><img src= images/blank.png width =""600"" height = ""600"" style=""position:fixed;top:50%; left:50%; transform: translate(-50%, -50%); border:5px solid black"">","","","","","","","",""
"","1425.7900000084192","sequential-stimulus-presentation-old","95","401993","0.0-23.0-1.2","SS1619739134468","trial","","40","500","1925.7900000084192","images/stimuli/spore_stims/complex_06_A_a.gif","images/stimuli/spore_stims/complex_13_A_b.gif","forced_short","","7","complex_dissimilar","images/stimuli/spore_stims/complex_13_A_b.gif","","","","",""
"","null","html-keyboard-response","96","402960","0.0-23.0-0.3","SS1619739134468","","","null","","","","","","<p><img src= images/blank.png width =""600"" height = ""600"" style=""position:fixed;top:50%; left:50%; transform: translate(-50%, -50%); border:5px solid black"">","","","","","","","",""
"","498.51000000489876","sequential-stimulus-presentation-old","97","403971","0.0-23.0-1.3","SS1619739134468","trial","","40","500","998.5100000048988","images/stimuli/spore_stims/complex_06_A_a.gif","images/stimuli/spore_stims/complex_13_A_b.gif","forced_short","","7","complex_dissimilar","images/stimuli/spore_stims/complex_13_A_b.gif","","","","",""
"","null","html-keyboard-response","98","404881","0.0-23.0-0.4","SS1619739134468","","","null","","","","","","<p><img src= images/blank.png width =""600"" height = ""600"" style=""position:fixed;top:50%; left:50%; transform: translate(-50%, -50%); border:5px solid black"">","","","","","","","",""
"","820.4350000014529","sequential-stimulus-presentation-old","99","406205","0.0-23.0-1.4","SS1619739134468","trial","","40","500","1320.4350000014529","images/stimuli/spore_stims/complex_06_A_a.gif","images/stimuli/spore_stims/complex_13_A_b.gif","forced_short","","7","complex_dissimilar","images/stimuli/spore_stims/complex_13_A_b.gif","","","","",""
"","5331.145000003744","survey-multi-choice","100","411538","0.0-24.0","SS1619739134468","math_question","","","","","","","","","","","","{""Q0"":""17""}","[0]","17","",""
"","null","html-keyboard-response","101","412459","0.0-25.0-0.0","SS1619739134468","","","null","","","","","","<p><img src= images/blank.png width =""600"" height = ""600"" style=""position:fixed;top:50%; left:50%; transform: translate(-50%, -50%); border:5px solid black"">","","","","","","","",""
"","1641.9750000350177","sequential-stimulus-presentation-old","102","414605","0.0-25.0-1.0","SS1619739134468","trial","","40","500","2141.9750000350177","images/stimuli/spore_stims/simple_02_A_a.gif","images/stimuli/spore_stims/simple_01_A_b.gif","self_paced","","8","simple_dissimilar","images/stimuli/spore_stims/simple_01_A_b.gif","","","","",""
"","null","html-keyboard-response","103","415857","0.0-25.0-0.1","SS1619739134468","","","null","","","","","","<p><img src= images/blank.png width =""600"" height = ""600"" style=""position:fixed;top:50%; left:50%; transform: translate(-50%, -50%); border:5px solid black"">","","","","","","","",""
"","498.65500000305474","sequential-stimulus-presentation-old","104","416866","0.0-25.0-1.1","SS1619739134468","trial","","40","500","998.6550000030547","images/stimuli/spore_stims/simple_02_A_a.gif","images/stimuli/spore_stims/simple_01_A_b.gif","self_paced","","8","simple_dissimilar","images/stimuli/spore_stims/simple_01_A_b.gif","","","","",""
"","null","html-keyboard-response","105","417833","0.0-25.0-0.2","SS1619739134468","","","null","","","","","","<p><img src= images/blank.png width =""600"" height = ""600"" style=""position:fixed;top:50%; left:50%; transform: translate(-50%, -50%); border:5px solid black"">","","","","","","","",""
"","367.26999998791143","sequential-stimulus-presentation-old","106","418704","0.0-25.0-1.2","SS1619739134468","trial","","40","500","867.2699999879114","images/stimuli/spore_stims/simple_02_A_a.gif","images/stimuli/spore_stims/simple_01_A_b.gif","self_paced","","8","simple_dissimilar","images/stimuli/spore_stims/simple_02_A_a.gif","","","","",""
"","null","html-keyboard-response","107","419625","0.0-25.0-0.3","SS1619739134468","","","null","","","","","","<p><img src= images/blank.png width =""600"" height = ""600"" style=""position:fixed;top:50%; left:50%; transform: translate(-50%, -50%); border:5px solid black"">","","","","","","","",""
"","77.4550000205636","sequential-stimulus-presentation-old","108","420206","0.0-25.0-1.3","SS1619739134468","trial","","40","500","577.4550000205636","images/stimuli/spore_stims/simple_02_A_a.gif","images/stimuli/spore_stims/simple_01_A_b.gif","self_paced","","8","simple_dissimilar","images/stimuli/spore_stims/simple_01_A_b.gif","","","","",""
"","null","html-keyboard-response","109","421392","0.0-25.0-0.4","SS1619739134468","","","null","","","","","","<p><img src= images/blank.png width =""600"" height = ""600"" style=""position:fixed;top:50%; left:50%; transform: translate(-50%, -50%); border:5px solid black"">","","","","","","","",""
"","2.2749999770894647","sequential-stimulus-presentation-old","110","421902","0.0-25.0-1.4","SS1619739134468","trial","","40","500","502.27499997708946","images/stimuli/spore_stims/simple_02_A_a.gif","images/stimuli/spore_stims/simple_01_A_b.gif","self_paced","","8","simple_dissimilar","images/stimuli/spore_stims/simple_01_A_b.gif","","","","",""
"","2542.7200000267476","survey-multi-choice","111","424447","0.0-26.0","SS1619739134468","math_question","","","","","","","","","","","","{""Q0"":""7""}","[0]","7","",""
"","null","html-keyboard-response","112","425354","0.0-27.0-0.0","SS1619739134468","","","null","","","","","","<p><img src= images/blank.png width =""600"" height = ""600"" style=""position:fixed;top:50%; left:50%; transform: translate(-50%, -50%); border:5px solid black"">","","","","","","","",""
"","762.1950000175275","sequential-stimulus-presentation-old","113","426622","0.0-27.0-1.0","SS1619739134468","trial","","40","500","1262.1950000175275","images/stimuli/spore_stims/simple_04_A_a.gif","images/stimuli/spore_stims/simple_07_A_b.gif","forced_short","","9","simple_dissimilar","images/stimuli/spore_stims/simple_07_A_b.gif","","","","",""
"","null","html-keyboard-response","114","427858","0.0-27.0-0.1","SS1619739134468","","","null","","","","","","<p><img src= images/blank.png width =""600"" height = ""600"" style=""position:fixed;top:50%; left:50%; transform: translate(-50%, -50%); border:5px solid black"">","","","","","","","",""
"","335.5299999821","sequential-stimulus-presentation-old","115","428698","0.0-27.0-1.1","SS1619739134468","trial","","40","500","835.5299999821","images/stimuli/spore_stims/simple_04_A_a.gif","images/stimuli/spore_stims/simple_07_A_b.gif","forced_short","","9","simple_dissimilar","images/stimuli/spore_stims/simple_07_A_b.gif","","","","",""
"","null","html-keyboard-response","116","429979","0.0-27.0-0.2","SS1619739134468","","","null","","","","","","<p><img src= images/blank.png width =""600"" height = ""600"" style=""position:fixed;top:50%; left:50%; transform: translate(-50%, -50%); border:5px solid black"">","","","","","","","",""
"","299.3449999485165","sequential-stimulus-presentation-old","117","430792","0.0-27.0-1.2","SS1619739134468","trial","","40","500","799.3449999485165","images/stimuli/spore_stims/simple_04_A_a.gif","images/stimuli/spore_stims/simple_07_A_b.gif","forced_short","","9","simple_dissimilar","images/stimuli/spore_stims/simple_07_A_b.gif","","","","",""
"","null","html-keyboard-response","118","431964","0.0-27.0-0.3","SS1619739134468","","","null","","","","","","<p><img src= images/blank.png width =""600"" height = ""600"" style=""position:fixed;top:50%; left:50%; transform: translate(-50%, -50%); border:5px solid black"">","","","","","","","",""
"","312.05000000773","sequential-stimulus-presentation-old","119","432779","0.0-27.0-1.3","SS1619739134468","trial","","40","500","812.05000000773","images/stimuli/spore_stims/simple_04_A_a.gif","images/stimuli/spore_stims/simple_07_A_b.gif","forced_short","","9","simple_dissimilar","images/stimuli/spore_stims/simple_07_A_b.gif","","","","",""
"","null","html-keyboard-response","120","433728","0.0-27.0-0.4","SS1619739134468","","","null","","","","","","<p><img src= images/blank.png width =""600"" height = ""600"" style=""position:fixed;top:50%; left:50%; transform: translate(-50%, -50%); border:5px solid black"">","","","","","","","",""
"","101.61999997217208","sequential-stimulus-presentation-old","121","434333","0.0-27.0-1.4","SS1619739134468","trial","","40","500","601.6199999721721","images/stimuli/spore_stims/simple_04_A_a.gif","images/stimuli/spore_stims/simple_07_A_b.gif","forced_short","","9","simple_dissimilar","images/stimuli/spore_stims/simple_07_A_b.gif","","","","",""
"","7935.779999999795","survey-multi-choice","122","442271","0.0-28.0","SS1619739134468","math_question","","","","","","","","","","","","{""Q0"":""14""}","[0]","14","",""
"","null","html-keyboard-response","123","443098","0.0-29.0-0.0","SS1619739134468","","","null","","","","","","<p><img src= images/blank.png width =""600"" height = ""600"" style=""position:fixed;top:50%; left:50%; transform: translate(-50%, -50%); border:5px solid black"">","","","","","","","",""
"","1313.3550000493415","sequential-stimulus-presentation-old","124","459415","0.0-29.0-1.0","SS1619739134468","trial","","40","500","1813.3550000493415","images/stimuli/spore_stims/simple_17_A_a.gif","images/stimuli/spore_stims/simple_09_A_b.gif","forced_long","","10","simple_dissimilar","images/stimuli/spore_stims/simple_09_A_b.gif","","","","",""
"","null","html-keyboard-response","125","460403","0.0-29.0-0.1","SS1619739134468","","","null","","","","","","<p><img src= images/blank.png width =""600"" height = ""600"" style=""position:fixed;top:50%; left:50%; transform: translate(-50%, -50%); border:5px solid black"">","","","","","","","",""
"","793.8999999896623","sequential-stimulus-presentation-old","126","461701","0.0-29.0-1.1","SS1619739134468","trial","","40","500","1293.8999999896623","images/stimuli/spore_stims/simple_17_A_a.gif","images/stimuli/spore_stims/simple_09_A_b.gif","forced_long","","10","simple_dissimilar","images/stimuli/spore_stims/simple_17_A_a.gif","","","","",""
"","null","html-keyboard-response","127","462974","0.0-29.0-0.2","SS1619739134468","","","null","","","","","","<p><img src= images/blank.png width =""600"" height = ""600"" style=""position:fixed;top:50%; left:50%; transform: translate(-50%, -50%); border:5px solid black"">","","","","","","","",""
"","102.50500001711771","sequential-stimulus-presentation-old","128","463585","0.0-29.0-1.2","SS1619739134468","trial","","40","500","602.5050000171177","images/stimuli/spore_stims/simple_17_A_a.gif","images/stimuli/spore_stims/simple_09_A_b.gif","forced_long","","10","simple_dissimilar","images/stimuli/spore_stims/simple_09_A_b.gif","","","","",""
"","null","html-keyboard-response","129","464405","0.0-29.0-0.3","SS1619739134468","","","null","","","","","","<p><img src= images/blank.png width =""600"" height = ""600"" style=""position:fixed;top:50%; left:50%; transform: translate(-50%, -50%); border:5px solid black"">","","","","","","","",""
"","74.39500000327826","sequential-stimulus-presentation-old","130","464989","0.0-29.0-1.3","SS1619739134468","trial","","40","500","574.3950000032783","images/stimuli/spore_stims/simple_17_A_a.gif","images/stimuli/spore_stims/simple_09_A_b.gif","forced_long","","10","simple_dissimilar","images/stimuli/spore_stims/simple_17_A_a.gif","","","","",""
"","null","html-keyboard-response","131","465874","0.0-29.0-0.4","SS1619739134468","","","null","","","","","","<p><img src= images/blank.png width =""600"" height = ""600"" style=""position:fixed;top:50%; left:50%; transform: translate(-50%, -50%); border:5px solid black"">","","","","","","","",""
"","138.02999997278675","sequential-stimulus-presentation-old","132","466515","0.0-29.0-1.4","SS1619739134468","trial","","40","500","638.0299999727868","images/stimuli/spore_stims/simple_17_A_a.gif","images/stimuli/spore_stims/simple_09_A_b.gif","forced_long","","10","simple_dissimilar","images/stimuli/spore_stims/simple_09_A_b.gif","","","","",""
"","null","html-keyboard-response","133","467362","0.0-29.0-0.5","SS1619739134468","","","null","","","","","","<p><img src= images/blank.png width =""600"" height = ""600"" style=""position:fixed;top:50%; left:50%; transform: translate(-50%, -50%); border:5px solid black"">","","","","","","","",""
"","3387.380000029225","sequential-stimulus-presentation-old","134","471253","0.0-29.0-1.5","SS1619739134468","trial","","40","500","3887.380000029225","images/stimuli/spore_stims/simple_17_A_a.gif","images/stimuli/spore_stims/simple_09_A_b.gif","forced_long","","10","simple_dissimilar","images/stimuli/spore_stims/simple_09_A_b.gif","","","","",""
"","3187.900000018999","survey-multi-choice","135","474444","0.0-30.0","SS1619739134468","math_question","","","","","","","","","","","","{""Q0"":""11""}","[0]","11","",""
"","null","html-keyboard-response","136","475384","0.0-31.0-0.0","SS1619739134468","","","null","","","","","","<p><img src= images/blank.png width =""600"" height = ""600"" style=""position:fixed;top:50%; left:50%; transform: translate(-50%, -50%); border:5px solid black"">","","","","","","","",""
"","434.94500004453585","sequential-stimulus-presentation-old","137","476324","0.0-31.0-1.0","SS1619739134468","trial","","40","500","934.9450000445358","images/stimuli/spore_stims/simple_15_A_a.gif","images/stimuli/spore_stims/simple_16_A_b.gif","self_paced","","11","simple_dissimilar","images/stimuli/spore_stims/simple_16_A_b.gif","","","","",""
"","null","html-keyboard-response","138","477516","0.0-31.0-0.1","SS1619739134468","","","null","","","","","","<p><img src= images/blank.png width =""600"" height = ""600"" style=""position:fixed;top:50%; left:50%; transform: translate(-50%, -50%); border:5px solid black"">","","","","","","","",""
"","491.1549999960698","sequential-stimulus-presentation-old","139","478518","0.0-31.0-1.1","SS1619739134468","trial","","40","500","991.1549999960698","images/stimuli/spore_stims/simple_15_A_a.gif","images/stimuli/spore_stims/simple_16_A_b.gif","self_paced","","11","simple_dissimilar","images/stimuli/spore_stims/simple_15_A_a.gif","","","","",""
"","null","html-keyboard-response","140","479375","0.0-31.0-0.2","SS1619739134468","","","null","","","","","","<p><img src= images/blank.png width =""600"" height = ""600"" style=""position:fixed;top:50%; left:50%; transform: translate(-50%, -50%); border:5px solid black"">","","","","","","","",""
"","201.78499998291954","sequential-stimulus-presentation-old","141","480081","0.0-31.0-1.2","SS1619739134468","trial","","40","500","701.7849999829195","images/stimuli/spore_stims/simple_15_A_a.gif","images/stimuli/spore_stims/simple_16_A_b.gif","self_paced","","11","simple_dissimilar","images/stimuli/spore_stims/simple_16_A_b.gif","","","","",""
"","null","html-keyboard-response","142","481061","0.0-31.0-0.3","SS1619739134468","","","null","","","","","","<p><img src= images/blank.png width =""600"" height = ""600"" style=""position:fixed;top:50%; left:50%; transform: translate(-50%, -50%); border:5px solid black"">","","","","","","","",""
"","816.5250000311062","sequential-stimulus-presentation-old","143","482383","0.0-31.0-1.3","SS1619739134468","trial","","40","500","1316.5250000311062","images/stimuli/spore_stims/simple_15_A_a.gif","images/stimuli/spore_stims/simple_16_A_b.gif","self_paced","","11","simple_dissimilar","images/stimuli/spore_stims/simple_15_A_a.gif","","","","",""
"[{""page_index"":0,""viewing_time"":9540.09500000393}]","9540.275000035763","instructions","144","491926","0.0-32.0","SS1619739134468","instructions","","","","","","","","","","","","","","","",""
"","10372.074999962933","survey-likert","145","502302","0.0-33.0","SS1619739134468","similarity_question","","","","","","","","","","","","{""Q0"":1}","[0]","","images/stimuli/spore_stims/simple_09_A_b.gif","images/stimuli/spore_stims/simple_17_A_a.gif"
"","6734.64999999851","survey-likert","146","509044","0.0-34.0","SS1619739134468","similarity_question","","","","","","","","","","","","{""Q0"":2}","[0]","","images/stimuli/spore_stims/complex_17_A_a.gif","images/stimuli/spore_stims/complex_15_A_b.gif"
"","4794.0899999812245","survey-likert","147","513844","0.0-35.0","SS1619739134468","similarity_question","","","","","","","","","","","","{""Q0"":1}","[0]","","images/stimuli/spore_stims/complex_12_A_a.gif","images/stimuli/spore_stims/complex_05_A_b.gif"
"","2904.095000005327","survey-likert","148","516755","0.0-36.0","SS1619739134468","similarity_question","","","","","","","","","","","","{""Q0"":5}","[0]","","images/stimuli/spore_stims/simple_02_A_a.gif","images/stimuli/spore_stims/simple_01_A_b.gif"
"","5304.799999983516","survey-likert","149","522066","0.0-37.0","SS1619739134468","similarity_question","","","","","","","","","","","","{""Q0"":2}","[0]","","images/stimuli/spore_stims/complex_06_A_a.gif","images/stimuli/spore_stims/complex_13_A_b.gif"
"","2696.9549999921583","survey-likert","150","524769","0.0-38.0","SS1619739134468","similarity_question","","","","","","","","","","","","{""Q0"":0}","[0]","","images/stimuli/spore_stims/complex_11_A_b.gif","images/stimuli/spore_stims/complex_13_A_a.gif"
"","7289.619999995921","survey-likert","151","532064","0.0-39.0","SS1619739134468","similarity_question","","","","","","","","","","","","{""Q0"":1}","[0]","","images/stimuli/spore_stims/complex_01_A_b.gif","images/stimuli/spore_stims/complex_15_A_a.gif"
"","5098.660000017844","survey-likert","152","537169","0.0-40.0","SS1619739134468","similarity_question","","","","","","","","","","","","{""Q0"":5}","[0]","","images/stimuli/spore_stims/simple_02_A_b.gif","images/stimuli/spore_stims/simple_08_A_a.gif"
"","6192.570000013802","survey-likert","153","543368","0.0-41.0","SS1619739134468","similarity_question","","","","","","","","","","","","{""Q0"":2}","[0]","","images/stimuli/spore_stims/simple_04_A_a.gif","images/stimuli/spore_stims/simple_07_A_b.gif"
"","2314.2149999621324","survey-likert","154","545688","0.0-42.0","SS1619739134468","similarity_question","","","","","","","","","","","","{""Q0"":2}","[0]","","images/stimuli/spore_stims/simple_10_A_a.gif","images/stimuli/spore_stims/simple_11_A_b.gif"
"","4306.379999965429","survey-likert","155","550001","0.0-43.0","SS1619739134468","similarity_question","","","","","","","","","","","","{""Q0"":0}","[0]","","images/stimuli/spore_stims/complex_10_A_a.gif","images/stimuli/spore_stims/complex_12_A_b.gif"
"","3687.2050000238232","survey-likert","156","553695","0.0-44.0","SS1619739134468","similarity_question","","","","","","","","","","","","{""Q0"":4}","[0]","","images/stimuli/spore_stims/simple_15_A_a.gif","images/stimuli/spore_stims/simple_16_A_b.gif"
"[{""page_index"":0,""viewing_time"":13538.944999978412}]","13539.189999981318","instructions","157","567240","0.0-45.0","SS1619739134468","instructions","","","","","","","","","","","","","","","",""
"","5178.909999958705","survey-likert","158","572423","0.0-46.0","SS1619739134468","","","","","","","","","images/stimuli/spore_stims/complex_15_A_a.gif","","","","{""Q0"":4}","[0]","","",""
"","3290.699999954086","survey-likert","159","575721","0.0-47.0","SS1619739134468","","","","","","","","","images/stimuli/spore_stims/simple_02_A_b.gif","","","","{""Q0"":0}","[0]","","",""
"","4244.225000031292","survey-likert","160","579971","0.0-48.0","SS1619739134468","","","","","","","","","images/stimuli/spore_stims/complex_06_A_a.gif","","","","{""Q0"":4}","[0]","","",""
"","3524.9750000075437","survey-likert","161","583504","0.0-49.0","SS1619739134468","","","","","","","","","images/stimuli/spore_stims/simple_09_A_b.gif","","","","{""Q0"":1}","[0]","","",""
"","3666.1300000268966","survey-likert","162","587177","0.0-50.0","SS1619739134468","","","","","","","","","images/stimuli/spore_stims/complex_12_A_b.gif","","","","{""Q0"":5}","[0]","","",""
"","2011.6399999824353","survey-likert","163","589195","0.0-51.0","SS1619739134468","","","","","","","","","images/stimuli/spore_stims/complex_15_A_b.gif","","","","{""Q0"":4}","[0]","","",""
"","3934.0899999951944","survey-likert","164","593135","0.0-52.0","SS1619739134468","","","","","","","","","images/stimuli/spore_stims/simple_02_A_a.gif","","","","{""Q0"":0}","[0]","","",""
"","2349.2500000284053","survey-likert","165","595491","0.0-53.0","SS1619739134468","","","","","","","","","images/stimuli/spore_stims/simple_15_A_a.gif","","","","{""Q0"":1}","[0]","","",""
"","6305.450000043493","survey-likert","166","601803","0.0-54.0","SS1619739134468","","","","","","","","","images/stimuli/spore_stims/complex_13_A_a.gif","","","","{""Q0"":4}","[0]","","",""
"","4425.715000019409","survey-likert","167","606236","0.0-55.0","SS1619739134468","","","","","","","","","images/stimuli/spore_stims/complex_05_A_b.gif","","","","{""Q0"":3}","[0]","","",""
"","2533.5349999950267","survey-likert","168","608776","0.0-56.0","SS1619739134468","","","","","","","","","images/stimuli/spore_stims/simple_07_A_b.gif","","","","{""Q0"":1}","[0]","","",""
"","2837.8499999525957","survey-likert","169","611620","0.0-57.0","SS1619739134468","","","","","","","","","images/stimuli/spore_stims/simple_10_A_a.gif","","","","{""Q0"":1}","[0]","","",""
"[{""page_index"":0,""viewing_time"":2566.6399999754503}]","2566.950000007637","instructions","170","614193","0.0-58.0","SS1619739134468","instructions","","","","","","","","","","","","","","","",""
"","3569.260000018403","demog-age","171","617767","0.0-59.0","SS1619739134468","","","","","","","","","","","","","{""age"":""19""}","","","",""
"","4330.3999999770895","demog-ethnic-US","172","622103","0.0-60.0","SS1619739134468","","","","","","","","","","","","","{""ethnicity"":[""White""]}","[0]","","",""
"","45763.27499997569","demog-gender-and-education","173","667875","0.0-61.0","SS1619739134468","","","","","","","","","","","","","{""gender"":""Male"",""education"":""High school diploma""}","[0,1]","","",""
"","52663.79500000039","survey-text","174","720546","0.0-62.0","SS1619739134468","feedback","","","","","","","","","","","","{""Q0"":""Study was good! (spore is amazing game :>)""}","","","",""
"[{""page_index"":0,""viewing_time"":3489.2999999574386}]","3489.659999962896","instructions","175","724040","0.0-63.0","SS1619739134468","instructions","","","","","","","","","","","","","","","",""
