"view_history","rt","trial_type","trial_index","time_elapsed","internal_node_id","subject","stimulus_type","trial_stimulus","key_press","minimum_viewing_duration","trial_looking_time","block_deviant","block_background","exposure_type","stimulus","block_number","block_type","stimulus_displayed","responses","question_order","math_correct_answer","stimulus_left","stimulus_right"
"[{""page_index"":0,""viewing_time"":149128}]","149130","instructions","0","149140","0.0-0.0","SS1619739516280","","","","","","","","","","","","","","","","",""
"[{""page_index"":0,""viewing_time"":64494},{""page_index"":1,""viewing_time"":24822}]","89316","instructions","1","240486","0.0-1.0","SS1619739516280","instructions","","","","","","","","","","","","","","","",""
"","7798","sequential-stimulus-presentation-old","2","248820","0.0-2.0","SS1619739516280","","","40","500","8298","null","null","self_paced","","","","","","","","",""
"","1190","sequential-stimulus-presentation-old","3","250532","0.0-3.0","SS1619739516280","","","40","500","1690","null","null","self_paced","","","","","","","","",""
"[{""page_index"":0,""viewing_time"":42684}]","42684","instructions","4","293228","0.0-4.0","SS1619739516280","instructions","","","","","","","","","","","","","","","",""
"","1738","sequential-stimulus-presentation-old","5","310018","0.0-5.0","SS1619739516280","","","40","500","2238","null","null","forced_long","","","","","","","","",""
"","2028","sequential-stimulus-presentation-old","6","312592","0.0-6.0","SS1619739516280","","","40","500","2528","null","null","forced_long","","","","","","","","",""
"[{""page_index"":0,""viewing_time"":7150}]","7150","instructions","7","319754","0.0-7.0","SS1619739516280","instructions","","","","","","","","","","","","","","","",""
"[{""page_index"":0,""viewing_time"":29630},{""page_index"":1,""viewing_time"":55616},{""page_index"":2,""viewing_time"":11922},{""page_index"":3,""viewing_time"":4516},{""page_index"":4,""viewing_time"":2048}]","103732","instructions","8","423496","0.0-8.0","SS1619739516280","instructions","","","","","","","","","","","","","","","",""
"","null","html-keyboard-response","9","424610","0.0-9.0-0.0","SS1619739516280","","","null","","","","","","<p><img src= images/blank.png width =""600"" height = ""600"" style=""position:fixed;top:50%; left:50%; transform: translate(-50%, -50%); border:5px solid black"">","","","","","","","",""
"","24606","sequential-stimulus-presentation-old","10","449748","0.0-9.0-1.0","SS1619739516280","trial","","40","500","25106","images/stimuli/spore_stims/simple_03_A_b.gif","images/stimuli/spore_stims/simple_11_A_a.gif","self_paced","","0","simple_dissimilar","images/stimuli/spore_stims/simple_11_A_a.gif","","","","",""
"","null","html-keyboard-response","11","451070","0.0-9.0-0.1","SS1619739516280","","","null","","","","","","<p><img src= images/blank.png width =""600"" height = ""600"" style=""position:fixed;top:50%; left:50%; transform: translate(-50%, -50%); border:5px solid black"">","","","","","","","",""
"","16470","sequential-stimulus-presentation-old","12","468072","0.0-9.0-1.1","SS1619739516280","trial","","40","500","16970","images/stimuli/spore_stims/simple_03_A_b.gif","images/stimuli/spore_stims/simple_11_A_a.gif","self_paced","","0","simple_dissimilar","images/stimuli/spore_stims/simple_03_A_b.gif","","","","",""
"","null","html-keyboard-response","13","469060","0.0-9.0-0.2","SS1619739516280","","","null","","","","","","<p><img src= images/blank.png width =""600"" height = ""600"" style=""position:fixed;top:50%; left:50%; transform: translate(-50%, -50%); border:5px solid black"">","","","","","","","",""
"","17858","sequential-stimulus-presentation-old","14","487448","0.0-9.0-1.2","SS1619739516280","trial","","40","500","18358","images/stimuli/spore_stims/simple_03_A_b.gif","images/stimuli/spore_stims/simple_11_A_a.gif","self_paced","","0","simple_dissimilar","images/stimuli/spore_stims/simple_11_A_a.gif","","","","",""
"","null","html-keyboard-response","15","488776","0.0-9.0-0.3","SS1619739516280","","","null","","","","","","<p><img src= images/blank.png width =""600"" height = ""600"" style=""position:fixed;top:50%; left:50%; transform: translate(-50%, -50%); border:5px solid black"">","","","","","","","",""
"","10732","sequential-stimulus-presentation-old","16","500042","0.0-9.0-1.3","SS1619739516280","trial","","40","500","11232","images/stimuli/spore_stims/simple_03_A_b.gif","images/stimuli/spore_stims/simple_11_A_a.gif","self_paced","","0","simple_dissimilar","images/stimuli/spore_stims/simple_03_A_b.gif","","","","",""
"","null","html-keyboard-response","17","501142","0.0-9.0-0.4","SS1619739516280","","","null","","","","","","<p><img src= images/blank.png width =""600"" height = ""600"" style=""position:fixed;top:50%; left:50%; transform: translate(-50%, -50%); border:5px solid black"">","","","","","","","",""
"","12106","sequential-stimulus-presentation-old","18","513778","0.0-9.0-1.4","SS1619739516280","trial","","40","500","12606","images/stimuli/spore_stims/simple_03_A_b.gif","images/stimuli/spore_stims/simple_11_A_a.gif","self_paced","","0","simple_dissimilar","images/stimuli/spore_stims/simple_11_A_a.gif","","","","",""
"","4034","survey-multi-choice","19","517862","0.0-10.0","SS1619739516280","math_question","","","","","","","","","","","","{""Q0"":""2""}","[0]","2","",""
"","null","html-keyboard-response","20","518932","0.0-11.0-0.0","SS1619739516280","","","null","","","","","","<p><img src= images/blank.png width =""600"" height = ""600"" style=""position:fixed;top:50%; left:50%; transform: translate(-50%, -50%); border:5px solid black"">","","","","","","","",""
"","14352","sequential-stimulus-presentation-old","21","548306","0.0-11.0-1.0","SS1619739516280","trial","","40","500","14852","images/stimuli/spore_stims/complex_14_A_b.gif","images/stimuli/spore_stims/complex_18_A_a.gif","forced_long","","1","complex_dissimilar","images/stimuli/spore_stims/complex_18_A_a.gif","","","","",""
"","null","html-keyboard-response","22","549234","0.0-11.0-0.1","SS1619739516280","","","null","","","","","","<p><img src= images/blank.png width =""600"" height = ""600"" style=""position:fixed;top:50%; left:50%; transform: translate(-50%, -50%); border:5px solid black"">","","","","","","","",""
"","11440","sequential-stimulus-presentation-old","23","561230","0.0-11.0-1.1","SS1619739516280","trial","","40","500","11940","images/stimuli/spore_stims/complex_14_A_b.gif","images/stimuli/spore_stims/complex_18_A_a.gif","forced_long","","1","complex_dissimilar","images/stimuli/spore_stims/complex_18_A_a.gif","","","","",""
"","null","html-keyboard-response","24","562312","0.0-11.0-0.2","SS1619739516280","","","null","","","","","","<p><img src= images/blank.png width =""600"" height = ""600"" style=""position:fixed;top:50%; left:50%; transform: translate(-50%, -50%); border:5px solid black"">","","","","","","","",""
"","8682","sequential-stimulus-presentation-old","25","571540","0.0-11.0-1.2","SS1619739516280","trial","","40","500","9182","images/stimuli/spore_stims/complex_14_A_b.gif","images/stimuli/spore_stims/complex_18_A_a.gif","forced_long","","1","complex_dissimilar","images/stimuli/spore_stims/complex_14_A_b.gif","","","","",""
"","null","html-keyboard-response","26","572850","0.0-11.0-0.3","SS1619739516280","","","null","","","","","","<p><img src= images/blank.png width =""600"" height = ""600"" style=""position:fixed;top:50%; left:50%; transform: translate(-50%, -50%); border:5px solid black"">","","","","","","","",""
"","10196","sequential-stimulus-presentation-old","27","583560","0.0-11.0-1.3","SS1619739516280","trial","","40","500","10696","images/stimuli/spore_stims/complex_14_A_b.gif","images/stimuli/spore_stims/complex_18_A_a.gif","forced_long","","1","complex_dissimilar","images/stimuli/spore_stims/complex_18_A_a.gif","","","","",""
"","null","html-keyboard-response","28","584632","0.0-11.0-0.4","SS1619739516280","","","null","","","","","","<p><img src= images/blank.png width =""600"" height = ""600"" style=""position:fixed;top:50%; left:50%; transform: translate(-50%, -50%); border:5px solid black"">","","","","","","","",""
"","11724","sequential-stimulus-presentation-old","29","596878","0.0-11.0-1.4","SS1619739516280","trial","","40","500","12224","images/stimuli/spore_stims/complex_14_A_b.gif","images/stimuli/spore_stims/complex_18_A_a.gif","forced_long","","1","complex_dissimilar","images/stimuli/spore_stims/complex_14_A_b.gif","","","","",""
"","4044","survey-multi-choice","30","600946","0.0-12.0","SS1619739516280","math_question","","","","","","","","","","","","{""Q0"":""15""}","[0]","15","",""
"","null","html-keyboard-response","31","602024","0.0-13.0-0.0","SS1619739516280","","","null","","","","","","<p><img src= images/blank.png width =""600"" height = ""600"" style=""position:fixed;top:50%; left:50%; transform: translate(-50%, -50%); border:5px solid black"">","","","","","","","",""
"","8064","sequential-stimulus-presentation-old","32","625104","0.0-13.0-1.0","SS1619739516280","trial","","40","500","8564","images/stimuli/spore_stims/simple_11_A_b.gif","images/stimuli/spore_stims/simple_12_A_a.gif","forced_long","","2","simple_dissimilar","images/stimuli/spore_stims/simple_12_A_a.gif","","","","",""
"","null","html-keyboard-response","33","626232","0.0-13.0-0.1","SS1619739516280","","","null","","","","","","<p><img src= images/blank.png width =""600"" height = ""600"" style=""position:fixed;top:50%; left:50%; transform: translate(-50%, -50%); border:5px solid black"">","","","","","","","",""
"","12776","sequential-stimulus-presentation-old","34","639558","0.0-13.0-1.1","SS1619739516280","trial","","40","500","13276","images/stimuli/spore_stims/simple_11_A_b.gif","images/stimuli/spore_stims/simple_12_A_a.gif","forced_long","","2","simple_dissimilar","images/stimuli/spore_stims/simple_11_A_b.gif","","","","",""
"","null","html-keyboard-response","35","640772","0.0-13.0-0.2","SS1619739516280","","","null","","","","","","<p><img src= images/blank.png width =""600"" height = ""600"" style=""position:fixed;top:50%; left:50%; transform: translate(-50%, -50%); border:5px solid black"">","","","","","","","",""
"","15732","sequential-stimulus-presentation-old","36","657024","0.0-13.0-1.2","SS1619739516280","trial","","40","500","16232","images/stimuli/spore_stims/simple_11_A_b.gif","images/stimuli/spore_stims/simple_12_A_a.gif","forced_long","","2","simple_dissimilar","images/stimuli/spore_stims/simple_11_A_b.gif","","","","",""
"","null","html-keyboard-response","37","658212","0.0-13.0-0.3","SS1619739516280","","","null","","","","","","<p><img src= images/blank.png width =""600"" height = ""600"" style=""position:fixed;top:50%; left:50%; transform: translate(-50%, -50%); border:5px solid black"">","","","","","","","",""
"","6474","sequential-stimulus-presentation-old","38","665206","0.0-13.0-1.3","SS1619739516280","trial","","40","500","6974","images/stimuli/spore_stims/simple_11_A_b.gif","images/stimuli/spore_stims/simple_12_A_a.gif","forced_long","","2","simple_dissimilar","images/stimuli/spore_stims/simple_12_A_a.gif","","","","",""
"","3274","survey-multi-choice","39","668496","0.0-14.0","SS1619739516280","math_question","","","","","","","","","","","","{""Q0"":""4""}","[0]","4","",""
"","null","html-keyboard-response","40","669630","0.0-15.0-0.0","SS1619739516280","","","null","","","","","","<p><img src= images/blank.png width =""600"" height = ""600"" style=""position:fixed;top:50%; left:50%; transform: translate(-50%, -50%); border:5px solid black"">","","","","","","","",""
"","4026","sequential-stimulus-presentation-old","41","674174","0.0-15.0-1.0","SS1619739516280","trial","","40","500","4526","images/stimuli/spore_stims/complex_07_A_a.gif","images/stimuli/spore_stims/complex_01_A_b.gif","forced_short","","3","complex_dissimilar","images/stimuli/spore_stims/complex_01_A_b.gif","","","","",""
"","null","html-keyboard-response","42","675130","0.0-15.0-0.1","SS1619739516280","","","null","","","","","","<p><img src= images/blank.png width =""600"" height = ""600"" style=""position:fixed;top:50%; left:50%; transform: translate(-50%, -50%); border:5px solid black"">","","","","","","","",""
"","5492","sequential-stimulus-presentation-old","43","681144","0.0-15.0-1.1","SS1619739516280","trial","","40","500","5992","images/stimuli/spore_stims/complex_07_A_a.gif","images/stimuli/spore_stims/complex_01_A_b.gif","forced_short","","3","complex_dissimilar","images/stimuli/spore_stims/complex_07_A_a.gif","","","","",""
"","null","html-keyboard-response","44","682232","0.0-15.0-0.2","SS1619739516280","","","null","","","","","","<p><img src= images/blank.png width =""600"" height = ""600"" style=""position:fixed;top:50%; left:50%; transform: translate(-50%, -50%); border:5px solid black"">","","","","","","","",""
"","7036","sequential-stimulus-presentation-old","45","689790","0.0-15.0-1.2","SS1619739516280","trial","","40","500","7536","images/stimuli/spore_stims/complex_07_A_a.gif","images/stimuli/spore_stims/complex_01_A_b.gif","forced_short","","3","complex_dissimilar","images/stimuli/spore_stims/complex_01_A_b.gif","","","","",""
"","null","html-keyboard-response","46","690780","0.0-15.0-0.3","SS1619739516280","","","null","","","","","","<p><img src= images/blank.png width =""600"" height = ""600"" style=""position:fixed;top:50%; left:50%; transform: translate(-50%, -50%); border:5px solid black"">","","","","","","","",""
"","5574","sequential-stimulus-presentation-old","47","696888","0.0-15.0-1.3","SS1619739516280","trial","","40","500","6074","images/stimuli/spore_stims/complex_07_A_a.gif","images/stimuli/spore_stims/complex_01_A_b.gif","forced_short","","3","complex_dissimilar","images/stimuli/spore_stims/complex_01_A_b.gif","","","","",""
"","null","html-keyboard-response","48","697820","0.0-15.0-0.4","SS1619739516280","","","null","","","","","","<p><img src= images/blank.png width =""600"" height = ""600"" style=""position:fixed;top:50%; left:50%; transform: translate(-50%, -50%); border:5px solid black"">","","","","","","","",""
"","7798","sequential-stimulus-presentation-old","49","706138","0.0-15.0-1.4","SS1619739516280","trial","","40","500","8298","images/stimuli/spore_stims/complex_07_A_a.gif","images/stimuli/spore_stims/complex_01_A_b.gif","forced_short","","3","complex_dissimilar","images/stimuli/spore_stims/complex_01_A_b.gif","","","","",""
"","null","html-keyboard-response","50","707000","0.0-15.0-0.5","SS1619739516280","","","null","","","","","","<p><img src= images/blank.png width =""600"" height = ""600"" style=""position:fixed;top:50%; left:50%; transform: translate(-50%, -50%); border:5px solid black"">","","","","","","","",""
"","8760","sequential-stimulus-presentation-old","51","716298","0.0-15.0-1.5","SS1619739516280","trial","","40","500","9260","images/stimuli/spore_stims/complex_07_A_a.gif","images/stimuli/spore_stims/complex_01_A_b.gif","forced_short","","3","complex_dissimilar","images/stimuli/spore_stims/complex_07_A_a.gif","","","","",""
"","3644","survey-multi-choice","52","719956","0.0-16.0","SS1619739516280","math_question","","","","","","","","","","","","{""Q0"":""14""}","[0]","14","",""
"","null","html-keyboard-response","53","720850","0.0-17.0-0.0","SS1619739516280","","","null","","","","","","<p><img src= images/blank.png width =""600"" height = ""600"" style=""position:fixed;top:50%; left:50%; transform: translate(-50%, -50%); border:5px solid black"">","","","","","","","",""
"","3692","sequential-stimulus-presentation-old","54","725076","0.0-17.0-1.0","SS1619739516280","trial","","40","500","4192","images/stimuli/spore_stims/simple_18_A_a.gif","images/stimuli/spore_stims/simple_05_A_b.gif","forced_short","","4","simple_dissimilar","images/stimuli/spore_stims/simple_05_A_b.gif","","","","",""
"","null","html-keyboard-response","55","725970","0.0-17.0-0.1","SS1619739516280","","","null","","","","","","<p><img src= images/blank.png width =""600"" height = ""600"" style=""position:fixed;top:50%; left:50%; transform: translate(-50%, -50%); border:5px solid black"">","","","","","","","",""
"","8782","sequential-stimulus-presentation-old","56","735284","0.0-17.0-1.1","SS1619739516280","trial","","40","500","9282","images/stimuli/spore_stims/simple_18_A_a.gif","images/stimuli/spore_stims/simple_05_A_b.gif","forced_short","","4","simple_dissimilar","images/stimuli/spore_stims/simple_05_A_b.gif","","","","",""
"","null","html-keyboard-response","57","736320","0.0-17.0-0.2","SS1619739516280","","","null","","","","","","<p><img src= images/blank.png width =""600"" height = ""600"" style=""position:fixed;top:50%; left:50%; transform: translate(-50%, -50%); border:5px solid black"">","","","","","","","",""
"","8338","sequential-stimulus-presentation-old","58","745180","0.0-17.0-1.2","SS1619739516280","trial","","40","500","8838","images/stimuli/spore_stims/simple_18_A_a.gif","images/stimuli/spore_stims/simple_05_A_b.gif","forced_short","","4","simple_dissimilar","images/stimuli/spore_stims/simple_18_A_a.gif","","","","",""
"","null","html-keyboard-response","59","746350","0.0-17.0-0.3","SS1619739516280","","","null","","","","","","<p><img src= images/blank.png width =""600"" height = ""600"" style=""position:fixed;top:50%; left:50%; transform: translate(-50%, -50%); border:5px solid black"">","","","","","","","",""
"","6946","sequential-stimulus-presentation-old","60","753818","0.0-17.0-1.3","SS1619739516280","trial","","40","500","7446","images/stimuli/spore_stims/simple_18_A_a.gif","images/stimuli/spore_stims/simple_05_A_b.gif","forced_short","","4","simple_dissimilar","images/stimuli/spore_stims/simple_05_A_b.gif","","","","",""
"","null","html-keyboard-response","61","754770","0.0-17.0-0.4","SS1619739516280","","","null","","","","","","<p><img src= images/blank.png width =""600"" height = ""600"" style=""position:fixed;top:50%; left:50%; transform: translate(-50%, -50%); border:5px solid black"">","","","","","","","",""
"","6812","sequential-stimulus-presentation-old","62","762102","0.0-17.0-1.4","SS1619739516280","trial","","40","500","7312","images/stimuli/spore_stims/simple_18_A_a.gif","images/stimuli/spore_stims/simple_05_A_b.gif","forced_short","","4","simple_dissimilar","images/stimuli/spore_stims/simple_05_A_b.gif","","","","",""
"","null","html-keyboard-response","63","763140","0.0-17.0-0.5","SS1619739516280","","","null","","","","","","<p><img src= images/blank.png width =""600"" height = ""600"" style=""position:fixed;top:50%; left:50%; transform: translate(-50%, -50%); border:5px solid black"">","","","","","","","",""
"","3862","sequential-stimulus-presentation-old","64","767526","0.0-17.0-1.5","SS1619739516280","trial","","40","500","4362","images/stimuli/spore_stims/simple_18_A_a.gif","images/stimuli/spore_stims/simple_05_A_b.gif","forced_short","","4","simple_dissimilar","images/stimuli/spore_stims/simple_05_A_b.gif","","","","",""
"","3642","survey-multi-choice","65","771190","0.0-18.0","SS1619739516280","math_question","","","","","","","","","","","","{""Q0"":""12""}","[0]","12","",""
"","null","html-keyboard-response","66","772328","0.0-19.0-0.0","SS1619739516280","","","null","","","","","","<p><img src= images/blank.png width =""600"" height = ""600"" style=""position:fixed;top:50%; left:50%; transform: translate(-50%, -50%); border:5px solid black"">","","","","","","","",""
"","2352","sequential-stimulus-presentation-old","67","775200","0.0-19.0-1.0","SS1619739516280","trial","","40","500","2852","images/stimuli/spore_stims/complex_16_A_a.gif","images/stimuli/spore_stims/complex_05_A_b.gif","forced_short","","5","complex_dissimilar","images/stimuli/spore_stims/complex_05_A_b.gif","","","","",""
"","null","html-keyboard-response","68","776110","0.0-19.0-0.1","SS1619739516280","","","null","","","","","","<p><img src= images/blank.png width =""600"" height = ""600"" style=""position:fixed;top:50%; left:50%; transform: translate(-50%, -50%); border:5px solid black"">","","","","","","","",""
"","9216","sequential-stimulus-presentation-old","69","785846","0.0-19.0-1.1","SS1619739516280","trial","","40","500","9716","images/stimuli/spore_stims/complex_16_A_a.gif","images/stimuli/spore_stims/complex_05_A_b.gif","forced_short","","5","complex_dissimilar","images/stimuli/spore_stims/complex_05_A_b.gif","","","","",""
"","null","html-keyboard-response","70","787020","0.0-19.0-0.2","SS1619739516280","","","null","","","","","","<p><img src= images/blank.png width =""600"" height = ""600"" style=""position:fixed;top:50%; left:50%; transform: translate(-50%, -50%); border:5px solid black"">","","","","","","","",""
"","4708","sequential-stimulus-presentation-old","71","792246","0.0-19.0-1.2","SS1619739516280","trial","","40","500","5208","images/stimuli/spore_stims/complex_16_A_a.gif","images/stimuli/spore_stims/complex_05_A_b.gif","forced_short","","5","complex_dissimilar","images/stimuli/spore_stims/complex_05_A_b.gif","","","","",""
"","null","html-keyboard-response","72","793410","0.0-19.0-0.3","SS1619739516280","","","null","","","","","","<p><img src= images/blank.png width =""600"" height = ""600"" style=""position:fixed;top:50%; left:50%; transform: translate(-50%, -50%); border:5px solid black"">","","","","","","","",""
"","4010","sequential-stimulus-presentation-old","73","797940","0.0-19.0-1.3","SS1619739516280","trial","","40","500","4510","images/stimuli/spore_stims/complex_16_A_a.gif","images/stimuli/spore_stims/complex_05_A_b.gif","forced_short","","5","complex_dissimilar","images/stimuli/spore_stims/complex_16_A_a.gif","","","","",""
"","null","html-keyboard-response","74","798780","0.0-19.0-0.4","SS1619739516280","","","null","","","","","","<p><img src= images/blank.png width =""600"" height = ""600"" style=""position:fixed;top:50%; left:50%; transform: translate(-50%, -50%); border:5px solid black"">","","","","","","","",""
"","8956","sequential-stimulus-presentation-old","75","808256","0.0-19.0-1.4","SS1619739516280","trial","","40","500","9456","images/stimuli/spore_stims/complex_16_A_a.gif","images/stimuli/spore_stims/complex_05_A_b.gif","forced_short","","5","complex_dissimilar","images/stimuli/spore_stims/complex_05_A_b.gif","","","","",""
"","null","html-keyboard-response","76","809310","0.0-19.0-0.5","SS1619739516280","","","null","","","","","","<p><img src= images/blank.png width =""600"" height = ""600"" style=""position:fixed;top:50%; left:50%; transform: translate(-50%, -50%); border:5px solid black"">","","","","","","","",""
"","5660","sequential-stimulus-presentation-old","77","815490","0.0-19.0-1.5","SS1619739516280","trial","","40","500","6160","images/stimuli/spore_stims/complex_16_A_a.gif","images/stimuli/spore_stims/complex_05_A_b.gif","forced_short","","5","complex_dissimilar","images/stimuli/spore_stims/complex_16_A_a.gif","","","","",""
"","3838","survey-multi-choice","78","819348","0.0-20.0","SS1619739516280","math_question","","","","","","","","","","","","{""Q0"":""6""}","[0]","6","",""
"","null","html-keyboard-response","79","820180","0.0-21.0-0.0","SS1619739516280","","","null","","","","","","<p><img src= images/blank.png width =""600"" height = ""600"" style=""position:fixed;top:50%; left:50%; transform: translate(-50%, -50%); border:5px solid black"">","","","","","","","",""
"","12468","sequential-stimulus-presentation-old","80","833178","0.0-21.0-1.0","SS1619739516280","trial","","40","500","12968","images/stimuli/spore_stims/complex_11_A_a.gif","images/stimuli/spore_stims/complex_04_A_b.gif","self_paced","","6","complex_dissimilar","images/stimuli/spore_stims/complex_04_A_b.gif","","","","",""
"","null","html-keyboard-response","81","834188","0.0-21.0-0.1","SS1619739516280","","","null","","","","","","<p><img src= images/blank.png width =""600"" height = ""600"" style=""position:fixed;top:50%; left:50%; transform: translate(-50%, -50%); border:5px solid black"">","","","","","","","",""
"","6686","sequential-stimulus-presentation-old","82","841414","0.0-21.0-1.1","SS1619739516280","trial","","40","500","7186","images/stimuli/spore_stims/complex_11_A_a.gif","images/stimuli/spore_stims/complex_04_A_b.gif","self_paced","","6","complex_dissimilar","images/stimuli/spore_stims/complex_04_A_b.gif","","","","",""
"","null","html-keyboard-response","83","842390","0.0-21.0-0.2","SS1619739516280","","","null","","","","","","<p><img src= images/blank.png width =""600"" height = ""600"" style=""position:fixed;top:50%; left:50%; transform: translate(-50%, -50%); border:5px solid black"">","","","","","","","",""
"","7152","sequential-stimulus-presentation-old","84","850074","0.0-21.0-1.2","SS1619739516280","trial","","40","500","7652","images/stimuli/spore_stims/complex_11_A_a.gif","images/stimuli/spore_stims/complex_04_A_b.gif","self_paced","","6","complex_dissimilar","images/stimuli/spore_stims/complex_04_A_b.gif","","","","",""
"","null","html-keyboard-response","85","851178","0.0-21.0-0.3","SS1619739516280","","","null","","","","","","<p><img src= images/blank.png width =""600"" height = ""600"" style=""position:fixed;top:50%; left:50%; transform: translate(-50%, -50%); border:5px solid black"">","","","","","","","",""
"","4334","sequential-stimulus-presentation-old","86","856034","0.0-21.0-1.3","SS1619739516280","trial","","40","500","4834","images/stimuli/spore_stims/complex_11_A_a.gif","images/stimuli/spore_stims/complex_04_A_b.gif","self_paced","","6","complex_dissimilar","images/stimuli/spore_stims/complex_04_A_b.gif","","","","",""
"","null","html-keyboard-response","87","856978","0.0-21.0-0.4","SS1619739516280","","","null","","","","","","<p><img src= images/blank.png width =""600"" height = ""600"" style=""position:fixed;top:50%; left:50%; transform: translate(-50%, -50%); border:5px solid black"">","","","","","","","",""
"","6726","sequential-stimulus-presentation-old","88","864246","0.0-21.0-1.4","SS1619739516280","trial","","40","500","7226","images/stimuli/spore_stims/complex_11_A_a.gif","images/stimuli/spore_stims/complex_04_A_b.gif","self_paced","","6","complex_dissimilar","images/stimuli/spore_stims/complex_04_A_b.gif","","","","",""
"","null","html-keyboard-response","89","865328","0.0-21.0-0.5","SS1619739516280","","","null","","","","","","<p><img src= images/blank.png width =""600"" height = ""600"" style=""position:fixed;top:50%; left:50%; transform: translate(-50%, -50%); border:5px solid black"">","","","","","","","",""
"","6640","sequential-stimulus-presentation-old","90","872498","0.0-21.0-1.5","SS1619739516280","trial","","40","500","7140","images/stimuli/spore_stims/complex_11_A_a.gif","images/stimuli/spore_stims/complex_04_A_b.gif","self_paced","","6","complex_dissimilar","images/stimuli/spore_stims/complex_04_A_b.gif","","","","",""
"","4122","survey-multi-choice","91","876644","0.0-22.0","SS1619739516280","math_question","","","","","","","","","","","","{""Q0"":""15""}","[0]","15","",""
"","null","html-keyboard-response","92","877908","0.0-23.0-0.0","SS1619739516280","","","null","","","","","","<p><img src= images/blank.png width =""600"" height = ""600"" style=""position:fixed;top:50%; left:50%; transform: translate(-50%, -50%); border:5px solid black"">","","","","","","","",""
"","1922","sequential-stimulus-presentation-old","93","880362","0.0-23.0-1.0","SS1619739516280","trial","","40","500","2422","images/stimuli/spore_stims/simple_03_A_a.gif","images/stimuli/spore_stims/simple_13_A_b.gif","forced_short","","7","simple_dissimilar","images/stimuli/spore_stims/simple_13_A_b.gif","","","","",""
"","null","html-keyboard-response","94","881248","0.0-23.0-0.1","SS1619739516280","","","null","","","","","","<p><img src= images/blank.png width =""600"" height = ""600"" style=""position:fixed;top:50%; left:50%; transform: translate(-50%, -50%); border:5px solid black"">","","","","","","","",""
"","3396","sequential-stimulus-presentation-old","95","885176","0.0-23.0-1.1","SS1619739516280","trial","","40","500","3896","images/stimuli/spore_stims/simple_03_A_a.gif","images/stimuli/spore_stims/simple_13_A_b.gif","forced_short","","7","simple_dissimilar","images/stimuli/spore_stims/simple_13_A_b.gif","","","","",""
"","null","html-keyboard-response","96","886248","0.0-23.0-0.2","SS1619739516280","","","null","","","","","","<p><img src= images/blank.png width =""600"" height = ""600"" style=""position:fixed;top:50%; left:50%; transform: translate(-50%, -50%); border:5px solid black"">","","","","","","","",""
"","2442","sequential-stimulus-presentation-old","97","889222","0.0-23.0-1.2","SS1619739516280","trial","","40","500","2942","images/stimuli/spore_stims/simple_03_A_a.gif","images/stimuli/spore_stims/simple_13_A_b.gif","forced_short","","7","simple_dissimilar","images/stimuli/spore_stims/simple_13_A_b.gif","","","","",""
"","null","html-keyboard-response","98","890488","0.0-23.0-0.3","SS1619739516280","","","null","","","","","","<p><img src= images/blank.png width =""600"" height = ""600"" style=""position:fixed;top:50%; left:50%; transform: translate(-50%, -50%); border:5px solid black"">","","","","","","","",""
"","4010","sequential-stimulus-presentation-old","99","895040","0.0-23.0-1.3","SS1619739516280","trial","","40","500","4510","images/stimuli/spore_stims/simple_03_A_a.gif","images/stimuli/spore_stims/simple_13_A_b.gif","forced_short","","7","simple_dissimilar","images/stimuli/spore_stims/simple_13_A_b.gif","","","","",""
"","null","html-keyboard-response","100","896338","0.0-23.0-0.4","SS1619739516280","","","null","","","","","","<p><img src= images/blank.png width =""600"" height = ""600"" style=""position:fixed;top:50%; left:50%; transform: translate(-50%, -50%); border:5px solid black"">","","","","","","","",""
"","1808","sequential-stimulus-presentation-old","101","898678","0.0-23.0-1.4","SS1619739516280","trial","","40","500","2308","images/stimuli/spore_stims/simple_03_A_a.gif","images/stimuli/spore_stims/simple_13_A_b.gif","forced_short","","7","simple_dissimilar","images/stimuli/spore_stims/simple_13_A_b.gif","","","","",""
"","3552","survey-multi-choice","102","902260","0.0-24.0","SS1619739516280","math_question","","","","","","","","","","","","{""Q0"":""8""}","[0]","8","",""
"","null","html-keyboard-response","103","903278","0.0-25.0-0.0","SS1619739516280","","","null","","","","","","<p><img src= images/blank.png width =""600"" height = ""600"" style=""position:fixed;top:50%; left:50%; transform: translate(-50%, -50%); border:5px solid black"">","","","","","","","",""
"","6268","sequential-stimulus-presentation-old","104","924598","0.0-25.0-1.0","SS1619739516280","trial","","40","500","6768","images/stimuli/spore_stims/complex_20_A_b.gif","images/stimuli/spore_stims/complex_08_A_a.gif","forced_long","","8","complex_dissimilar","images/stimuli/spore_stims/complex_08_A_a.gif","","","","",""
"","null","html-keyboard-response","105","925618","0.0-25.0-0.1","SS1619739516280","","","null","","","","","","<p><img src= images/blank.png width =""600"" height = ""600"" style=""position:fixed;top:50%; left:50%; transform: translate(-50%, -50%); border:5px solid black"">","","","","","","","",""
"","9218","sequential-stimulus-presentation-old","106","935366","0.0-25.0-1.1","SS1619739516280","trial","","40","500","9718","images/stimuli/spore_stims/complex_20_A_b.gif","images/stimuli/spore_stims/complex_08_A_a.gif","forced_long","","8","complex_dissimilar","images/stimuli/spore_stims/complex_08_A_a.gif","","","","",""
"","null","html-keyboard-response","107","936418","0.0-25.0-0.2","SS1619739516280","","","null","","","","","","<p><img src= images/blank.png width =""600"" height = ""600"" style=""position:fixed;top:50%; left:50%; transform: translate(-50%, -50%); border:5px solid black"">","","","","","","","",""
"","10912","sequential-stimulus-presentation-old","108","947872","0.0-25.0-1.2","SS1619739516280","trial","","40","500","11412","images/stimuli/spore_stims/complex_20_A_b.gif","images/stimuli/spore_stims/complex_08_A_a.gif","forced_long","","8","complex_dissimilar","images/stimuli/spore_stims/complex_08_A_a.gif","","","","",""
"","null","html-keyboard-response","109","948818","0.0-25.0-0.3","SS1619739516280","","","null","","","","","","<p><img src= images/blank.png width =""600"" height = ""600"" style=""position:fixed;top:50%; left:50%; transform: translate(-50%, -50%); border:5px solid black"">","","","","","","","",""
"","10848","sequential-stimulus-presentation-old","110","960206","0.0-25.0-1.3","SS1619739516280","trial","","40","500","11348","images/stimuli/spore_stims/complex_20_A_b.gif","images/stimuli/spore_stims/complex_08_A_a.gif","forced_long","","8","complex_dissimilar","images/stimuli/spore_stims/complex_08_A_a.gif","","","","",""
"","null","html-keyboard-response","111","961098","0.0-25.0-0.4","SS1619739516280","","","null","","","","","","<p><img src= images/blank.png width =""600"" height = ""600"" style=""position:fixed;top:50%; left:50%; transform: translate(-50%, -50%); border:5px solid black"">","","","","","","","",""
"","5896","sequential-stimulus-presentation-old","112","967522","0.0-25.0-1.4","SS1619739516280","trial","","40","500","6396","images/stimuli/spore_stims/complex_20_A_b.gif","images/stimuli/spore_stims/complex_08_A_a.gif","forced_long","","8","complex_dissimilar","images/stimuli/spore_stims/complex_08_A_a.gif","","","","",""
"","null","html-keyboard-response","113","968538","0.0-25.0-0.5","SS1619739516280","","","null","","","","","","<p><img src= images/blank.png width =""600"" height = ""600"" style=""position:fixed;top:50%; left:50%; transform: translate(-50%, -50%); border:5px solid black"">","","","","","","","",""
"","13140","sequential-stimulus-presentation-old","114","982208","0.0-25.0-1.5","SS1619739516280","trial","","40","500","13640","images/stimuli/spore_stims/complex_20_A_b.gif","images/stimuli/spore_stims/complex_08_A_a.gif","forced_long","","8","complex_dissimilar","images/stimuli/spore_stims/complex_08_A_a.gif","","","","",""
"","3462","survey-multi-choice","115","985692","0.0-26.0","SS1619739516280","math_question","","","","","","","","","","","","{""Q0"":""15""}","[0]","15","",""
"","null","html-keyboard-response","116","986918","0.0-27.0-0.0","SS1619739516280","","","null","","","","","","<p><img src= images/blank.png width =""600"" height = ""600"" style=""position:fixed;top:50%; left:50%; transform: translate(-50%, -50%); border:5px solid black"">","","","","","","","",""
"","6182","sequential-stimulus-presentation-old","117","1008140","0.0-27.0-1.0","SS1619739516280","trial","","40","500","6682","images/stimuli/spore_stims/simple_15_A_a.gif","images/stimuli/spore_stims/simple_01_A_b.gif","forced_long","","9","simple_dissimilar","images/stimuli/spore_stims/simple_01_A_b.gif","","","","",""
"","null","html-keyboard-response","118","1009120","0.0-27.0-0.1","SS1619739516280","","","null","","","","","","<p><img src= images/blank.png width =""600"" height = ""600"" style=""position:fixed;top:50%; left:50%; transform: translate(-50%, -50%); border:5px solid black"">","","","","","","","",""
"","5524","sequential-stimulus-presentation-old","119","1015172","0.0-27.0-1.1","SS1619739516280","trial","","40","500","6024","images/stimuli/spore_stims/simple_15_A_a.gif","images/stimuli/spore_stims/simple_01_A_b.gif","forced_long","","9","simple_dissimilar","images/stimuli/spore_stims/simple_01_A_b.gif","","","","",""
"","null","html-keyboard-response","120","1016094","0.0-27.0-0.2","SS1619739516280","","","null","","","","","","<p><img src= images/blank.png width =""600"" height = ""600"" style=""position:fixed;top:50%; left:50%; transform: translate(-50%, -50%); border:5px solid black"">","","","","","","","",""
"","7130","sequential-stimulus-presentation-old","121","1023764","0.0-27.0-1.2","SS1619739516280","trial","","40","500","7630","images/stimuli/spore_stims/simple_15_A_a.gif","images/stimuli/spore_stims/simple_01_A_b.gif","forced_long","","9","simple_dissimilar","images/stimuli/spore_stims/simple_01_A_b.gif","","","","",""
"","null","html-keyboard-response","122","1024968","0.0-27.0-0.3","SS1619739516280","","","null","","","","","","<p><img src= images/blank.png width =""600"" height = ""600"" style=""position:fixed;top:50%; left:50%; transform: translate(-50%, -50%); border:5px solid black"">","","","","","","","",""
"","5736","sequential-stimulus-presentation-old","123","1031244","0.0-27.0-1.3","SS1619739516280","trial","","40","500","6236","images/stimuli/spore_stims/simple_15_A_a.gif","images/stimuli/spore_stims/simple_01_A_b.gif","forced_long","","9","simple_dissimilar","images/stimuli/spore_stims/simple_01_A_b.gif","","","","",""
"","null","html-keyboard-response","124","1032538","0.0-27.0-0.4","SS1619739516280","","","null","","","","","","<p><img src= images/blank.png width =""600"" height = ""600"" style=""position:fixed;top:50%; left:50%; transform: translate(-50%, -50%); border:5px solid black"">","","","","","","","",""
"","5122","sequential-stimulus-presentation-old","125","1038194","0.0-27.0-1.4","SS1619739516280","trial","","40","500","5622","images/stimuli/spore_stims/simple_15_A_a.gif","images/stimuli/spore_stims/simple_01_A_b.gif","forced_long","","9","simple_dissimilar","images/stimuli/spore_stims/simple_01_A_b.gif","","","","",""
"","null","html-keyboard-response","126","1039072","0.0-27.0-0.5","SS1619739516280","","","null","","","","","","<p><img src= images/blank.png width =""600"" height = ""600"" style=""position:fixed;top:50%; left:50%; transform: translate(-50%, -50%); border:5px solid black"">","","","","","","","",""
"","2026","sequential-stimulus-presentation-old","127","1041632","0.0-27.0-1.5","SS1619739516280","trial","","40","500","2526","images/stimuli/spore_stims/simple_15_A_a.gif","images/stimuli/spore_stims/simple_01_A_b.gif","forced_long","","9","simple_dissimilar","images/stimuli/spore_stims/simple_01_A_b.gif","","","","",""
"","3580","survey-multi-choice","128","1045242","0.0-28.0","SS1619739516280","math_question","","","","","","","","","","","","{""Q0"":""10""}","[0]","10","",""
"","null","html-keyboard-response","129","1046424","0.0-29.0-0.0","SS1619739516280","","","null","","","","","","<p><img src= images/blank.png width =""600"" height = ""600"" style=""position:fixed;top:50%; left:50%; transform: translate(-50%, -50%); border:5px solid black"">","","","","","","","",""
"","7140","sequential-stimulus-presentation-old","130","1054104","0.0-29.0-1.0","SS1619739516280","trial","","40","500","7640","images/stimuli/spore_stims/complex_09_A_b.gif","images/stimuli/spore_stims/complex_15_A_a.gif","self_paced","","10","complex_dissimilar","images/stimuli/spore_stims/complex_15_A_a.gif","","","","",""
"","null","html-keyboard-response","131","1055218","0.0-29.0-0.1","SS1619739516280","","","null","","","","","","<p><img src= images/blank.png width =""600"" height = ""600"" style=""position:fixed;top:50%; left:50%; transform: translate(-50%, -50%); border:5px solid black"">","","","","","","","",""
"","10082","sequential-stimulus-presentation-old","132","1065836","0.0-29.0-1.1","SS1619739516280","trial","","40","500","10582","images/stimuli/spore_stims/complex_09_A_b.gif","images/stimuli/spore_stims/complex_15_A_a.gif","self_paced","","10","complex_dissimilar","images/stimuli/spore_stims/complex_15_A_a.gif","","","","",""
"","null","html-keyboard-response","133","1067026","0.0-29.0-0.2","SS1619739516280","","","null","","","","","","<p><img src= images/blank.png width =""600"" height = ""600"" style=""position:fixed;top:50%; left:50%; transform: translate(-50%, -50%); border:5px solid black"">","","","","","","","",""
"","8464","sequential-stimulus-presentation-old","134","1076022","0.0-29.0-1.2","SS1619739516280","trial","","40","500","8964","images/stimuli/spore_stims/complex_09_A_b.gif","images/stimuli/spore_stims/complex_15_A_a.gif","self_paced","","10","complex_dissimilar","images/stimuli/spore_stims/complex_15_A_a.gif","","","","",""
"","null","html-keyboard-response","135","1077246","0.0-29.0-0.3","SS1619739516280","","","null","","","","","","<p><img src= images/blank.png width =""600"" height = ""600"" style=""position:fixed;top:50%; left:50%; transform: translate(-50%, -50%); border:5px solid black"">","","","","","","","",""
"","5528","sequential-stimulus-presentation-old","136","1083302","0.0-29.0-1.3","SS1619739516280","trial","","40","500","6028","images/stimuli/spore_stims/complex_09_A_b.gif","images/stimuli/spore_stims/complex_15_A_a.gif","self_paced","","10","complex_dissimilar","images/stimuli/spore_stims/complex_09_A_b.gif","","","","",""
"","null","html-keyboard-response","137","1084208","0.0-29.0-0.4","SS1619739516280","","","null","","","","","","<p><img src= images/blank.png width =""600"" height = ""600"" style=""position:fixed;top:50%; left:50%; transform: translate(-50%, -50%); border:5px solid black"">","","","","","","","",""
"","6666","sequential-stimulus-presentation-old","138","1091454","0.0-29.0-1.4","SS1619739516280","trial","","40","500","7166","images/stimuli/spore_stims/complex_09_A_b.gif","images/stimuli/spore_stims/complex_15_A_a.gif","self_paced","","10","complex_dissimilar","images/stimuli/spore_stims/complex_15_A_a.gif","","","","",""
"","null","html-keyboard-response","139","1092662","0.0-29.0-0.5","SS1619739516280","","","null","","","","","","<p><img src= images/blank.png width =""600"" height = ""600"" style=""position:fixed;top:50%; left:50%; transform: translate(-50%, -50%); border:5px solid black"">","","","","","","","",""
"","5506","sequential-stimulus-presentation-old","140","1098708","0.0-29.0-1.5","SS1619739516280","trial","","40","500","6006","images/stimuli/spore_stims/complex_09_A_b.gif","images/stimuli/spore_stims/complex_15_A_a.gif","self_paced","","10","complex_dissimilar","images/stimuli/spore_stims/complex_09_A_b.gif","","","","",""
"","3510","survey-multi-choice","141","1102248","0.0-30.0","SS1619739516280","math_question","","","","","","","","","","","","{""Q0"":""9""}","[0]","9","",""
"","null","html-keyboard-response","142","1103454","0.0-31.0-0.0","SS1619739516280","","","null","","","","","","<p><img src= images/blank.png width =""600"" height = ""600"" style=""position:fixed;top:50%; left:50%; transform: translate(-50%, -50%); border:5px solid black"">","","","","","","","",""
"","7910","sequential-stimulus-presentation-old","143","1111906","0.0-31.0-1.0","SS1619739516280","trial","","40","500","8410","images/stimuli/spore_stims/simple_04_A_b.gif","images/stimuli/spore_stims/simple_10_A_a.gif","self_paced","","11","simple_dissimilar","images/stimuli/spore_stims/simple_10_A_a.gif","","","","",""
"","null","html-keyboard-response","144","1113116","0.0-31.0-0.1","SS1619739516280","","","null","","","","","","<p><img src= images/blank.png width =""600"" height = ""600"" style=""position:fixed;top:50%; left:50%; transform: translate(-50%, -50%); border:5px solid black"">","","","","","","","",""
"","4240","sequential-stimulus-presentation-old","145","1117902","0.0-31.0-1.1","SS1619739516280","trial","","40","500","4740","images/stimuli/spore_stims/simple_04_A_b.gif","images/stimuli/spore_stims/simple_10_A_a.gif","self_paced","","11","simple_dissimilar","images/stimuli/spore_stims/simple_10_A_a.gif","","","","",""
"","null","html-keyboard-response","146","1119096","0.0-31.0-0.2","SS1619739516280","","","null","","","","","","<p><img src= images/blank.png width =""600"" height = ""600"" style=""position:fixed;top:50%; left:50%; transform: translate(-50%, -50%); border:5px solid black"">","","","","","","","",""
"","4076","sequential-stimulus-presentation-old","147","1123702","0.0-31.0-1.2","SS1619739516280","trial","","40","500","4576","images/stimuli/spore_stims/simple_04_A_b.gif","images/stimuli/spore_stims/simple_10_A_a.gif","self_paced","","11","simple_dissimilar","images/stimuli/spore_stims/simple_04_A_b.gif","","","","",""
"","null","html-keyboard-response","148","1124746","0.0-31.0-0.3","SS1619739516280","","","null","","","","","","<p><img src= images/blank.png width =""600"" height = ""600"" style=""position:fixed;top:50%; left:50%; transform: translate(-50%, -50%); border:5px solid black"">","","","","","","","",""
"","4732","sequential-stimulus-presentation-old","149","1130024","0.0-31.0-1.3","SS1619739516280","trial","","40","500","5232","images/stimuli/spore_stims/simple_04_A_b.gif","images/stimuli/spore_stims/simple_10_A_a.gif","self_paced","","11","simple_dissimilar","images/stimuli/spore_stims/simple_10_A_a.gif","","","","",""
"","null","html-keyboard-response","150","1131226","0.0-31.0-0.4","SS1619739516280","","","null","","","","","","<p><img src= images/blank.png width =""600"" height = ""600"" style=""position:fixed;top:50%; left:50%; transform: translate(-50%, -50%); border:5px solid black"">","","","","","","","",""
"","6890","sequential-stimulus-presentation-old","151","1138654","0.0-31.0-1.4","SS1619739516280","trial","","40","500","7390","images/stimuli/spore_stims/simple_04_A_b.gif","images/stimuli/spore_stims/simple_10_A_a.gif","self_paced","","11","simple_dissimilar","images/stimuli/spore_stims/simple_04_A_b.gif","","","","",""
"[{""page_index"":0,""viewing_time"":9620}]","9620","instructions","152","1148306","0.0-32.0","SS1619739516280","instructions","","","","","","","","","","","","","","","",""
"","24232","survey-likert","153","1172640","0.0-33.0","SS1619739516280","similarity_question","","","","","","","","","","","","{""Q0"":4}","[0]","","images/stimuli/spore_stims/simple_01_A_b.gif","images/stimuli/spore_stims/simple_15_A_a.gif"
"","10058","survey-likert","154","1182748","0.0-34.0","SS1619739516280","similarity_question","","","","","","","","","","","","{""Q0"":4}","[0]","","images/stimuli/spore_stims/complex_15_A_a.gif","images/stimuli/spore_stims/complex_09_A_b.gif"
"","16362","survey-likert","155","1199172","0.0-35.0","SS1619739516280","similarity_question","","","","","","","","","","","","{""Q0"":4}","[0]","","images/stimuli/spore_stims/complex_16_A_a.gif","images/stimuli/spore_stims/complex_05_A_b.gif"
"","8882","survey-likert","156","1208112","0.0-36.0","SS1619739516280","similarity_question","","","","","","","","","","","","{""Q0"":3}","[0]","","images/stimuli/spore_stims/simple_18_A_a.gif","images/stimuli/spore_stims/simple_05_A_b.gif"
"","13770","survey-likert","157","1221926","0.0-37.0","SS1619739516280","similarity_question","","","","","","","","","","","","{""Q0"":5}","[0]","","images/stimuli/spore_stims/simple_13_A_b.gif","images/stimuli/spore_stims/simple_03_A_a.gif"
"","12272","survey-likert","158","1234240","0.0-38.0","SS1619739516280","similarity_question","","","","","","","","","","","","{""Q0"":4}","[0]","","images/stimuli/spore_stims/simple_12_A_a.gif","images/stimuli/spore_stims/simple_11_A_b.gif"
"","11242","survey-likert","159","1245524","0.0-39.0","SS1619739516280","similarity_question","","","","","","","","","","","","{""Q0"":3}","[0]","","images/stimuli/spore_stims/simple_10_A_a.gif","images/stimuli/spore_stims/simple_04_A_b.gif"
"","9342","survey-likert","160","1254910","0.0-40.0","SS1619739516280","similarity_question","","","","","","","","","","","","{""Q0"":3}","[0]","","images/stimuli/spore_stims/complex_07_A_a.gif","images/stimuli/spore_stims/complex_01_A_b.gif"
"","12358","survey-likert","161","1267322","0.0-41.0","SS1619739516280","similarity_question","","","","","","","","","","","","{""Q0"":2}","[0]","","images/stimuli/spore_stims/complex_04_A_b.gif","images/stimuli/spore_stims/complex_11_A_a.gif"
"","6624","survey-likert","162","1274004","0.0-42.0","SS1619739516280","similarity_question","","","","","","","","","","","","{""Q0"":3}","[0]","","images/stimuli/spore_stims/simple_11_A_a.gif","images/stimuli/spore_stims/simple_03_A_b.gif"
"","14034","survey-likert","163","1288084","0.0-43.0","SS1619739516280","similarity_question","","","","","","","","","","","","{""Q0"":5}","[0]","","images/stimuli/spore_stims/complex_08_A_a.gif","images/stimuli/spore_stims/complex_20_A_b.gif"
"","8708","survey-likert","164","1296844","0.0-44.0","SS1619739516280","similarity_question","","","","","","","","","","","","{""Q0"":5}","[0]","","images/stimuli/spore_stims/complex_18_A_a.gif","images/stimuli/spore_stims/complex_14_A_b.gif"
"[{""page_index"":0,""viewing_time"":11204}]","11206","instructions","165","1308084","0.0-45.0","SS1619739516280","instructions","","","","","","","","","","","","","","","",""
"","25346","survey-likert","166","1333478","0.0-46.0","SS1619739516280","","","","","","","","","images/stimuli/spore_stims/simple_11_A_a.gif","","","","{""Q0"":2}","[0]","","",""
"","9402","survey-likert","167","1342936","0.0-47.0","SS1619739516280","","","","","","","","","images/stimuli/spore_stims/complex_08_A_a.gif","","","","{""Q0"":4}","[0]","","",""
"","4904","survey-likert","168","1347882","0.0-48.0","SS1619739516280","","","","","","","","","images/stimuli/spore_stims/simple_05_A_b.gif","","","","{""Q0"":1}","[0]","","",""
"","4486","survey-likert","169","1352412","0.0-49.0","SS1619739516280","","","","","","","","","images/stimuli/spore_stims/simple_10_A_a.gif","","","","{""Q0"":1}","[0]","","",""
"","4786","survey-likert","170","1357252","0.0-50.0","SS1619739516280","","","","","","","","","images/stimuli/spore_stims/complex_18_A_a.gif","","","","{""Q0"":5}","[0]","","",""
"","5596","survey-likert","171","1362898","0.0-51.0","SS1619739516280","","","","","","","","","images/stimuli/spore_stims/simple_03_A_a.gif","","","","{""Q0"":1}","[0]","","",""
"","5306","survey-likert","172","1368248","0.0-52.0","SS1619739516280","","","","","","","","","images/stimuli/spore_stims/complex_05_A_b.gif","","","","{""Q0"":3}","[0]","","",""
"","5740","survey-likert","173","1374032","0.0-53.0","SS1619739516280","","","","","","","","","images/stimuli/spore_stims/simple_15_A_a.gif","","","","{""Q0"":1}","[0]","","",""
"","8408","survey-likert","174","1382482","0.0-54.0","SS1619739516280","","","","","","","","","images/stimuli/spore_stims/complex_07_A_a.gif","","","","{""Q0"":5}","[0]","","",""
"","8420","survey-likert","175","1390944","0.0-55.0","SS1619739516280","","","","","","","","","images/stimuli/spore_stims/complex_09_A_b.gif","","","","{""Q0"":4}","[0]","","",""
"","5760","survey-likert","176","1396764","0.0-56.0","SS1619739516280","","","","","","","","","images/stimuli/spore_stims/complex_11_A_a.gif","","","","{""Q0"":3}","[0]","","",""
"","6434","survey-likert","177","1403256","0.0-57.0","SS1619739516280","","","","","","","","","images/stimuli/spore_stims/simple_11_A_b.gif","","","","{""Q0"":2}","[0]","","",""
"[{""page_index"":0,""viewing_time"":9018}]","9020","instructions","178","1412316","0.0-58.0","SS1619739516280","instructions","","","","","","","","","","","","","","","",""
"","4510","demog-age","179","1416904","0.0-59.0","SS1619739516280","","","","","","","","","","","","","{""age"":""31""}","","","",""
"","31122","demog-ethnic-US","180","1448084","0.0-60.0","SS1619739516280","","","","","","","","","","","","","{""ethnicity"":[""White""]}","[0]","","",""
"","26746","demog-gender-and-education","181","1474876","0.0-61.0","SS1619739516280","","","","","","","","","","","","","{""gender"":""Female"",""education"":""Master's Degree""}","[0,1]","","",""
"","68208","survey-text","182","1543148","0.0-62.0","SS1619739516280","feedback","","","","","","","","","","","","{""Q0"":""Everything went well.""}","","","",""
"[{""page_index"":0,""viewing_time"":5112}]","5112","instructions","183","1548304","0.0-63.0","SS1619739516280","instructions","","","","","","","","","","","","","","","",""
