"view_history","rt","trial_type","trial_index","time_elapsed","internal_node_id","subject","stimulus_type","trial_stimulus","key_press","minimum_viewing_duration","trial_looking_time","block_deviant","block_background","exposure_type","stimulus","block_number","block_type","stimulus_displayed","responses","question_order","math_correct_answer","stimulus_left","stimulus_right"
"[{""page_index"":0,""viewing_time"":6466}]","6466","instructions","0","6468","0.0-0.0","SS1619739910027","","","","","","","","","","","","","","","","",""
"[{""page_index"":0,""viewing_time"":12473},{""page_index"":1,""viewing_time"":10815}]","23289","instructions","1","31764","0.0-1.0","SS1619739910027","instructions","","","","","","","","","","","","","","","",""
"","10741","sequential-stimulus-presentation-old","2","43022","0.0-2.0","SS1619739910027","","","40","500","11241","null","null","self_paced","","","","","","","","",""
"","4118","sequential-stimulus-presentation-old","3","47649","0.0-3.0","SS1619739910027","","","40","500","4618","null","null","self_paced","","","","","","","","",""
"[{""page_index"":0,""viewing_time"":30929}]","30929","instructions","4","78579","0.0-4.0","SS1619739910027","instructions","","","","","","","","","","","","","","","",""
"","973","sequential-stimulus-presentation-old","5","94566","0.0-5.0","SS1619739910027","","","40","500","1473","null","null","forced_long","","","","","","","","",""
"","1269","sequential-stimulus-presentation-old","6","96342","0.0-6.0","SS1619739910027","","","40","500","1769","null","null","forced_long","","","","","","","","",""
"[{""page_index"":0,""viewing_time"":3763}]","3764","instructions","7","100107","0.0-7.0","SS1619739910027","instructions","","","","","","","","","","","","","","","",""
"[{""page_index"":0,""viewing_time"":6270},{""page_index"":1,""viewing_time"":13408},{""page_index"":2,""viewing_time"":5088},{""page_index"":3,""viewing_time"":1608},{""page_index"":4,""viewing_time"":1584}]","27958","instructions","8","128068","0.0-8.0","SS1619739910027","instructions","","","","","","","","","","","","","","","",""
"","null","html-keyboard-response","9","129342","0.0-9.0-0.0","SS1619739910027","","","null","","","","","","<p><img src= images/blank.png width =""600"" height = ""600"" style=""position:fixed;top:50%; left:50%; transform: translate(-50%, -50%); border:5px solid black"">","","","","","","","",""
"","1821","sequential-stimulus-presentation-old","10","131682","0.0-9.0-1.0","SS1619739910027","trial","","40","500","2321","images/stimuli/spore_stims/simple_12_A_b.gif","images/stimuli/spore_stims/simple_07_A_a.gif","forced_short","","0","simple_dissimilar","images/stimuli/spore_stims/simple_07_A_a.gif","","","","",""
"","null","html-keyboard-response","11","132872","0.0-9.0-0.1","SS1619739910027","","","null","","","","","","<p><img src= images/blank.png width =""600"" height = ""600"" style=""position:fixed;top:50%; left:50%; transform: translate(-50%, -50%); border:5px solid black"">","","","","","","","",""
"","26397","sequential-stimulus-presentation-old","12","159789","0.0-9.0-1.1","SS1619739910027","trial","","40","500","26897","images/stimuli/spore_stims/simple_12_A_b.gif","images/stimuli/spore_stims/simple_07_A_a.gif","forced_short","","0","simple_dissimilar","images/stimuli/spore_stims/simple_07_A_a.gif","","","","",""
"","null","html-keyboard-response","13","160629","0.0-9.0-0.2","SS1619739910027","","","null","","","","","","<p><img src= images/blank.png width =""600"" height = ""600"" style=""position:fixed;top:50%; left:50%; transform: translate(-50%, -50%); border:5px solid black"">","","","","","","","",""
"","9543","sequential-stimulus-presentation-old","14","170695","0.0-9.0-1.2","SS1619739910027","trial","","40","500","10043","images/stimuli/spore_stims/simple_12_A_b.gif","images/stimuli/spore_stims/simple_07_A_a.gif","forced_short","","0","simple_dissimilar","images/stimuli/spore_stims/simple_07_A_a.gif","","","","",""
"","null","html-keyboard-response","15","171681","0.0-9.0-0.3","SS1619739910027","","","null","","","","","","<p><img src= images/blank.png width =""600"" height = ""600"" style=""position:fixed;top:50%; left:50%; transform: translate(-50%, -50%); border:5px solid black"">","","","","","","","",""
"","26952","sequential-stimulus-presentation-old","16","199153","0.0-9.0-1.3","SS1619739910027","trial","","40","500","27452","images/stimuli/spore_stims/simple_12_A_b.gif","images/stimuli/spore_stims/simple_07_A_a.gif","forced_short","","0","simple_dissimilar","images/stimuli/spore_stims/simple_07_A_a.gif","","","","",""
"","7413","survey-multi-choice","17","206572","0.0-10.0","SS1619739910027","math_question","","","","","","","","","","","","{""Q0"":""3""}","[0]","3","",""
"","null","html-keyboard-response","18","207882","0.0-11.0-0.0","SS1619739910027","","","null","","","","","","<p><img src= images/blank.png width =""600"" height = ""600"" style=""position:fixed;top:50%; left:50%; transform: translate(-50%, -50%); border:5px solid black"">","","","","","","","",""
"","34035","sequential-stimulus-presentation-old","19","256927","0.0-11.0-1.0","SS1619739910027","trial","","40","500","34535","images/stimuli/spore_stims/simple_01_A_a.gif","images/stimuli/spore_stims/simple_13_A_b.gif","forced_long","","1","simple_dissimilar","images/stimuli/spore_stims/simple_13_A_b.gif","","","","",""
"","null","html-keyboard-response","20","258111","0.0-11.0-0.1","SS1619739910027","","","null","","","","","","<p><img src= images/blank.png width =""600"" height = ""600"" style=""position:fixed;top:50%; left:50%; transform: translate(-50%, -50%); border:5px solid black"">","","","","","","","",""
"","1599","sequential-stimulus-presentation-old","21","260230","0.0-11.0-1.1","SS1619739910027","trial","","40","500","2099","images/stimuli/spore_stims/simple_01_A_a.gif","images/stimuli/spore_stims/simple_13_A_b.gif","forced_long","","1","simple_dissimilar","images/stimuli/spore_stims/simple_13_A_b.gif","","","","",""
"","null","html-keyboard-response","22","261231","0.0-11.0-0.2","SS1619739910027","","","null","","","","","","<p><img src= images/blank.png width =""600"" height = ""600"" style=""position:fixed;top:50%; left:50%; transform: translate(-50%, -50%); border:5px solid black"">","","","","","","","",""
"","364","sequential-stimulus-presentation-old","23","262115","0.0-11.0-1.2","SS1619739910027","trial","","40","500","864","images/stimuli/spore_stims/simple_01_A_a.gif","images/stimuli/spore_stims/simple_13_A_b.gif","forced_long","","1","simple_dissimilar","images/stimuli/spore_stims/simple_13_A_b.gif","","","","",""
"","null","html-keyboard-response","24","262932","0.0-11.0-0.3","SS1619739910027","","","null","","","","","","<p><img src= images/blank.png width =""600"" height = ""600"" style=""position:fixed;top:50%; left:50%; transform: translate(-50%, -50%); border:5px solid black"">","","","","","","","",""
"","10443","sequential-stimulus-presentation-old","25","273884","0.0-11.0-1.3","SS1619739910027","trial","","40","500","10943","images/stimuli/spore_stims/simple_01_A_a.gif","images/stimuli/spore_stims/simple_13_A_b.gif","forced_long","","1","simple_dissimilar","images/stimuli/spore_stims/simple_01_A_a.gif","","","","",""
"","null","html-keyboard-response","26","274761","0.0-11.0-0.4","SS1619739910027","","","null","","","","","","<p><img src= images/blank.png width =""600"" height = ""600"" style=""position:fixed;top:50%; left:50%; transform: translate(-50%, -50%); border:5px solid black"">","","","","","","","",""
"","7074","sequential-stimulus-presentation-old","27","282355","0.0-11.0-1.4","SS1619739910027","trial","","40","500","7574","images/stimuli/spore_stims/simple_01_A_a.gif","images/stimuli/spore_stims/simple_13_A_b.gif","forced_long","","1","simple_dissimilar","images/stimuli/spore_stims/simple_01_A_a.gif","","","","",""
"","null","html-keyboard-response","28","283341","0.0-11.0-0.5","SS1619739910027","","","null","","","","","","<p><img src= images/blank.png width =""600"" height = ""600"" style=""position:fixed;top:50%; left:50%; transform: translate(-50%, -50%); border:5px solid black"">","","","","","","","",""
"","13943","sequential-stimulus-presentation-old","29","297797","0.0-11.0-1.5","SS1619739910027","trial","","40","500","14443","images/stimuli/spore_stims/simple_01_A_a.gif","images/stimuli/spore_stims/simple_13_A_b.gif","forced_long","","1","simple_dissimilar","images/stimuli/spore_stims/simple_13_A_b.gif","","","","",""
"","4619","survey-multi-choice","30","302420","0.0-12.0","SS1619739910027","math_question","","","","","","","","","","","","{""Q0"":""8""}","[0]","8","",""
"","null","html-keyboard-response","31","303631","0.0-13.0-0.0","SS1619739910027","","","null","","","","","","<p><img src= images/blank.png width =""600"" height = ""600"" style=""position:fixed;top:50%; left:50%; transform: translate(-50%, -50%); border:5px solid black"">","","","","","","","",""
"","1587","sequential-stimulus-presentation-old","32","305738","0.0-13.0-1.0","SS1619739910027","trial","","40","500","2087","images/stimuli/spore_stims/simple_14_A_a.gif","images/stimuli/spore_stims/simple_04_A_b.gif","forced_short","","2","simple_dissimilar","images/stimuli/spore_stims/simple_04_A_b.gif","","","","",""
"","null","html-keyboard-response","33","307052","0.0-13.0-0.1","SS1619739910027","","","null","","","","","","<p><img src= images/blank.png width =""600"" height = ""600"" style=""position:fixed;top:50%; left:50%; transform: translate(-50%, -50%); border:5px solid black"">","","","","","","","",""
"","11621","sequential-stimulus-presentation-old","34","319193","0.0-13.0-1.1","SS1619739910027","trial","","40","500","12121","images/stimuli/spore_stims/simple_14_A_a.gif","images/stimuli/spore_stims/simple_04_A_b.gif","forced_short","","2","simple_dissimilar","images/stimuli/spore_stims/simple_04_A_b.gif","","","","",""
"","null","html-keyboard-response","35","320341","0.0-13.0-0.2","SS1619739910027","","","null","","","","","","<p><img src= images/blank.png width =""600"" height = ""600"" style=""position:fixed;top:50%; left:50%; transform: translate(-50%, -50%); border:5px solid black"">","","","","","","","",""
"","16497","sequential-stimulus-presentation-old","36","337356","0.0-13.0-1.2","SS1619739910027","trial","","40","500","16997","images/stimuli/spore_stims/simple_14_A_a.gif","images/stimuli/spore_stims/simple_04_A_b.gif","forced_short","","2","simple_dissimilar","images/stimuli/spore_stims/simple_04_A_b.gif","","","","",""
"","null","html-keyboard-response","37","338281","0.0-13.0-0.3","SS1619739910027","","","null","","","","","","<p><img src= images/blank.png width =""600"" height = ""600"" style=""position:fixed;top:50%; left:50%; transform: translate(-50%, -50%); border:5px solid black"">","","","","","","","",""
"","14376","sequential-stimulus-presentation-old","38","353168","0.0-13.0-1.3","SS1619739910027","trial","","40","500","14876","images/stimuli/spore_stims/simple_14_A_a.gif","images/stimuli/spore_stims/simple_04_A_b.gif","forced_short","","2","simple_dissimilar","images/stimuli/spore_stims/simple_04_A_b.gif","","","","",""
"","null","html-keyboard-response","39","354101","0.0-13.0-0.4","SS1619739910027","","","null","","","","","","<p><img src= images/blank.png width =""600"" height = ""600"" style=""position:fixed;top:50%; left:50%; transform: translate(-50%, -50%); border:5px solid black"">","","","","","","","",""
"","1026","sequential-stimulus-presentation-old","40","355646","0.0-13.0-1.4","SS1619739910027","trial","","40","500","1526","images/stimuli/spore_stims/simple_14_A_a.gif","images/stimuli/spore_stims/simple_04_A_b.gif","forced_short","","2","simple_dissimilar","images/stimuli/spore_stims/simple_04_A_b.gif","","","","",""
"","null","html-keyboard-response","41","356801","0.0-13.0-0.5","SS1619739910027","","","null","","","","","","<p><img src= images/blank.png width =""600"" height = ""600"" style=""position:fixed;top:50%; left:50%; transform: translate(-50%, -50%); border:5px solid black"">","","","","","","","",""
"","5409","sequential-stimulus-presentation-old","42","362729","0.0-13.0-1.5","SS1619739910027","trial","","40","500","5909","images/stimuli/spore_stims/simple_14_A_a.gif","images/stimuli/spore_stims/simple_04_A_b.gif","forced_short","","2","simple_dissimilar","images/stimuli/spore_stims/simple_04_A_b.gif","","","","",""
"","5622","survey-multi-choice","43","368356","0.0-14.0","SS1619739910027","math_question","","","","","","","","","","","","{""Q0"":""16""}","[0]","16","",""
"","null","html-keyboard-response","44","369621","0.0-15.0-0.0","SS1619739910027","","","null","","","","","","<p><img src= images/blank.png width =""600"" height = ""600"" style=""position:fixed;top:50%; left:50%; transform: translate(-50%, -50%); border:5px solid black"">","","","","","","","",""
"","18485","sequential-stimulus-presentation-old","45","388627","0.0-15.0-1.0","SS1619739910027","trial","","40","500","18985","images/stimuli/spore_stims/complex_16_A_b.gif","images/stimuli/spore_stims/complex_03_A_a.gif","self_paced","","3","complex_dissimilar","images/stimuli/spore_stims/complex_03_A_a.gif","","","","",""
"","null","html-keyboard-response","46","389842","0.0-15.0-0.1","SS1619739910027","","","null","","","","","","<p><img src= images/blank.png width =""600"" height = ""600"" style=""position:fixed;top:50%; left:50%; transform: translate(-50%, -50%); border:5px solid black"">","","","","","","","",""
"","12928","sequential-stimulus-presentation-old","47","403289","0.0-15.0-1.1","SS1619739910027","trial","","40","500","13428","images/stimuli/spore_stims/complex_16_A_b.gif","images/stimuli/spore_stims/complex_03_A_a.gif","self_paced","","3","complex_dissimilar","images/stimuli/spore_stims/complex_16_A_b.gif","","","","",""
"","null","html-keyboard-response","48","404171","0.0-15.0-0.2","SS1619739910027","","","null","","","","","","<p><img src= images/blank.png width =""600"" height = ""600"" style=""position:fixed;top:50%; left:50%; transform: translate(-50%, -50%); border:5px solid black"">","","","","","","","",""
"","12546","sequential-stimulus-presentation-old","49","417238","0.0-15.0-1.2","SS1619739910027","trial","","40","500","13046","images/stimuli/spore_stims/complex_16_A_b.gif","images/stimuli/spore_stims/complex_03_A_a.gif","self_paced","","3","complex_dissimilar","images/stimuli/spore_stims/complex_03_A_a.gif","","","","",""
"","null","html-keyboard-response","50","418232","0.0-15.0-0.3","SS1619739910027","","","null","","","","","","<p><img src= images/blank.png width =""600"" height = ""600"" style=""position:fixed;top:50%; left:50%; transform: translate(-50%, -50%); border:5px solid black"">","","","","","","","",""
"","7317","sequential-stimulus-presentation-old","51","426069","0.0-15.0-1.3","SS1619739910027","trial","","40","500","7817","images/stimuli/spore_stims/complex_16_A_b.gif","images/stimuli/spore_stims/complex_03_A_a.gif","self_paced","","3","complex_dissimilar","images/stimuli/spore_stims/complex_16_A_b.gif","","","","",""
"","null","html-keyboard-response","52","427161","0.0-15.0-0.4","SS1619739910027","","","null","","","","","","<p><img src= images/blank.png width =""600"" height = ""600"" style=""position:fixed;top:50%; left:50%; transform: translate(-50%, -50%); border:5px solid black"">","","","","","","","",""
"","7417","sequential-stimulus-presentation-old","53","435097","0.0-15.0-1.4","SS1619739910027","trial","","40","500","7917","images/stimuli/spore_stims/complex_16_A_b.gif","images/stimuli/spore_stims/complex_03_A_a.gif","self_paced","","3","complex_dissimilar","images/stimuli/spore_stims/complex_03_A_a.gif","","","","",""
"","null","html-keyboard-response","54","436381","0.0-15.0-0.5","SS1619739910027","","","null","","","","","","<p><img src= images/blank.png width =""600"" height = ""600"" style=""position:fixed;top:50%; left:50%; transform: translate(-50%, -50%); border:5px solid black"">","","","","","","","",""
"","2283","sequential-stimulus-presentation-old","55","439175","0.0-15.0-1.5","SS1619739910027","trial","","40","500","2783","images/stimuli/spore_stims/complex_16_A_b.gif","images/stimuli/spore_stims/complex_03_A_a.gif","self_paced","","3","complex_dissimilar","images/stimuli/spore_stims/complex_03_A_a.gif","","","","",""
"","4846","survey-multi-choice","56","444027","0.0-16.0","SS1619739910027","math_question","","","","","","","","","","","","{""Q0"":""16""}","[0]","16","",""
"","null","html-keyboard-response","57","444941","0.0-17.0-0.0","SS1619739910027","","","null","","","","","","<p><img src= images/blank.png width =""600"" height = ""600"" style=""position:fixed;top:50%; left:50%; transform: translate(-50%, -50%); border:5px solid black"">","","","","","","","",""
"","1347","sequential-stimulus-presentation-old","58","461299","0.0-17.0-1.0","SS1619739910027","trial","","40","500","1847","images/stimuli/spore_stims/complex_14_A_b.gif","images/stimuli/spore_stims/complex_06_A_a.gif","forced_long","","4","complex_dissimilar","images/stimuli/spore_stims/complex_06_A_a.gif","","","","",""
"","null","html-keyboard-response","59","462167","0.0-17.0-0.1","SS1619739910027","","","null","","","","","","<p><img src= images/blank.png width =""600"" height = ""600"" style=""position:fixed;top:50%; left:50%; transform: translate(-50%, -50%); border:5px solid black"">","","","","","","","",""
"","13173","sequential-stimulus-presentation-old","60","475843","0.0-17.0-1.1","SS1619739910027","trial","","40","500","13673","images/stimuli/spore_stims/complex_14_A_b.gif","images/stimuli/spore_stims/complex_06_A_a.gif","forced_long","","4","complex_dissimilar","images/stimuli/spore_stims/complex_06_A_a.gif","","","","",""
"","null","html-keyboard-response","61","476830","0.0-17.0-0.2","SS1619739910027","","","null","","","","","","<p><img src= images/blank.png width =""600"" height = ""600"" style=""position:fixed;top:50%; left:50%; transform: translate(-50%, -50%); border:5px solid black"">","","","","","","","",""
"","14295","sequential-stimulus-presentation-old","62","491646","0.0-17.0-1.2","SS1619739910027","trial","","40","500","14795","images/stimuli/spore_stims/complex_14_A_b.gif","images/stimuli/spore_stims/complex_06_A_a.gif","forced_long","","4","complex_dissimilar","images/stimuli/spore_stims/complex_14_A_b.gif","","","","",""
"","null","html-keyboard-response","63","492731","0.0-17.0-0.3","SS1619739910027","","","null","","","","","","<p><img src= images/blank.png width =""600"" height = ""600"" style=""position:fixed;top:50%; left:50%; transform: translate(-50%, -50%); border:5px solid black"">","","","","","","","",""
"","10954","sequential-stimulus-presentation-old","64","504206","0.0-17.0-1.3","SS1619739910027","trial","","40","500","11454","images/stimuli/spore_stims/complex_14_A_b.gif","images/stimuli/spore_stims/complex_06_A_a.gif","forced_long","","4","complex_dissimilar","images/stimuli/spore_stims/complex_06_A_a.gif","","","","",""
"","null","html-keyboard-response","65","505311","0.0-17.0-0.4","SS1619739910027","","","null","","","","","","<p><img src= images/blank.png width =""600"" height = ""600"" style=""position:fixed;top:50%; left:50%; transform: translate(-50%, -50%); border:5px solid black"">","","","","","","","",""
"","9745","sequential-stimulus-presentation-old","66","515576","0.0-17.0-1.4","SS1619739910027","trial","","40","500","10245","images/stimuli/spore_stims/complex_14_A_b.gif","images/stimuli/spore_stims/complex_06_A_a.gif","forced_long","","4","complex_dissimilar","images/stimuli/spore_stims/complex_06_A_a.gif","","","","",""
"","null","html-keyboard-response","67","516692","0.0-17.0-0.5","SS1619739910027","","","null","","","","","","<p><img src= images/blank.png width =""600"" height = ""600"" style=""position:fixed;top:50%; left:50%; transform: translate(-50%, -50%); border:5px solid black"">","","","","","","","",""
"","2246","sequential-stimulus-presentation-old","68","519457","0.0-17.0-1.5","SS1619739910027","trial","","40","500","2746","images/stimuli/spore_stims/complex_14_A_b.gif","images/stimuli/spore_stims/complex_06_A_a.gif","forced_long","","4","complex_dissimilar","images/stimuli/spore_stims/complex_06_A_a.gif","","","","",""
"","4327","survey-multi-choice","69","523788","0.0-18.0","SS1619739910027","math_question","","","","","","","","","","","","{""Q0"":""6""}","[0]","6","",""
"","null","html-keyboard-response","70","525071","0.0-19.0-0.0","SS1619739910027","","","null","","","","","","<p><img src= images/blank.png width =""600"" height = ""600"" style=""position:fixed;top:50%; left:50%; transform: translate(-50%, -50%); border:5px solid black"">","","","","","","","",""
"","2465","sequential-stimulus-presentation-old","71","528056","0.0-19.0-1.0","SS1619739910027","trial","","40","500","2965","images/stimuli/spore_stims/simple_15_A_b.gif","images/stimuli/spore_stims/simple_11_A_a.gif","self_paced","","5","simple_dissimilar","images/stimuli/spore_stims/simple_11_A_a.gif","","","","",""
"","null","html-keyboard-response","72","529011","0.0-19.0-0.1","SS1619739910027","","","null","","","","","","<p><img src= images/blank.png width =""600"" height = ""600"" style=""position:fixed;top:50%; left:50%; transform: translate(-50%, -50%); border:5px solid black"">","","","","","","","",""
"","1619","sequential-stimulus-presentation-old","73","531150","0.0-19.0-1.1","SS1619739910027","trial","","40","500","2119","images/stimuli/spore_stims/simple_15_A_b.gif","images/stimuli/spore_stims/simple_11_A_a.gif","self_paced","","5","simple_dissimilar","images/stimuli/spore_stims/simple_11_A_a.gif","","","","",""
"","null","html-keyboard-response","74","532251","0.0-19.0-0.2","SS1619739910027","","","null","","","","","","<p><img src= images/blank.png width =""600"" height = ""600"" style=""position:fixed;top:50%; left:50%; transform: translate(-50%, -50%); border:5px solid black"">","","","","","","","",""
"","3341","sequential-stimulus-presentation-old","75","536109","0.0-19.0-1.2","SS1619739910027","trial","","40","500","3841","images/stimuli/spore_stims/simple_15_A_b.gif","images/stimuli/spore_stims/simple_11_A_a.gif","self_paced","","5","simple_dissimilar","images/stimuli/spore_stims/simple_11_A_a.gif","","","","",""
"","null","html-keyboard-response","76","537391","0.0-19.0-0.3","SS1619739910027","","","null","","","","","","<p><img src= images/blank.png width =""600"" height = ""600"" style=""position:fixed;top:50%; left:50%; transform: translate(-50%, -50%); border:5px solid black"">","","","","","","","",""
"","3937","sequential-stimulus-presentation-old","77","541848","0.0-19.0-1.3","SS1619739910027","trial","","40","500","4437","images/stimuli/spore_stims/simple_15_A_b.gif","images/stimuli/spore_stims/simple_11_A_a.gif","self_paced","","5","simple_dissimilar","images/stimuli/spore_stims/simple_11_A_a.gif","","","","",""
"","null","html-keyboard-response","78","542741","0.0-19.0-0.4","SS1619739910027","","","null","","","","","","<p><img src= images/blank.png width =""600"" height = ""600"" style=""position:fixed;top:50%; left:50%; transform: translate(-50%, -50%); border:5px solid black"">","","","","","","","",""
"","8295","sequential-stimulus-presentation-old","79","551545","0.0-19.0-1.4","SS1619739910027","trial","","40","500","8795","images/stimuli/spore_stims/simple_15_A_b.gif","images/stimuli/spore_stims/simple_11_A_a.gif","self_paced","","5","simple_dissimilar","images/stimuli/spore_stims/simple_11_A_a.gif","","","","",""
"","null","html-keyboard-response","80","552701","0.0-19.0-0.5","SS1619739910027","","","null","","","","","","<p><img src= images/blank.png width =""600"" height = ""600"" style=""position:fixed;top:50%; left:50%; transform: translate(-50%, -50%); border:5px solid black"">","","","","","","","",""
"","5389","sequential-stimulus-presentation-old","81","558611","0.0-19.0-1.5","SS1619739910027","trial","","40","500","5889","images/stimuli/spore_stims/simple_15_A_b.gif","images/stimuli/spore_stims/simple_11_A_a.gif","self_paced","","5","simple_dissimilar","images/stimuli/spore_stims/simple_11_A_a.gif","","","","",""
"","3726","survey-multi-choice","82","562339","0.0-20.0","SS1619739910027","math_question","","","","","","","","","","","","{""Q0"":""9""}","[0]","9","",""
"","null","html-keyboard-response","83","563521","0.0-21.0-0.0","SS1619739910027","","","null","","","","","","<p><img src= images/blank.png width =""600"" height = ""600"" style=""position:fixed;top:50%; left:50%; transform: translate(-50%, -50%); border:5px solid black"">","","","","","","","",""
"","952","sequential-stimulus-presentation-old","84","579482","0.0-21.0-1.0","SS1619739910027","trial","","40","500","1452","images/stimuli/spore_stims/complex_16_A_a.gif","images/stimuli/spore_stims/complex_06_A_b.gif","forced_long","","6","complex_dissimilar","images/stimuli/spore_stims/complex_06_A_b.gif","","","","",""
"","null","html-keyboard-response","85","580531","0.0-21.0-0.1","SS1619739910027","","","null","","","","","","<p><img src= images/blank.png width =""600"" height = ""600"" style=""position:fixed;top:50%; left:50%; transform: translate(-50%, -50%); border:5px solid black"">","","","","","","","",""
"","13471","sequential-stimulus-presentation-old","86","594522","0.0-21.0-1.1","SS1619739910027","trial","","40","500","13971","images/stimuli/spore_stims/complex_16_A_a.gif","images/stimuli/spore_stims/complex_06_A_b.gif","forced_long","","6","complex_dissimilar","images/stimuli/spore_stims/complex_06_A_b.gif","","","","",""
"","null","html-keyboard-response","87","595371","0.0-21.0-0.2","SS1619739910027","","","null","","","","","","<p><img src= images/blank.png width =""600"" height = ""600"" style=""position:fixed;top:50%; left:50%; transform: translate(-50%, -50%); border:5px solid black"">","","","","","","","",""
"","10290","sequential-stimulus-presentation-old","88","606180","0.0-21.0-1.2","SS1619739910027","trial","","40","500","10790","images/stimuli/spore_stims/complex_16_A_a.gif","images/stimuli/spore_stims/complex_06_A_b.gif","forced_long","","6","complex_dissimilar","images/stimuli/spore_stims/complex_16_A_a.gif","","","","",""
"","null","html-keyboard-response","89","607480","0.0-21.0-0.3","SS1619739910027","","","null","","","","","","<p><img src= images/blank.png width =""600"" height = ""600"" style=""position:fixed;top:50%; left:50%; transform: translate(-50%, -50%); border:5px solid black"">","","","","","","","",""
"","7187","sequential-stimulus-presentation-old","90","615187","0.0-21.0-1.3","SS1619739910027","trial","","40","500","7687","images/stimuli/spore_stims/complex_16_A_a.gif","images/stimuli/spore_stims/complex_06_A_b.gif","forced_long","","6","complex_dissimilar","images/stimuli/spore_stims/complex_06_A_b.gif","","","","",""
"","null","html-keyboard-response","91","616361","0.0-21.0-0.4","SS1619739910027","","","null","","","","","","<p><img src= images/blank.png width =""600"" height = ""600"" style=""position:fixed;top:50%; left:50%; transform: translate(-50%, -50%); border:5px solid black"">","","","","","","","",""
"","9257","sequential-stimulus-presentation-old","92","626139","0.0-21.0-1.4","SS1619739910027","trial","","40","500","9757","images/stimuli/spore_stims/complex_16_A_a.gif","images/stimuli/spore_stims/complex_06_A_b.gif","forced_long","","6","complex_dissimilar","images/stimuli/spore_stims/complex_06_A_b.gif","","","","",""
"","null","html-keyboard-response","93","627351","0.0-21.0-0.5","SS1619739910027","","","null","","","","","","<p><img src= images/blank.png width =""600"" height = ""600"" style=""position:fixed;top:50%; left:50%; transform: translate(-50%, -50%); border:5px solid black"">","","","","","","","",""
"","6560","sequential-stimulus-presentation-old","94","634432","0.0-21.0-1.5","SS1619739910027","trial","","40","500","7060","images/stimuli/spore_stims/complex_16_A_a.gif","images/stimuli/spore_stims/complex_06_A_b.gif","forced_long","","6","complex_dissimilar","images/stimuli/spore_stims/complex_06_A_b.gif","","","","",""
"","5501","survey-multi-choice","95","639939","0.0-22.0","SS1619739910027","math_question","","","","","","","","","","","","{""Q0"":""14""}","[0]","14","",""
"","null","html-keyboard-response","96","640780","0.0-23.0-0.0","SS1619739910027","","","null","","","","","","<p><img src= images/blank.png width =""600"" height = ""600"" style=""position:fixed;top:50%; left:50%; transform: translate(-50%, -50%); border:5px solid black"">","","","","","","","",""
"","2858","sequential-stimulus-presentation-old","97","644158","0.0-23.0-1.0","SS1619739910027","trial","","40","500","3358","images/stimuli/spore_stims/simple_02_A_b.gif","images/stimuli/spore_stims/simple_13_A_a.gif","self_paced","","7","simple_dissimilar","images/stimuli/spore_stims/simple_13_A_a.gif","","","","",""
"","null","html-keyboard-response","98","645211","0.0-23.0-0.1","SS1619739910027","","","null","","","","","","<p><img src= images/blank.png width =""600"" height = ""600"" style=""position:fixed;top:50%; left:50%; transform: translate(-50%, -50%); border:5px solid black"">","","","","","","","",""
"","2077","sequential-stimulus-presentation-old","99","647808","0.0-23.0-1.1","SS1619739910027","trial","","40","500","2577","images/stimuli/spore_stims/simple_02_A_b.gif","images/stimuli/spore_stims/simple_13_A_a.gif","self_paced","","7","simple_dissimilar","images/stimuli/spore_stims/simple_13_A_a.gif","","","","",""
"","null","html-keyboard-response","100","648981","0.0-23.0-0.2","SS1619739910027","","","null","","","","","","<p><img src= images/blank.png width =""600"" height = ""600"" style=""position:fixed;top:50%; left:50%; transform: translate(-50%, -50%); border:5px solid black"">","","","","","","","",""
"","2790","sequential-stimulus-presentation-old","101","652292","0.0-23.0-1.2","SS1619739910027","trial","","40","500","3290","images/stimuli/spore_stims/simple_02_A_b.gif","images/stimuli/spore_stims/simple_13_A_a.gif","self_paced","","7","simple_dissimilar","images/stimuli/spore_stims/simple_13_A_a.gif","","","","",""
"","null","html-keyboard-response","102","653210","0.0-23.0-0.3","SS1619739910027","","","null","","","","","","<p><img src= images/blank.png width =""600"" height = ""600"" style=""position:fixed;top:50%; left:50%; transform: translate(-50%, -50%); border:5px solid black"">","","","","","","","",""
"","2036","sequential-stimulus-presentation-old","103","655767","0.0-23.0-1.3","SS1619739910027","trial","","40","500","2536","images/stimuli/spore_stims/simple_02_A_b.gif","images/stimuli/spore_stims/simple_13_A_a.gif","self_paced","","7","simple_dissimilar","images/stimuli/spore_stims/simple_13_A_a.gif","","","","",""
"","null","html-keyboard-response","104","657036","0.0-23.0-0.4","SS1619739910027","","","null","","","","","","<p><img src= images/blank.png width =""600"" height = ""600"" style=""position:fixed;top:50%; left:50%; transform: translate(-50%, -50%); border:5px solid black"">","","","","","","","",""
"","2487","sequential-stimulus-presentation-old","105","660047","0.0-23.0-1.4","SS1619739910027","trial","","40","500","2987","images/stimuli/spore_stims/simple_02_A_b.gif","images/stimuli/spore_stims/simple_13_A_a.gif","self_paced","","7","simple_dissimilar","images/stimuli/spore_stims/simple_02_A_b.gif","","","","",""
"","null","html-keyboard-response","106","660891","0.0-23.0-0.5","SS1619739910027","","","null","","","","","","<p><img src= images/blank.png width =""600"" height = ""600"" style=""position:fixed;top:50%; left:50%; transform: translate(-50%, -50%); border:5px solid black"">","","","","","","","",""
"","622","sequential-stimulus-presentation-old","107","662033","0.0-23.0-1.5","SS1619739910027","trial","","40","500","1122","images/stimuli/spore_stims/simple_02_A_b.gif","images/stimuli/spore_stims/simple_13_A_a.gif","self_paced","","7","simple_dissimilar","images/stimuli/spore_stims/simple_13_A_a.gif","","","","",""
"","4609","survey-multi-choice","108","666651","0.0-24.0","SS1619739910027","math_question","","","","","","","","","","","","{""Q0"":""8""}","[0]","8","",""
"","null","html-keyboard-response","109","667531","0.0-25.0-0.0","SS1619739910027","","","null","","","","","","<p><img src= images/blank.png width =""600"" height = ""600"" style=""position:fixed;top:50%; left:50%; transform: translate(-50%, -50%); border:5px solid black"">","","","","","","","",""
"","2656","sequential-stimulus-presentation-old","110","670707","0.0-25.0-1.0","SS1619739910027","trial","","40","500","3156","images/stimuli/spore_stims/complex_05_A_a.gif","images/stimuli/spore_stims/complex_17_A_b.gif","forced_short","","8","complex_dissimilar","images/stimuli/spore_stims/complex_17_A_b.gif","","","","",""
"","null","html-keyboard-response","111","671977","0.0-25.0-0.1","SS1619739910027","","","null","","","","","","<p><img src= images/blank.png width =""600"" height = ""600"" style=""position:fixed;top:50%; left:50%; transform: translate(-50%, -50%); border:5px solid black"">","","","","","","","",""
"","10938","sequential-stimulus-presentation-old","112","683438","0.0-25.0-1.1","SS1619739910027","trial","","40","500","11438","images/stimuli/spore_stims/complex_05_A_a.gif","images/stimuli/spore_stims/complex_17_A_b.gif","forced_short","","8","complex_dissimilar","images/stimuli/spore_stims/complex_17_A_b.gif","","","","",""
"","null","html-keyboard-response","113","684340","0.0-25.0-0.2","SS1619739910027","","","null","","","","","","<p><img src= images/blank.png width =""600"" height = ""600"" style=""position:fixed;top:50%; left:50%; transform: translate(-50%, -50%); border:5px solid black"">","","","","","","","",""
"","8738","sequential-stimulus-presentation-old","114","693599","0.0-25.0-1.2","SS1619739910027","trial","","40","500","9238","images/stimuli/spore_stims/complex_05_A_a.gif","images/stimuli/spore_stims/complex_17_A_b.gif","forced_short","","8","complex_dissimilar","images/stimuli/spore_stims/complex_05_A_a.gif","","","","",""
"","null","html-keyboard-response","115","694671","0.0-25.0-0.3","SS1619739910027","","","null","","","","","","<p><img src= images/blank.png width =""600"" height = ""600"" style=""position:fixed;top:50%; left:50%; transform: translate(-50%, -50%); border:5px solid black"">","","","","","","","",""
"","3383","sequential-stimulus-presentation-old","116","698574","0.0-25.0-1.3","SS1619739910027","trial","","40","500","3883","images/stimuli/spore_stims/complex_05_A_a.gif","images/stimuli/spore_stims/complex_17_A_b.gif","forced_short","","8","complex_dissimilar","images/stimuli/spore_stims/complex_17_A_b.gif","","","","",""
"","null","html-keyboard-response","117","699751","0.0-25.0-0.4","SS1619739910027","","","null","","","","","","<p><img src= images/blank.png width =""600"" height = ""600"" style=""position:fixed;top:50%; left:50%; transform: translate(-50%, -50%); border:5px solid black"">","","","","","","","",""
"","5706","sequential-stimulus-presentation-old","118","705975","0.0-25.0-1.4","SS1619739910027","trial","","40","500","6206","images/stimuli/spore_stims/complex_05_A_a.gif","images/stimuli/spore_stims/complex_17_A_b.gif","forced_short","","8","complex_dissimilar","images/stimuli/spore_stims/complex_05_A_a.gif","","","","",""
"","6430","survey-multi-choice","119","712411","0.0-26.0","SS1619739910027","math_question","","","","","","","","","","","","{""Q0"":""7""}","[0]","7","",""
"","null","html-keyboard-response","120","713480","0.0-27.0-0.0","SS1619739910027","","","null","","","","","","<p><img src= images/blank.png width =""600"" height = ""600"" style=""position:fixed;top:50%; left:50%; transform: translate(-50%, -50%); border:5px solid black"">","","","","","","","",""
"","19412","sequential-stimulus-presentation-old","121","733412","0.0-27.0-1.0","SS1619739910027","trial","","40","500","19912","images/stimuli/spore_stims/complex_10_A_b.gif","images/stimuli/spore_stims/complex_17_A_a.gif","self_paced","","9","complex_dissimilar","images/stimuli/spore_stims/complex_17_A_a.gif","","","","",""
"","null","html-keyboard-response","122","734601","0.0-27.0-0.1","SS1619739910027","","","null","","","","","","<p><img src= images/blank.png width =""600"" height = ""600"" style=""position:fixed;top:50%; left:50%; transform: translate(-50%, -50%); border:5px solid black"">","","","","","","","",""
"","8515","sequential-stimulus-presentation-old","123","743636","0.0-27.0-1.1","SS1619739910027","trial","","40","500","9015","images/stimuli/spore_stims/complex_10_A_b.gif","images/stimuli/spore_stims/complex_17_A_a.gif","self_paced","","9","complex_dissimilar","images/stimuli/spore_stims/complex_17_A_a.gif","","","","",""
"","null","html-keyboard-response","124","744531","0.0-27.0-0.2","SS1619739910027","","","null","","","","","","<p><img src= images/blank.png width =""600"" height = ""600"" style=""position:fixed;top:50%; left:50%; transform: translate(-50%, -50%); border:5px solid black"">","","","","","","","",""
"","4493","sequential-stimulus-presentation-old","125","749543","0.0-27.0-1.2","SS1619739910027","trial","","40","500","4993","images/stimuli/spore_stims/complex_10_A_b.gif","images/stimuli/spore_stims/complex_17_A_a.gif","self_paced","","9","complex_dissimilar","images/stimuli/spore_stims/complex_17_A_a.gif","","","","",""
"","null","html-keyboard-response","126","750411","0.0-27.0-0.3","SS1619739910027","","","null","","","","","","<p><img src= images/blank.png width =""600"" height = ""600"" style=""position:fixed;top:50%; left:50%; transform: translate(-50%, -50%); border:5px solid black"">","","","","","","","",""
"","6403","sequential-stimulus-presentation-old","127","757334","0.0-27.0-1.3","SS1619739910027","trial","","40","500","6903","images/stimuli/spore_stims/complex_10_A_b.gif","images/stimuli/spore_stims/complex_17_A_a.gif","self_paced","","9","complex_dissimilar","images/stimuli/spore_stims/complex_10_A_b.gif","","","","",""
"","null","html-keyboard-response","128","758541","0.0-27.0-0.4","SS1619739910027","","","null","","","","","","<p><img src= images/blank.png width =""600"" height = ""600"" style=""position:fixed;top:50%; left:50%; transform: translate(-50%, -50%); border:5px solid black"">","","","","","","","",""
"","9608","sequential-stimulus-presentation-old","129","768668","0.0-27.0-1.4","SS1619739910027","trial","","40","500","10108","images/stimuli/spore_stims/complex_10_A_b.gif","images/stimuli/spore_stims/complex_17_A_a.gif","self_paced","","9","complex_dissimilar","images/stimuli/spore_stims/complex_17_A_a.gif","","","","",""
"","null","html-keyboard-response","130","769771","0.0-27.0-0.5","SS1619739910027","","","null","","","","","","<p><img src= images/blank.png width =""600"" height = ""600"" style=""position:fixed;top:50%; left:50%; transform: translate(-50%, -50%); border:5px solid black"">","","","","","","","",""
"","1927","sequential-stimulus-presentation-old","131","772218","0.0-27.0-1.5","SS1619739910027","trial","","40","500","2427","images/stimuli/spore_stims/complex_10_A_b.gif","images/stimuli/spore_stims/complex_17_A_a.gif","self_paced","","9","complex_dissimilar","images/stimuli/spore_stims/complex_17_A_a.gif","","","","",""
"","3157","survey-multi-choice","132","775379","0.0-28.0","SS1619739910027","math_question","","","","","","","","","","","","{""Q0"":""4""}","[0]","4","",""
"","null","html-keyboard-response","133","776211","0.0-29.0-0.0","SS1619739910027","","","null","","","","","","<p><img src= images/blank.png width =""600"" height = ""600"" style=""position:fixed;top:50%; left:50%; transform: translate(-50%, -50%); border:5px solid black"">","","","","","","","",""
"","1991","sequential-stimulus-presentation-old","134","793212","0.0-29.0-1.0","SS1619739910027","trial","","40","500","2491","images/stimuli/spore_stims/simple_11_A_b.gif","images/stimuli/spore_stims/simple_17_A_a.gif","forced_long","","10","simple_dissimilar","images/stimuli/spore_stims/simple_17_A_a.gif","","","","",""
"","null","html-keyboard-response","135","794181","0.0-29.0-0.1","SS1619739910027","","","null","","","","","","<p><img src= images/blank.png width =""600"" height = ""600"" style=""position:fixed;top:50%; left:50%; transform: translate(-50%, -50%); border:5px solid black"">","","","","","","","",""
"","1367","sequential-stimulus-presentation-old","136","796067","0.0-29.0-1.1","SS1619739910027","trial","","40","500","1867","images/stimuli/spore_stims/simple_11_A_b.gif","images/stimuli/spore_stims/simple_17_A_a.gif","forced_long","","10","simple_dissimilar","images/stimuli/spore_stims/simple_11_A_b.gif","","","","",""
"","null","html-keyboard-response","137","797160","0.0-29.0-0.2","SS1619739910027","","","null","","","","","","<p><img src= images/blank.png width =""600"" height = ""600"" style=""position:fixed;top:50%; left:50%; transform: translate(-50%, -50%); border:5px solid black"">","","","","","","","",""
"","6452","sequential-stimulus-presentation-old","138","804131","0.0-29.0-1.2","SS1619739910027","trial","","40","500","6952","images/stimuli/spore_stims/simple_11_A_b.gif","images/stimuli/spore_stims/simple_17_A_a.gif","forced_long","","10","simple_dissimilar","images/stimuli/spore_stims/simple_17_A_a.gif","","","","",""
"","null","html-keyboard-response","139","805040","0.0-29.0-0.3","SS1619739910027","","","null","","","","","","<p><img src= images/blank.png width =""600"" height = ""600"" style=""position:fixed;top:50%; left:50%; transform: translate(-50%, -50%); border:5px solid black"">","","","","","","","",""
"","5767","sequential-stimulus-presentation-old","140","811327","0.0-29.0-1.3","SS1619739910027","trial","","40","500","6267","images/stimuli/spore_stims/simple_11_A_b.gif","images/stimuli/spore_stims/simple_17_A_a.gif","forced_long","","10","simple_dissimilar","images/stimuli/spore_stims/simple_11_A_b.gif","","","","",""
"","null","html-keyboard-response","141","812641","0.0-29.0-0.4","SS1619739910027","","","null","","","","","","<p><img src= images/blank.png width =""600"" height = ""600"" style=""position:fixed;top:50%; left:50%; transform: translate(-50%, -50%); border:5px solid black"">","","","","","","","",""
"","7494","sequential-stimulus-presentation-old","142","820655","0.0-29.0-1.4","SS1619739910027","trial","","40","500","7994","images/stimuli/spore_stims/simple_11_A_b.gif","images/stimuli/spore_stims/simple_17_A_a.gif","forced_long","","10","simple_dissimilar","images/stimuli/spore_stims/simple_17_A_a.gif","","","","",""
"","null","html-keyboard-response","143","821551","0.0-29.0-0.5","SS1619739910027","","","null","","","","","","<p><img src= images/blank.png width =""600"" height = ""600"" style=""position:fixed;top:50%; left:50%; transform: translate(-50%, -50%); border:5px solid black"">","","","","","","","",""
"","1361","sequential-stimulus-presentation-old","144","823423","0.0-29.0-1.5","SS1619739910027","trial","","40","500","1861","images/stimuli/spore_stims/simple_11_A_b.gif","images/stimuli/spore_stims/simple_17_A_a.gif","forced_long","","10","simple_dissimilar","images/stimuli/spore_stims/simple_17_A_a.gif","","","","",""
"","3867","survey-multi-choice","145","827292","0.0-30.0","SS1619739910027","math_question","","","","","","","","","","","","{""Q0"":""8""}","[0]","8","",""
"","null","html-keyboard-response","146","828240","0.0-31.0-0.0","SS1619739910027","","","null","","","","","","<p><img src= images/blank.png width =""600"" height = ""600"" style=""position:fixed;top:50%; left:50%; transform: translate(-50%, -50%); border:5px solid black"">","","","","","","","",""
"","1438","sequential-stimulus-presentation-old","147","830199","0.0-31.0-1.0","SS1619739910027","trial","","40","500","1938","images/stimuli/spore_stims/complex_07_A_b.gif","images/stimuli/spore_stims/complex_19_A_a.gif","forced_short","","11","complex_dissimilar","images/stimuli/spore_stims/complex_19_A_a.gif","","","","",""
"","null","html-keyboard-response","148","831501","0.0-31.0-0.1","SS1619739910027","","","null","","","","","","<p><img src= images/blank.png width =""600"" height = ""600"" style=""position:fixed;top:50%; left:50%; transform: translate(-50%, -50%); border:5px solid black"">","","","","","","","",""
"","9652","sequential-stimulus-presentation-old","149","841669","0.0-31.0-1.1","SS1619739910027","trial","","40","500","10152","images/stimuli/spore_stims/complex_07_A_b.gif","images/stimuli/spore_stims/complex_19_A_a.gif","forced_short","","11","complex_dissimilar","images/stimuli/spore_stims/complex_19_A_a.gif","","","","",""
"","null","html-keyboard-response","150","842971","0.0-31.0-0.2","SS1619739910027","","","null","","","","","","<p><img src= images/blank.png width =""600"" height = ""600"" style=""position:fixed;top:50%; left:50%; transform: translate(-50%, -50%); border:5px solid black"">","","","","","","","",""
"","8301","sequential-stimulus-presentation-old","151","851792","0.0-31.0-1.2","SS1619739910027","trial","","40","500","8801","images/stimuli/spore_stims/complex_07_A_b.gif","images/stimuli/spore_stims/complex_19_A_a.gif","forced_short","","11","complex_dissimilar","images/stimuli/spore_stims/complex_19_A_a.gif","","","","",""
"","null","html-keyboard-response","152","853031","0.0-31.0-0.3","SS1619739910027","","","null","","","","","","<p><img src= images/blank.png width =""600"" height = ""600"" style=""position:fixed;top:50%; left:50%; transform: translate(-50%, -50%); border:5px solid black"">","","","","","","","",""
"","6191","sequential-stimulus-presentation-old","153","859743","0.0-31.0-1.3","SS1619739910027","trial","","40","500","6691","images/stimuli/spore_stims/complex_07_A_b.gif","images/stimuli/spore_stims/complex_19_A_a.gif","forced_short","","11","complex_dissimilar","images/stimuli/spore_stims/complex_19_A_a.gif","","","","",""
"","null","html-keyboard-response","154","860930","0.0-31.0-0.4","SS1619739910027","","","null","","","","","","<p><img src= images/blank.png width =""600"" height = ""600"" style=""position:fixed;top:50%; left:50%; transform: translate(-50%, -50%); border:5px solid black"">","","","","","","","",""
"","3178","sequential-stimulus-presentation-old","155","864617","0.0-31.0-1.4","SS1619739910027","trial","","40","500","3678","images/stimuli/spore_stims/complex_07_A_b.gif","images/stimuli/spore_stims/complex_19_A_a.gif","forced_short","","11","complex_dissimilar","images/stimuli/spore_stims/complex_19_A_a.gif","","","","",""
"","null","html-keyboard-response","156","865651","0.0-31.0-0.5","SS1619739910027","","","null","","","","","","<p><img src= images/blank.png width =""600"" height = ""600"" style=""position:fixed;top:50%; left:50%; transform: translate(-50%, -50%); border:5px solid black"">","","","","","","","",""
"","6139","sequential-stimulus-presentation-old","157","872308","0.0-31.0-1.5","SS1619739910027","trial","","40","500","6639","images/stimuli/spore_stims/complex_07_A_b.gif","images/stimuli/spore_stims/complex_19_A_a.gif","forced_short","","11","complex_dissimilar","images/stimuli/spore_stims/complex_19_A_a.gif","","","","",""
"[{""page_index"":0,""viewing_time"":10474}]","10475","instructions","158","882787","0.0-32.0","SS1619739910027","instructions","","","","","","","","","","","","","","","",""
"","6378","survey-likert","159","889172","0.0-33.0","SS1619739910027","similarity_question","","","","","","","","","","","","{""Q0"":4}","[0]","","images/stimuli/spore_stims/simple_02_A_b.gif","images/stimuli/spore_stims/simple_13_A_a.gif"
"","3561","survey-likert","160","892739","0.0-34.0","SS1619739910027","similarity_question","","","","","","","","","","","","{""Q0"":5}","[0]","","images/stimuli/spore_stims/simple_13_A_b.gif","images/stimuli/spore_stims/simple_01_A_a.gif"
"","3474","survey-likert","161","896220","0.0-35.0","SS1619739910027","similarity_question","","","","","","","","","","","","{""Q0"":4}","[0]","","images/stimuli/spore_stims/simple_11_A_b.gif","images/stimuli/spore_stims/simple_17_A_a.gif"
"","5384","survey-likert","162","901612","0.0-36.0","SS1619739910027","similarity_question","","","","","","","","","","","","{""Q0"":2}","[0]","","images/stimuli/spore_stims/complex_14_A_b.gif","images/stimuli/spore_stims/complex_06_A_a.gif"
"","6218","survey-likert","163","907837","0.0-37.0","SS1619739910027","similarity_question","","","","","","","","","","","","{""Q0"":0}","[0]","","images/stimuli/spore_stims/complex_16_A_a.gif","images/stimuli/spore_stims/complex_06_A_b.gif"
"","6939","survey-likert","164","914780","0.0-38.0","SS1619739910027","similarity_question","","","","","","","","","","","","{""Q0"":3}","[0]","","images/stimuli/spore_stims/simple_04_A_b.gif","images/stimuli/spore_stims/simple_14_A_a.gif"
"","4473","survey-likert","165","919259","0.0-39.0","SS1619739910027","similarity_question","","","","","","","","","","","","{""Q0"":0}","[0]","","images/stimuli/spore_stims/complex_19_A_a.gif","images/stimuli/spore_stims/complex_07_A_b.gif"
"","5472","survey-likert","166","924739","0.0-40.0","SS1619739910027","similarity_question","","","","","","","","","","","","{""Q0"":2}","[0]","","images/stimuli/spore_stims/complex_17_A_a.gif","images/stimuli/spore_stims/complex_10_A_b.gif"
"","4718","survey-likert","167","929461","0.0-41.0","SS1619739910027","similarity_question","","","","","","","","","","","","{""Q0"":5}","[0]","","images/stimuli/spore_stims/simple_11_A_a.gif","images/stimuli/spore_stims/simple_15_A_b.gif"
"","5865","survey-likert","168","935331","0.0-42.0","SS1619739910027","similarity_question","","","","","","","","","","","","{""Q0"":3}","[0]","","images/stimuli/spore_stims/complex_16_A_b.gif","images/stimuli/spore_stims/complex_03_A_a.gif"
"","4065","survey-likert","169","939403","0.0-43.0","SS1619739910027","similarity_question","","","","","","","","","","","","{""Q0"":3}","[0]","","images/stimuli/spore_stims/simple_12_A_b.gif","images/stimuli/spore_stims/simple_07_A_a.gif"
"","5383","survey-likert","170","944795","0.0-44.0","SS1619739910027","similarity_question","","","","","","","","","","","","{""Q0"":1}","[0]","","images/stimuli/spore_stims/complex_17_A_b.gif","images/stimuli/spore_stims/complex_05_A_a.gif"
"[{""page_index"":0,""viewing_time"":5105}]","5105","instructions","171","949906","0.0-45.0","SS1619739910027","instructions","","","","","","","","","","","","","","","",""
"","2970","survey-likert","172","952883","0.0-46.0","SS1619739910027","","","","","","","","","images/stimuli/spore_stims/complex_03_A_a.gif","","","","{""Q0"":4}","[0]","","",""
"","3130","survey-likert","173","956020","0.0-47.0","SS1619739910027","","","","","","","","","images/stimuli/spore_stims/complex_05_A_a.gif","","","","{""Q0"":4}","[0]","","",""
"","3352","survey-likert","174","959379","0.0-48.0","SS1619739910027","","","","","","","","","images/stimuli/spore_stims/simple_13_A_a.gif","","","","{""Q0"":0}","[0]","","",""
"","2810","survey-likert","175","962194","0.0-49.0","SS1619739910027","","","","","","","","","images/stimuli/spore_stims/simple_04_A_b.gif","","","","{""Q0"":1}","[0]","","",""
"","3129","survey-likert","176","965332","0.0-50.0","SS1619739910027","","","","","","","","","images/stimuli/spore_stims/simple_12_A_b.gif","","","","{""Q0"":1}","[0]","","",""
"","4113","survey-likert","177","969451","0.0-51.0","SS1619739910027","","","","","","","","","images/stimuli/spore_stims/complex_19_A_a.gif","","","","{""Q0"":5}","[0]","","",""
"","5713","survey-likert","178","975172","0.0-52.0","SS1619739910027","","","","","","","","","images/stimuli/spore_stims/complex_06_A_a.gif","","","","{""Q0"":5}","[0]","","",""
"","2858","survey-likert","179","978035","0.0-53.0","SS1619739910027","","","","","","","","","images/stimuli/spore_stims/simple_13_A_b.gif","","","","{""Q0"":0}","[0]","","",""
"","5586","survey-likert","180","983627","0.0-54.0","SS1619739910027","","","","","","","","","images/stimuli/spore_stims/complex_16_A_a.gif","","","","{""Q0"":5}","[0]","","",""
"","2866","survey-likert","181","986500","0.0-55.0","SS1619739910027","","","","","","","","","images/stimuli/spore_stims/simple_11_A_a.gif","","","","{""Q0"":1}","[0]","","",""
"","3346","survey-likert","182","989851","0.0-56.0","SS1619739910027","","","","","","","","","images/stimuli/spore_stims/complex_17_A_a.gif","","","","{""Q0"":4}","[0]","","",""
"","3409","survey-likert","183","993267","0.0-57.0","SS1619739910027","","","","","","","","","images/stimuli/spore_stims/simple_11_A_b.gif","","","","{""Q0"":1}","[0]","","",""
"[{""page_index"":0,""viewing_time"":2419}]","2419","instructions","184","995691","0.0-58.0","SS1619739910027","instructions","","","","","","","","","","","","","","","",""
"","3488","demog-age","185","999189","0.0-59.0","SS1619739910027","","","","","","","","","","","","","{""age"":""24""}","","","",""
"","7182","demog-ethnic-US","186","1006380","0.0-60.0","SS1619739910027","","","","","","","","","","","","","{""ethnicity"":[""Hispanic or Latino""]}","[0]","","",""
"","25499","demog-gender-and-education","187","1031885","0.0-61.0","SS1619739910027","","","","","","","","","","","","","{""gender"":""Male"",""education"":""Bachelor's Degree""}","[0,1]","","",""
"","7024","survey-text","188","1038915","0.0-62.0","SS1619739910027","feedback","","","","","","","","","","","","{""Q0"":""none""}","","","",""
"[{""page_index"":0,""viewing_time"":2632}]","2632","instructions","189","1041553","0.0-63.0","SS1619739910027","instructions","","","","","","","","","","","","","","","",""
