"view_history","rt","trial_type","trial_index","time_elapsed","internal_node_id","subject","stimulus_type","trial_stimulus","key_press","minimum_viewing_duration","trial_looking_time","block_deviant","block_background","exposure_type","stimulus","block_number","block_type","stimulus_displayed","responses","question_order","math_correct_answer","stimulus_left","stimulus_right"
"[{""page_index"":0,""viewing_time"":40384.86499991268}]","40387.599999899976","instructions","0","40394","0.0-0.0","SS1619739753725","","","","","","","","","","","","","","","","",""
"[{""page_index"":0,""viewing_time"":20845.19999998156},{""page_index"":1,""viewing_time"":7828.8949999259785}]","28674.854999990202","instructions","1","71081","0.0-1.0","SS1619739753725","instructions","","","","","","","","","","","","","","","",""
"","19093.020000029355","sequential-stimulus-presentation-old","2","90690","0.0-2.0","SS1619739753725","","","40","500","19593.020000029355","null","null","self_paced","","","","","","","","",""
"","8769.48999997694","sequential-stimulus-presentation-old","3","99969","0.0-3.0","SS1619739753725","","","40","500","9269.48999997694","null","null","self_paced","","","","","","","","",""
"[{""page_index"":0,""viewing_time"":29508.224999997765}]","29508.824999909848","instructions","4","129482","0.0-4.0","SS1619739753725","instructions","","","","","","","","","","","","","","","",""
"","1252.3450000444427","sequential-stimulus-presentation-old","5","145748","0.0-5.0","SS1619739753725","","","40","500","1752.3450000444427","null","null","forced_long","","","","","","","","",""
"","16499.139999970794","sequential-stimulus-presentation-old","6","162757","0.0-6.0","SS1619739753725","","","40","500","16999.139999970794","null","null","forced_long","","","","","","","","",""
"[{""page_index"":0,""viewing_time"":7230.154999997467}]","7230.865000048652","instructions","7","169990","0.0-7.0","SS1619739753725","instructions","","","","","","","","","","","","","","","",""
"[{""page_index"":0,""viewing_time"":15999.085000017658},{""page_index"":1,""viewing_time"":19444.434999953955},{""page_index"":2,""viewing_time"":10174.359999946319},{""page_index"":3,""viewing_time"":2214.864999987185},{""page_index"":4,""viewing_time"":1861.9400000898167}]","49695.15499996487","instructions","8","219688","0.0-8.0","SS1619739753725","instructions","","","","","","","","","","","","","","","",""
"","null","html-keyboard-response","9","220942","0.0-9.0-0.0","SS1619739753725","","","null","","","","","","<p><img src= images/blank.png width =""600"" height = ""600"" style=""position:fixed;top:50%; left:50%; transform: translate(-50%, -50%); border:5px solid black"">","","","","","","","",""
"","32235.22499995306","sequential-stimulus-presentation-old","10","253688","0.0-9.0-1.0","SS1619739753725","trial","","40","500","32735.22499995306","images/stimuli/spore_stims/complex_04_A_a.gif","images/stimuli/spore_stims/complex_19_A_b.gif","self_paced","","0","complex_dissimilar","images/stimuli/spore_stims/complex_19_A_b.gif","","","","",""
"","null","html-keyboard-response","11","254789","0.0-9.0-0.1","SS1619739753725","","","null","","","","","","<p><img src= images/blank.png width =""600"" height = ""600"" style=""position:fixed;top:50%; left:50%; transform: translate(-50%, -50%); border:5px solid black"">","","","","","","","",""
"","30135.924999951385","sequential-stimulus-presentation-old","12","285436","0.0-9.0-1.1","SS1619739753725","trial","","40","500","30635.924999951385","images/stimuli/spore_stims/complex_04_A_a.gif","images/stimuli/spore_stims/complex_19_A_b.gif","self_paced","","0","complex_dissimilar","images/stimuli/spore_stims/complex_19_A_b.gif","","","","",""
"","null","html-keyboard-response","13","286502","0.0-9.0-0.2","SS1619739753725","","","null","","","","","","<p><img src= images/blank.png width =""600"" height = ""600"" style=""position:fixed;top:50%; left:50%; transform: translate(-50%, -50%); border:5px solid black"">","","","","","","","",""
"","13124.455000041053","sequential-stimulus-presentation-old","14","300136","0.0-9.0-1.2","SS1619739753725","trial","","40","500","13624.455000041053","images/stimuli/spore_stims/complex_04_A_a.gif","images/stimuli/spore_stims/complex_19_A_b.gif","self_paced","","0","complex_dissimilar","images/stimuli/spore_stims/complex_04_A_a.gif","","","","",""
"","null","html-keyboard-response","15","301058","0.0-9.0-0.3","SS1619739753725","","","null","","","","","","<p><img src= images/blank.png width =""600"" height = ""600"" style=""position:fixed;top:50%; left:50%; transform: translate(-50%, -50%); border:5px solid black"">","","","","","","","",""
"","10701.065000030212","sequential-stimulus-presentation-old","16","312276","0.0-9.0-1.3","SS1619739753725","trial","","40","500","11201.065000030212","images/stimuli/spore_stims/complex_04_A_a.gif","images/stimuli/spore_stims/complex_19_A_b.gif","self_paced","","0","complex_dissimilar","images/stimuli/spore_stims/complex_19_A_b.gif","","","","",""
"","null","html-keyboard-response","17","313540","0.0-9.0-0.4","SS1619739753725","","","null","","","","","","<p><img src= images/blank.png width =""600"" height = ""600"" style=""position:fixed;top:50%; left:50%; transform: translate(-50%, -50%); border:5px solid black"">","","","","","","","",""
"","10934.024999965914","sequential-stimulus-presentation-old","18","324995","0.0-9.0-1.4","SS1619739753725","trial","","40","500","11434.024999965914","images/stimuli/spore_stims/complex_04_A_a.gif","images/stimuli/spore_stims/complex_19_A_b.gif","self_paced","","0","complex_dissimilar","images/stimuli/spore_stims/complex_19_A_b.gif","","","","",""
"","4383.969999966212","survey-multi-choice","19","329402","0.0-10.0","SS1619739753725","math_question","","","","","","","","","","","","{""Q0"":""6""}","[0]","6","",""
"","null","html-keyboard-response","20","330599","0.0-11.0-0.0","SS1619739753725","","","null","","","","","","<p><img src= images/blank.png width =""600"" height = ""600"" style=""position:fixed;top:50%; left:50%; transform: translate(-50%, -50%); border:5px solid black"">","","","","","","","",""
"","3860.1800000760704","sequential-stimulus-presentation-old","21","334973","0.0-11.0-1.0","SS1619739753725","trial","","40","500","4360.18000007607","images/stimuli/spore_stims/simple_17_A_b.gif","images/stimuli/spore_stims/simple_06_A_a.gif","forced_short","","1","simple_dissimilar","images/stimuli/spore_stims/simple_06_A_a.gif","","","","",""
"","null","html-keyboard-response","22","336248","0.0-11.0-0.1","SS1619739753725","","","null","","","","","","<p><img src= images/blank.png width =""600"" height = ""600"" style=""position:fixed;top:50%; left:50%; transform: translate(-50%, -50%); border:5px solid black"">","","","","","","","",""
"","7693.319999962114","sequential-stimulus-presentation-old","23","344455","0.0-11.0-1.1","SS1619739753725","trial","","40","500","8193.319999962114","images/stimuli/spore_stims/simple_17_A_b.gif","images/stimuli/spore_stims/simple_06_A_a.gif","forced_short","","1","simple_dissimilar","images/stimuli/spore_stims/simple_06_A_a.gif","","","","",""
"","null","html-keyboard-response","24","345635","0.0-11.0-0.2","SS1619739753725","","","null","","","","","","<p><img src= images/blank.png width =""600"" height = ""600"" style=""position:fixed;top:50%; left:50%; transform: translate(-50%, -50%); border:5px solid black"">","","","","","","","",""
"","14034.464999916963","sequential-stimulus-presentation-old","25","360185","0.0-11.0-1.2","SS1619739753725","trial","","40","500","14534.464999916963","images/stimuli/spore_stims/simple_17_A_b.gif","images/stimuli/spore_stims/simple_06_A_a.gif","forced_short","","1","simple_dissimilar","images/stimuli/spore_stims/simple_06_A_a.gif","","","","",""
"","null","html-keyboard-response","26","361410","0.0-11.0-0.3","SS1619739753725","","","null","","","","","","<p><img src= images/blank.png width =""600"" height = ""600"" style=""position:fixed;top:50%; left:50%; transform: translate(-50%, -50%); border:5px solid black"">","","","","","","","",""
"","22054.48500008788","sequential-stimulus-presentation-old","27","383975","0.0-11.0-1.3","SS1619739753725","trial","","40","500","22554.48500008788","images/stimuli/spore_stims/simple_17_A_b.gif","images/stimuli/spore_stims/simple_06_A_a.gif","forced_short","","1","simple_dissimilar","images/stimuli/spore_stims/simple_06_A_a.gif","","","","",""
"","null","html-keyboard-response","28","385007","0.0-11.0-0.4","SS1619739753725","","","null","","","","","","<p><img src= images/blank.png width =""600"" height = ""600"" style=""position:fixed;top:50%; left:50%; transform: translate(-50%, -50%); border:5px solid black"">","","","","","","","",""
"","21964.990000007674","sequential-stimulus-presentation-old","29","407494","0.0-11.0-1.4","SS1619739753725","trial","","40","500","22464.990000007674","images/stimuli/spore_stims/simple_17_A_b.gif","images/stimuli/spore_stims/simple_06_A_a.gif","forced_short","","1","simple_dissimilar","images/stimuli/spore_stims/simple_06_A_a.gif","","","","",""
"","null","html-keyboard-response","30","408646","0.0-11.0-0.5","SS1619739753725","","","null","","","","","","<p><img src= images/blank.png width =""600"" height = ""600"" style=""position:fixed;top:50%; left:50%; transform: translate(-50%, -50%); border:5px solid black"">","","","","","","","",""
"","9107.569999992847","sequential-stimulus-presentation-old","31","418274","0.0-11.0-1.5","SS1619739753725","trial","","40","500","9607.569999992847","images/stimuli/spore_stims/simple_17_A_b.gif","images/stimuli/spore_stims/simple_06_A_a.gif","forced_short","","1","simple_dissimilar","images/stimuli/spore_stims/simple_06_A_a.gif","","","","",""
"","3944.099999964237","survey-multi-choice","32","422230","0.0-12.0","SS1619739753725","math_question","","","","","","","","","","","","{""Q0"":""10""}","[0]","10","",""
"","null","html-keyboard-response","33","423523","0.0-13.0-0.0","SS1619739753725","","","null","","","","","","<p><img src= images/blank.png width =""600"" height = ""600"" style=""position:fixed;top:50%; left:50%; transform: translate(-50%, -50%); border:5px solid black"">","","","","","","","",""
"","684.899999992922","sequential-stimulus-presentation-old","34","439223","0.0-13.0-1.0","SS1619739753725","trial","","40","500","1184.899999992922","images/stimuli/spore_stims/simple_02_A_b.gif","images/stimuli/spore_stims/simple_10_A_a.gif","forced_long","","2","simple_dissimilar","images/stimuli/spore_stims/simple_10_A_a.gif","","","","",""
"","null","html-keyboard-response","35","440450","0.0-13.0-0.1","SS1619739753725","","","null","","","","","","<p><img src= images/blank.png width =""600"" height = ""600"" style=""position:fixed;top:50%; left:50%; transform: translate(-50%, -50%); border:5px solid black"">","","","","","","","",""
"","22719.030000036582","sequential-stimulus-presentation-old","36","463683","0.0-13.0-1.1","SS1619739753725","trial","","40","500","23219.030000036582","images/stimuli/spore_stims/simple_02_A_b.gif","images/stimuli/spore_stims/simple_10_A_a.gif","forced_long","","2","simple_dissimilar","images/stimuli/spore_stims/simple_02_A_b.gif","","","","",""
"","null","html-keyboard-response","37","464721","0.0-13.0-0.2","SS1619739753725","","","null","","","","","","<p><img src= images/blank.png width =""600"" height = ""600"" style=""position:fixed;top:50%; left:50%; transform: translate(-50%, -50%); border:5px solid black"">","","","","","","","",""
"","12420.82500003744","sequential-stimulus-presentation-old","38","477653","0.0-13.0-1.2","SS1619739753725","trial","","40","500","12920.82500003744","images/stimuli/spore_stims/simple_02_A_b.gif","images/stimuli/spore_stims/simple_10_A_a.gif","forced_long","","2","simple_dissimilar","images/stimuli/spore_stims/simple_10_A_a.gif","","","","",""
"","null","html-keyboard-response","39","478647","0.0-13.0-0.3","SS1619739753725","","","null","","","","","","<p><img src= images/blank.png width =""600"" height = ""600"" style=""position:fixed;top:50%; left:50%; transform: translate(-50%, -50%); border:5px solid black"">","","","","","","","",""
"","17168.73499995563","sequential-stimulus-presentation-old","40","496331","0.0-13.0-1.3","SS1619739753725","trial","","40","500","17668.73499995563","images/stimuli/spore_stims/simple_02_A_b.gif","images/stimuli/spore_stims/simple_10_A_a.gif","forced_long","","2","simple_dissimilar","images/stimuli/spore_stims/simple_02_A_b.gif","","","","",""
"","4795.0449999189","survey-multi-choice","41","501134","0.0-14.0","SS1619739753725","math_question","","","","","","","","","","","","{""Q0"":""8""}","[0]","8","",""
"","null","html-keyboard-response","42","502310","0.0-15.0-0.0","SS1619739753725","","","null","","","","","","<p><img src= images/blank.png width =""600"" height = ""600"" style=""position:fixed;top:50%; left:50%; transform: translate(-50%, -50%); border:5px solid black"">","","","","","","","",""
"","8576.149999978952","sequential-stimulus-presentation-old","43","511400","0.0-15.0-1.0","SS1619739753725","trial","","40","500","9076.149999978952","images/stimuli/spore_stims/complex_08_A_b.gif","images/stimuli/spore_stims/complex_10_A_a.gif","forced_short","","3","complex_dissimilar","images/stimuli/spore_stims/complex_10_A_a.gif","","","","",""
"","null","html-keyboard-response","44","512604","0.0-15.0-0.1","SS1619739753725","","","null","","","","","","<p><img src= images/blank.png width =""600"" height = ""600"" style=""position:fixed;top:50%; left:50%; transform: translate(-50%, -50%); border:5px solid black"">","","","","","","","",""
"","22529.810000094585","sequential-stimulus-presentation-old","45","535651","0.0-15.0-1.1","SS1619739753725","trial","","40","500","23029.810000094585","images/stimuli/spore_stims/complex_08_A_b.gif","images/stimuli/spore_stims/complex_10_A_a.gif","forced_short","","3","complex_dissimilar","images/stimuli/spore_stims/complex_10_A_a.gif","","","","",""
"","null","html-keyboard-response","46","536616","0.0-15.0-0.2","SS1619739753725","","","null","","","","","","<p><img src= images/blank.png width =""600"" height = ""600"" style=""position:fixed;top:50%; left:50%; transform: translate(-50%, -50%); border:5px solid black"">","","","","","","","",""
"","13867.465000017546","sequential-stimulus-presentation-old","47","551001","0.0-15.0-1.2","SS1619739753725","trial","","40","500","14367.465000017546","images/stimuli/spore_stims/complex_08_A_b.gif","images/stimuli/spore_stims/complex_10_A_a.gif","forced_short","","3","complex_dissimilar","images/stimuli/spore_stims/complex_10_A_a.gif","","","","",""
"","null","html-keyboard-response","48","551994","0.0-15.0-0.3","SS1619739753725","","","null","","","","","","<p><img src= images/blank.png width =""600"" height = ""600"" style=""position:fixed;top:50%; left:50%; transform: translate(-50%, -50%); border:5px solid black"">","","","","","","","",""
"","14136.615000083111","sequential-stimulus-presentation-old","49","566638","0.0-15.0-1.3","SS1619739753725","trial","","40","500","14636.615000083111","images/stimuli/spore_stims/complex_08_A_b.gif","images/stimuli/spore_stims/complex_10_A_a.gif","forced_short","","3","complex_dissimilar","images/stimuli/spore_stims/complex_10_A_a.gif","","","","",""
"","null","html-keyboard-response","50","567635","0.0-15.0-0.4","SS1619739753725","","","null","","","","","","<p><img src= images/blank.png width =""600"" height = ""600"" style=""position:fixed;top:50%; left:50%; transform: translate(-50%, -50%); border:5px solid black"">","","","","","","","",""
"","11036.129999905825","sequential-stimulus-presentation-old","51","579190","0.0-15.0-1.4","SS1619739753725","trial","","40","500","11536.129999905825","images/stimuli/spore_stims/complex_08_A_b.gif","images/stimuli/spore_stims/complex_10_A_a.gif","forced_short","","3","complex_dissimilar","images/stimuli/spore_stims/complex_10_A_a.gif","","","","",""
"","4367.499999934807","survey-multi-choice","52","583565","0.0-16.0","SS1619739753725","math_question","","","","","","","","","","","","{""Q0"":""6""}","[0]","6","",""
"","null","html-keyboard-response","53","584659","0.0-17.0-0.0","SS1619739753725","","","null","","","","","","<p><img src= images/blank.png width =""600"" height = ""600"" style=""position:fixed;top:50%; left:50%; transform: translate(-50%, -50%); border:5px solid black"">","","","","","","","",""
"","13129.92499989923","sequential-stimulus-presentation-old","54","598300","0.0-17.0-1.0","SS1619739753725","trial","","40","500","13629.92499989923","images/stimuli/spore_stims/simple_13_A_b.gif","images/stimuli/spore_stims/simple_08_A_a.gif","self_paced","","4","simple_dissimilar","images/stimuli/spore_stims/simple_08_A_a.gif","","","","",""
"","null","html-keyboard-response","55","599383","0.0-17.0-0.1","SS1619739753725","","","null","","","","","","<p><img src= images/blank.png width =""600"" height = ""600"" style=""position:fixed;top:50%; left:50%; transform: translate(-50%, -50%); border:5px solid black"">","","","","","","","",""
"","15997.349999961443","sequential-stimulus-presentation-old","56","615899","0.0-17.0-1.1","SS1619739753725","trial","","40","500","16497.349999961443","images/stimuli/spore_stims/simple_13_A_b.gif","images/stimuli/spore_stims/simple_08_A_a.gif","self_paced","","4","simple_dissimilar","images/stimuli/spore_stims/simple_08_A_a.gif","","","","",""
"","null","html-keyboard-response","57","616917","0.0-17.0-0.2","SS1619739753725","","","null","","","","","","<p><img src= images/blank.png width =""600"" height = ""600"" style=""position:fixed;top:50%; left:50%; transform: translate(-50%, -50%); border:5px solid black"">","","","","","","","",""
"","15282.464999938384","sequential-stimulus-presentation-old","58","632721","0.0-17.0-1.2","SS1619739753725","trial","","40","500","15782.464999938384","images/stimuli/spore_stims/simple_13_A_b.gif","images/stimuli/spore_stims/simple_08_A_a.gif","self_paced","","4","simple_dissimilar","images/stimuli/spore_stims/simple_13_A_b.gif","","","","",""
"","null","html-keyboard-response","59","633601","0.0-17.0-0.3","SS1619739753725","","","null","","","","","","<p><img src= images/blank.png width =""600"" height = ""600"" style=""position:fixed;top:50%; left:50%; transform: translate(-50%, -50%); border:5px solid black"">","","","","","","","",""
"","11867.555000004359","sequential-stimulus-presentation-old","60","645990","0.0-17.0-1.3","SS1619739753725","trial","","40","500","12367.555000004359","images/stimuli/spore_stims/simple_13_A_b.gif","images/stimuli/spore_stims/simple_08_A_a.gif","self_paced","","4","simple_dissimilar","images/stimuli/spore_stims/simple_08_A_a.gif","","","","",""
"","null","html-keyboard-response","61","647083","0.0-17.0-0.4","SS1619739753725","","","null","","","","","","<p><img src= images/blank.png width =""600"" height = ""600"" style=""position:fixed;top:50%; left:50%; transform: translate(-50%, -50%); border:5px solid black"">","","","","","","","",""
"","7481.155000044964","sequential-stimulus-presentation-old","62","655079","0.0-17.0-1.4","SS1619739753725","trial","","40","500","7981.155000044964","images/stimuli/spore_stims/simple_13_A_b.gif","images/stimuli/spore_stims/simple_08_A_a.gif","self_paced","","4","simple_dissimilar","images/stimuli/spore_stims/simple_13_A_b.gif","","","","",""
"","null","html-keyboard-response","63","656278","0.0-17.0-0.5","SS1619739753725","","","null","","","","","","<p><img src= images/blank.png width =""600"" height = ""600"" style=""position:fixed;top:50%; left:50%; transform: translate(-50%, -50%); border:5px solid black"">","","","","","","","",""
"","7083.104999968782","sequential-stimulus-presentation-old","64","663880","0.0-17.0-1.5","SS1619739753725","trial","","40","500","7583.104999968782","images/stimuli/spore_stims/simple_13_A_b.gif","images/stimuli/spore_stims/simple_08_A_a.gif","self_paced","","4","simple_dissimilar","images/stimuli/spore_stims/simple_08_A_a.gif","","","","",""
"","3921.95999994874","survey-multi-choice","65","667812","0.0-18.0","SS1619739753725","math_question","","","","","","","","","","","","{""Q0"":""12""}","[0]","12","",""
"","null","html-keyboard-response","66","669112","0.0-19.0-0.0","SS1619739753725","","","null","","","","","","<p><img src= images/blank.png width =""600"" height = ""600"" style=""position:fixed;top:50%; left:50%; transform: translate(-50%, -50%); border:5px solid black"">","","","","","","","",""
"","1187.6199999824166","sequential-stimulus-presentation-old","67","670827","0.0-19.0-1.0","SS1619739753725","trial","","40","500","1687.6199999824166","images/stimuli/spore_stims/simple_15_A_b.gif","images/stimuli/spore_stims/simple_01_A_a.gif","forced_short","","5","simple_dissimilar","images/stimuli/spore_stims/simple_01_A_a.gif","","","","",""
"","null","html-keyboard-response","68","671697","0.0-19.0-0.1","SS1619739753725","","","null","","","","","","<p><img src= images/blank.png width =""600"" height = ""600"" style=""position:fixed;top:50%; left:50%; transform: translate(-50%, -50%); border:5px solid black"">","","","","","","","",""
"","5257.464999915101","sequential-stimulus-presentation-old","69","677469","0.0-19.0-1.1","SS1619739753725","trial","","40","500","5757.464999915101","images/stimuli/spore_stims/simple_15_A_b.gif","images/stimuli/spore_stims/simple_01_A_a.gif","forced_short","","5","simple_dissimilar","images/stimuli/spore_stims/simple_01_A_a.gif","","","","",""
"","null","html-keyboard-response","70","678434","0.0-19.0-0.2","SS1619739753725","","","null","","","","","","<p><img src= images/blank.png width =""600"" height = ""600"" style=""position:fixed;top:50%; left:50%; transform: translate(-50%, -50%); border:5px solid black"">","","","","","","","",""
"","5630.299999960698","sequential-stimulus-presentation-old","71","684579","0.0-19.0-1.2","SS1619739753725","trial","","40","500","6130.299999960698","images/stimuli/spore_stims/simple_15_A_b.gif","images/stimuli/spore_stims/simple_01_A_a.gif","forced_short","","5","simple_dissimilar","images/stimuli/spore_stims/simple_01_A_a.gif","","","","",""
"","null","html-keyboard-response","72","685591","0.0-19.0-0.3","SS1619739753725","","","null","","","","","","<p><img src= images/blank.png width =""600"" height = ""600"" style=""position:fixed;top:50%; left:50%; transform: translate(-50%, -50%); border:5px solid black"">","","","","","","","",""
"","8531.17500001099","sequential-stimulus-presentation-old","73","694649","0.0-19.0-1.3","SS1619739753725","trial","","40","500","9031.17500001099","images/stimuli/spore_stims/simple_15_A_b.gif","images/stimuli/spore_stims/simple_01_A_a.gif","forced_short","","5","simple_dissimilar","images/stimuli/spore_stims/simple_01_A_a.gif","","","","",""
"","null","html-keyboard-response","74","695755","0.0-19.0-0.4","SS1619739753725","","","null","","","","","","<p><img src= images/blank.png width =""600"" height = ""600"" style=""position:fixed;top:50%; left:50%; transform: translate(-50%, -50%); border:5px solid black"">","","","","","","","",""
"","11331.070000072941","sequential-stimulus-presentation-old","75","707598","0.0-19.0-1.4","SS1619739753725","trial","","40","500","11831.070000072941","images/stimuli/spore_stims/simple_15_A_b.gif","images/stimuli/spore_stims/simple_01_A_a.gif","forced_short","","5","simple_dissimilar","images/stimuli/spore_stims/simple_01_A_a.gif","","","","",""
"","3859.5049999421462","survey-multi-choice","76","711470","0.0-20.0","SS1619739753725","math_question","","","","","","","","","","","","{""Q0"":""13""}","[0]","13","",""
"","null","html-keyboard-response","77","712512","0.0-21.0-0.0","SS1619739753725","","","null","","","","","","<p><img src= images/blank.png width =""600"" height = ""600"" style=""position:fixed;top:50%; left:50%; transform: translate(-50%, -50%); border:5px solid black"">","","","","","","","",""
"","769.730000058189","sequential-stimulus-presentation-old","78","713797","0.0-21.0-1.0","SS1619739753725","trial","","40","500","1269.730000058189","images/stimuli/spore_stims/complex_02_A_a.gif","images/stimuli/spore_stims/complex_18_A_b.gif","forced_short","","6","complex_dissimilar","images/stimuli/spore_stims/complex_18_A_b.gif","","","","",""
"","null","html-keyboard-response","79","714647","0.0-21.0-0.1","SS1619739753725","","","null","","","","","","<p><img src= images/blank.png width =""600"" height = ""600"" style=""position:fixed;top:50%; left:50%; transform: translate(-50%, -50%); border:5px solid black"">","","","","","","","",""
"","10033.754999982193","sequential-stimulus-presentation-old","80","725188","0.0-21.0-1.1","SS1619739753725","trial","","40","500","10533.754999982193","images/stimuli/spore_stims/complex_02_A_a.gif","images/stimuli/spore_stims/complex_18_A_b.gif","forced_short","","6","complex_dissimilar","images/stimuli/spore_stims/complex_18_A_b.gif","","","","",""
"","null","html-keyboard-response","81","726023","0.0-21.0-0.2","SS1619739753725","","","null","","","","","","<p><img src= images/blank.png width =""600"" height = ""600"" style=""position:fixed;top:50%; left:50%; transform: translate(-50%, -50%); border:5px solid black"">","","","","","","","",""
"","10029.314999934286","sequential-stimulus-presentation-old","82","736568","0.0-21.0-1.2","SS1619739753725","trial","","40","500","10529.314999934286","images/stimuli/spore_stims/complex_02_A_a.gif","images/stimuli/spore_stims/complex_18_A_b.gif","forced_short","","6","complex_dissimilar","images/stimuli/spore_stims/complex_02_A_a.gif","","","","",""
"","null","html-keyboard-response","83","737760","0.0-21.0-0.3","SS1619739753725","","","null","","","","","","<p><img src= images/blank.png width =""600"" height = ""600"" style=""position:fixed;top:50%; left:50%; transform: translate(-50%, -50%); border:5px solid black"">","","","","","","","",""
"","6407.385000027716","sequential-stimulus-presentation-old","84","744687","0.0-21.0-1.3","SS1619739753725","trial","","40","500","6907.385000027716","images/stimuli/spore_stims/complex_02_A_a.gif","images/stimuli/spore_stims/complex_18_A_b.gif","forced_short","","6","complex_dissimilar","images/stimuli/spore_stims/complex_02_A_a.gif","","","","",""
"","3229.1400000685826","survey-multi-choice","85","747929","0.0-22.0","SS1619739753725","math_question","","","","","","","","","","","","{""Q0"":""12""}","[0]","12","",""
"","null","html-keyboard-response","86","748934","0.0-23.0-0.0","SS1619739753725","","","null","","","","","","<p><img src= images/blank.png width =""600"" height = ""600"" style=""position:fixed;top:50%; left:50%; transform: translate(-50%, -50%); border:5px solid black"">","","","","","","","",""
"","1513.050000066869","sequential-stimulus-presentation-old","87","765465","0.0-23.0-1.0","SS1619739753725","trial","","40","500","2013.050000066869","images/stimuli/spore_stims/simple_14_A_a.gif","images/stimuli/spore_stims/simple_12_A_b.gif","forced_long","","7","simple_dissimilar","images/stimuli/spore_stims/simple_12_A_b.gif","","","","",""
"","null","html-keyboard-response","88","766630","0.0-23.0-0.1","SS1619739753725","","","null","","","","","","<p><img src= images/blank.png width =""600"" height = ""600"" style=""position:fixed;top:50%; left:50%; transform: translate(-50%, -50%); border:5px solid black"">","","","","","","","",""
"","10548.560000024736","sequential-stimulus-presentation-old","89","777697","0.0-23.0-1.1","SS1619739753725","trial","","40","500","11048.560000024736","images/stimuli/spore_stims/simple_14_A_a.gif","images/stimuli/spore_stims/simple_12_A_b.gif","forced_long","","7","simple_dissimilar","images/stimuli/spore_stims/simple_12_A_b.gif","","","","",""
"","null","html-keyboard-response","90","778994","0.0-23.0-0.2","SS1619739753725","","","null","","","","","","<p><img src= images/blank.png width =""600"" height = ""600"" style=""position:fixed;top:50%; left:50%; transform: translate(-50%, -50%); border:5px solid black"">","","","","","","","",""
"","7965.154999983497","sequential-stimulus-presentation-old","91","787486","0.0-23.0-1.2","SS1619739753725","trial","","40","500","8465.154999983497","images/stimuli/spore_stims/simple_14_A_a.gif","images/stimuli/spore_stims/simple_12_A_b.gif","forced_long","","7","simple_dissimilar","images/stimuli/spore_stims/simple_12_A_b.gif","","","","",""
"","null","html-keyboard-response","92","788414","0.0-23.0-0.3","SS1619739753725","","","null","","","","","","<p><img src= images/blank.png width =""600"" height = ""600"" style=""position:fixed;top:50%; left:50%; transform: translate(-50%, -50%); border:5px solid black"">","","","","","","","",""
"","3577.41500006523","sequential-stimulus-presentation-old","93","792516","0.0-23.0-1.3","SS1619739753725","trial","","40","500","4077.41500006523","images/stimuli/spore_stims/simple_14_A_a.gif","images/stimuli/spore_stims/simple_12_A_b.gif","forced_long","","7","simple_dissimilar","images/stimuli/spore_stims/simple_12_A_b.gif","","","","",""
"","3519.200000097044","survey-multi-choice","94","796049","0.0-24.0","SS1619739753725","math_question","","","","","","","","","","","","{""Q0"":""15""}","[0]","15","",""
"","null","html-keyboard-response","95","797136","0.0-25.0-0.0","SS1619739753725","","","null","","","","","","<p><img src= images/blank.png width =""600"" height = ""600"" style=""position:fixed;top:50%; left:50%; transform: translate(-50%, -50%); border:5px solid black"">","","","","","","","",""
"","863.3050000062212","sequential-stimulus-presentation-old","96","813027","0.0-25.0-1.0","SS1619739753725","trial","","40","500","1363.3050000062212","images/stimuli/spore_stims/complex_06_A_a.gif","images/stimuli/spore_stims/complex_04_A_b.gif","forced_long","","8","complex_dissimilar","images/stimuli/spore_stims/complex_04_A_b.gif","","","","",""
"","null","html-keyboard-response","97","814057","0.0-25.0-0.1","SS1619739753725","","","null","","","","","","<p><img src= images/blank.png width =""600"" height = ""600"" style=""position:fixed;top:50%; left:50%; transform: translate(-50%, -50%); border:5px solid black"">","","","","","","","",""
"","9246.864999993704","sequential-stimulus-presentation-old","98","823818","0.0-25.0-1.1","SS1619739753725","trial","","40","500","9746.864999993704","images/stimuli/spore_stims/complex_06_A_a.gif","images/stimuli/spore_stims/complex_04_A_b.gif","forced_long","","8","complex_dissimilar","images/stimuli/spore_stims/complex_04_A_b.gif","","","","",""
"","null","html-keyboard-response","99","824820","0.0-25.0-0.2","SS1619739753725","","","null","","","","","","<p><img src= images/blank.png width =""600"" height = ""600"" style=""position:fixed;top:50%; left:50%; transform: translate(-50%, -50%); border:5px solid black"">","","","","","","","",""
"","11363.950000028126","sequential-stimulus-presentation-old","100","836697","0.0-25.0-1.2","SS1619739753725","trial","","40","500","11863.950000028126","images/stimuli/spore_stims/complex_06_A_a.gif","images/stimuli/spore_stims/complex_04_A_b.gif","forced_long","","8","complex_dissimilar","images/stimuli/spore_stims/complex_06_A_a.gif","","","","",""
"","null","html-keyboard-response","101","837791","0.0-25.0-0.3","SS1619739753725","","","null","","","","","","<p><img src= images/blank.png width =""600"" height = ""600"" style=""position:fixed;top:50%; left:50%; transform: translate(-50%, -50%); border:5px solid black"">","","","","","","","",""
"","1634.859999991022","sequential-stimulus-presentation-old","102","839947","0.0-25.0-1.3","SS1619739753725","trial","","40","500","2134.859999991022","images/stimuli/spore_stims/complex_06_A_a.gif","images/stimuli/spore_stims/complex_04_A_b.gif","forced_long","","8","complex_dissimilar","images/stimuli/spore_stims/complex_06_A_a.gif","","","","",""
"","null","html-keyboard-response","103","841021","0.0-25.0-0.4","SS1619739753725","","","null","","","","","","<p><img src= images/blank.png width =""600"" height = ""600"" style=""position:fixed;top:50%; left:50%; transform: translate(-50%, -50%); border:5px solid black"">","","","","","","","",""
"","5483.430000022054","sequential-stimulus-presentation-old","104","847016","0.0-25.0-1.4","SS1619739753725","trial","","40","500","5983.430000022054","images/stimuli/spore_stims/complex_06_A_a.gif","images/stimuli/spore_stims/complex_04_A_b.gif","forced_long","","8","complex_dissimilar","images/stimuli/spore_stims/complex_04_A_b.gif","","","","",""
"","2862.3549999902025","survey-multi-choice","105","849890","0.0-26.0","SS1619739753725","math_question","","","","","","","","","","","","{""Q0"":""18""}","[0]","18","",""
"","null","html-keyboard-response","106","850750","0.0-27.0-0.0","SS1619739753725","","","null","","","","","","<p><img src= images/blank.png width =""600"" height = ""600"" style=""position:fixed;top:50%; left:50%; transform: translate(-50%, -50%); border:5px solid black"">","","","","","","","",""
"","536.5349999628961","sequential-stimulus-presentation-old","107","866297","0.0-27.0-1.0","SS1619739753725","trial","","40","500","1036.534999962896","images/stimuli/spore_stims/complex_10_A_b.gif","images/stimuli/spore_stims/complex_11_A_a.gif","forced_long","","9","complex_dissimilar","images/stimuli/spore_stims/complex_11_A_a.gif","","","","",""
"","null","html-keyboard-response","108","867275","0.0-27.0-0.1","SS1619739753725","","","null","","","","","","<p><img src= images/blank.png width =""600"" height = ""600"" style=""position:fixed;top:50%; left:50%; transform: translate(-50%, -50%); border:5px solid black"">","","","","","","","",""
"","2444.8200000915676","sequential-stimulus-presentation-old","109","870236","0.0-27.0-1.1","SS1619739753725","trial","","40","500","2944.8200000915676","images/stimuli/spore_stims/complex_10_A_b.gif","images/stimuli/spore_stims/complex_11_A_a.gif","forced_long","","9","complex_dissimilar","images/stimuli/spore_stims/complex_11_A_a.gif","","","","",""
"","null","html-keyboard-response","110","871318","0.0-27.0-0.2","SS1619739753725","","","null","","","","","","<p><img src= images/blank.png width =""600"" height = ""600"" style=""position:fixed;top:50%; left:50%; transform: translate(-50%, -50%); border:5px solid black"">","","","","","","","",""
"","1689.8150000488386","sequential-stimulus-presentation-old","111","873525","0.0-27.0-1.2","SS1619739753725","trial","","40","500","2189.8150000488386","images/stimuli/spore_stims/complex_10_A_b.gif","images/stimuli/spore_stims/complex_11_A_a.gif","forced_long","","9","complex_dissimilar","images/stimuli/spore_stims/complex_11_A_a.gif","","","","",""
"","null","html-keyboard-response","112","874460","0.0-27.0-0.3","SS1619739753725","","","null","","","","","","<p><img src= images/blank.png width =""600"" height = ""600"" style=""position:fixed;top:50%; left:50%; transform: translate(-50%, -50%); border:5px solid black"">","","","","","","","",""
"","4574.080000049435","sequential-stimulus-presentation-old","113","879544","0.0-27.0-1.3","SS1619739753725","trial","","40","500","5074.080000049435","images/stimuli/spore_stims/complex_10_A_b.gif","images/stimuli/spore_stims/complex_11_A_a.gif","forced_long","","9","complex_dissimilar","images/stimuli/spore_stims/complex_11_A_a.gif","","","","",""
"","3588.8499999418855","survey-multi-choice","114","883146","0.0-28.0","SS1619739753725","math_question","","","","","","","","","","","","{""Q0"":""7""}","[0]","7","",""
"","null","html-keyboard-response","115","884068","0.0-29.0-0.0","SS1619739753725","","","null","","","","","","<p><img src= images/blank.png width =""600"" height = ""600"" style=""position:fixed;top:50%; left:50%; transform: translate(-50%, -50%); border:5px solid black"">","","","","","","","",""
"","2905.2900000242516","sequential-stimulus-presentation-old","116","887496","0.0-29.0-1.0","SS1619739753725","trial","","40","500","3405.2900000242516","images/stimuli/spore_stims/complex_12_A_b.gif","images/stimuli/spore_stims/complex_14_A_a.gif","self_paced","","10","complex_dissimilar","images/stimuli/spore_stims/complex_14_A_a.gif","","","","",""
"","null","html-keyboard-response","117","888329","0.0-29.0-0.1","SS1619739753725","","","null","","","","","","<p><img src= images/blank.png width =""600"" height = ""600"" style=""position:fixed;top:50%; left:50%; transform: translate(-50%, -50%); border:5px solid black"">","","","","","","","",""
"","3560.7900000177324","sequential-stimulus-presentation-old","118","892418","0.0-29.0-1.1","SS1619739753725","trial","","40","500","4060.7900000177324","images/stimuli/spore_stims/complex_12_A_b.gif","images/stimuli/spore_stims/complex_14_A_a.gif","self_paced","","10","complex_dissimilar","images/stimuli/spore_stims/complex_12_A_b.gif","","","","",""
"","null","html-keyboard-response","119","893591","0.0-29.0-0.2","SS1619739753725","","","null","","","","","","<p><img src= images/blank.png width =""600"" height = ""600"" style=""position:fixed;top:50%; left:50%; transform: translate(-50%, -50%); border:5px solid black"">","","","","","","","",""
"","6965.399999986403","sequential-stimulus-presentation-old","120","901077","0.0-29.0-1.2","SS1619739753725","trial","","40","500","7465.399999986403","images/stimuli/spore_stims/complex_12_A_b.gif","images/stimuli/spore_stims/complex_14_A_a.gif","self_paced","","10","complex_dissimilar","images/stimuli/spore_stims/complex_14_A_a.gif","","","","",""
"","null","html-keyboard-response","121","902360","0.0-29.0-0.3","SS1619739753725","","","null","","","","","","<p><img src= images/blank.png width =""600"" height = ""600"" style=""position:fixed;top:50%; left:50%; transform: translate(-50%, -50%); border:5px solid black"">","","","","","","","",""
"","1670.0450000353158","sequential-stimulus-presentation-old","122","904546","0.0-29.0-1.3","SS1619739753725","trial","","40","500","2170.0450000353158","images/stimuli/spore_stims/complex_12_A_b.gif","images/stimuli/spore_stims/complex_14_A_a.gif","self_paced","","10","complex_dissimilar","images/stimuli/spore_stims/complex_14_A_a.gif","","","","",""
"","null","html-keyboard-response","123","905465","0.0-29.0-0.4","SS1619739753725","","","null","","","","","","<p><img src= images/blank.png width =""600"" height = ""600"" style=""position:fixed;top:50%; left:50%; transform: translate(-50%, -50%); border:5px solid black"">","","","","","","","",""
"","4424.389999941923","sequential-stimulus-presentation-old","124","910414","0.0-29.0-1.4","SS1619739753725","trial","","40","500","4924.389999941923","images/stimuli/spore_stims/complex_12_A_b.gif","images/stimuli/spore_stims/complex_14_A_a.gif","self_paced","","10","complex_dissimilar","images/stimuli/spore_stims/complex_12_A_b.gif","","","","",""
"","null","html-keyboard-response","125","911563","0.0-29.0-0.5","SS1619739753725","","","null","","","","","","<p><img src= images/blank.png width =""600"" height = ""600"" style=""position:fixed;top:50%; left:50%; transform: translate(-50%, -50%); border:5px solid black"">","","","","","","","",""
"","1890.8649999648333","sequential-stimulus-presentation-old","126","913984","0.0-29.0-1.5","SS1619739753725","trial","","40","500","2390.8649999648333","images/stimuli/spore_stims/complex_12_A_b.gif","images/stimuli/spore_stims/complex_14_A_a.gif","self_paced","","10","complex_dissimilar","images/stimuli/spore_stims/complex_14_A_a.gif","","","","",""
"","4638.3249999489635","survey-multi-choice","127","918637","0.0-30.0","SS1619739753725","math_question","","","","","","","","","","","","{""Q0"":""7""}","[0]","7","",""
"","null","html-keyboard-response","128","919834","0.0-31.0-0.0","SS1619739753725","","","null","","","","","","<p><img src= images/blank.png width =""600"" height = ""600"" style=""position:fixed;top:50%; left:50%; transform: translate(-50%, -50%); border:5px solid black"">","","","","","","","",""
"","3035.1299999747425","sequential-stimulus-presentation-old","129","923384","0.0-31.0-1.0","SS1619739753725","trial","","40","500","3535.1299999747425","images/stimuli/spore_stims/simple_09_A_a.gif","images/stimuli/spore_stims/simple_03_A_b.gif","self_paced","","11","simple_dissimilar","images/stimuli/spore_stims/simple_03_A_b.gif","","","","",""
"","null","html-keyboard-response","130","924215","0.0-31.0-0.1","SS1619739753725","","","null","","","","","","<p><img src= images/blank.png width =""600"" height = ""600"" style=""position:fixed;top:50%; left:50%; transform: translate(-50%, -50%); border:5px solid black"">","","","","","","","",""
"","4021.1700000800192","sequential-stimulus-presentation-old","131","928754","0.0-31.0-1.1","SS1619739753725","trial","","40","500","4521.170000080019","images/stimuli/spore_stims/simple_09_A_a.gif","images/stimuli/spore_stims/simple_03_A_b.gif","self_paced","","11","simple_dissimilar","images/stimuli/spore_stims/simple_03_A_b.gif","","","","",""
"","null","html-keyboard-response","132","929614","0.0-31.0-0.2","SS1619739753725","","","null","","","","","","<p><img src= images/blank.png width =""600"" height = ""600"" style=""position:fixed;top:50%; left:50%; transform: translate(-50%, -50%); border:5px solid black"">","","","","","","","",""
"","3458.5799999767914","sequential-stimulus-presentation-old","133","933594","0.0-31.0-1.2","SS1619739753725","trial","","40","500","3958.5799999767914","images/stimuli/spore_stims/simple_09_A_a.gif","images/stimuli/spore_stims/simple_03_A_b.gif","self_paced","","11","simple_dissimilar","images/stimuli/spore_stims/simple_03_A_b.gif","","","","",""
"","null","html-keyboard-response","134","934568","0.0-31.0-0.3","SS1619739753725","","","null","","","","","","<p><img src= images/blank.png width =""600"" height = ""600"" style=""position:fixed;top:50%; left:50%; transform: translate(-50%, -50%); border:5px solid black"">","","","","","","","",""
"","5799.3449999485165","sequential-stimulus-presentation-old","135","940885","0.0-31.0-1.3","SS1619739753725","trial","","40","500","6299.3449999485165","images/stimuli/spore_stims/simple_09_A_a.gif","images/stimuli/spore_stims/simple_03_A_b.gif","self_paced","","11","simple_dissimilar","images/stimuli/spore_stims/simple_03_A_b.gif","","","","",""
"","null","html-keyboard-response","136","942099","0.0-31.0-0.4","SS1619739753725","","","null","","","","","","<p><img src= images/blank.png width =""600"" height = ""600"" style=""position:fixed;top:50%; left:50%; transform: translate(-50%, -50%); border:5px solid black"">","","","","","","","",""
"","4547.179999994114","sequential-stimulus-presentation-old","137","947173","0.0-31.0-1.4","SS1619739753725","trial","","40","500","5047.179999994114","images/stimuli/spore_stims/simple_09_A_a.gif","images/stimuli/spore_stims/simple_03_A_b.gif","self_paced","","11","simple_dissimilar","images/stimuli/spore_stims/simple_03_A_b.gif","","","","",""
"","null","html-keyboard-response","138","948386","0.0-31.0-0.5","SS1619739753725","","","null","","","","","","<p><img src= images/blank.png width =""600"" height = ""600"" style=""position:fixed;top:50%; left:50%; transform: translate(-50%, -50%); border:5px solid black"">","","","","","","","",""
"","3264.1800000565127","sequential-stimulus-presentation-old","139","952165","0.0-31.0-1.5","SS1619739753725","trial","","40","500","3764.1800000565127","images/stimuli/spore_stims/simple_09_A_a.gif","images/stimuli/spore_stims/simple_03_A_b.gif","self_paced","","11","simple_dissimilar","images/stimuli/spore_stims/simple_03_A_b.gif","","","","",""
"[{""page_index"":0,""viewing_time"":6982.57500003092}]","6983.805000083521","instructions","140","959160","0.0-32.0","SS1619739753725","instructions","","","","","","","","","","","","","","","",""
"","17742.405000026338","survey-likert","141","976920","0.0-33.0","SS1619739753725","similarity_question","","","","","","","","","","","","{""Q0"":2}","[0]","","images/stimuli/spore_stims/complex_14_A_a.gif","images/stimuli/spore_stims/complex_12_A_b.gif"
"","7022.884999983944","survey-likert","142","983970","0.0-34.0","SS1619739753725","similarity_question","","","","","","","","","","","","{""Q0"":2}","[0]","","images/stimuli/spore_stims/complex_02_A_a.gif","images/stimuli/spore_stims/complex_18_A_b.gif"
"","6464.990000007674","survey-likert","143","990458","0.0-35.0","SS1619739753725","similarity_question","","","","","","","","","","","","{""Q0"":5}","[0]","","images/stimuli/spore_stims/simple_13_A_b.gif","images/stimuli/spore_stims/simple_08_A_a.gif"
"","7894.540000008419","survey-likert","144","998375","0.0-36.0","SS1619739753725","similarity_question","","","","","","","","","","","","{""Q0"":0}","[0]","","images/stimuli/spore_stims/complex_10_A_a.gif","images/stimuli/spore_stims/complex_08_A_b.gif"
"","5518.664999981411","survey-likert","145","1003916","0.0-37.0","SS1619739753725","similarity_question","","","","","","","","","","","","{""Q0"":4}","[0]","","images/stimuli/spore_stims/simple_12_A_b.gif","images/stimuli/spore_stims/simple_14_A_a.gif"
"","2709.309999947436","survey-likert","146","1006652","0.0-38.0","SS1619739753725","similarity_question","","","","","","","","","","","","{""Q0"":4}","[0]","","images/stimuli/spore_stims/simple_15_A_b.gif","images/stimuli/spore_stims/simple_01_A_a.gif"
"","6539.57000002265","survey-likert","147","1013212","0.0-39.0","SS1619739753725","similarity_question","","","","","","","","","","","","{""Q0"":4}","[0]","","images/stimuli/spore_stims/simple_09_A_a.gif","images/stimuli/spore_stims/simple_03_A_b.gif"
"","7332.045000046492","survey-likert","148","1020576","0.0-40.0","SS1619739753725","similarity_question","","","","","","","","","","","","{""Q0"":1}","[0]","","images/stimuli/spore_stims/complex_11_A_a.gif","images/stimuli/spore_stims/complex_10_A_b.gif"
"","3283.839999930933","survey-likert","149","1023883","0.0-41.0","SS1619739753725","similarity_question","","","","","","","","","","","","{""Q0"":4}","[0]","","images/stimuli/spore_stims/simple_06_A_a.gif","images/stimuli/spore_stims/simple_17_A_b.gif"
"","14001.02500000503","survey-likert","150","1037904","0.0-42.0","SS1619739753725","similarity_question","","","","","","","","","","","","{""Q0"":2}","[0]","","images/stimuli/spore_stims/complex_04_A_b.gif","images/stimuli/spore_stims/complex_06_A_a.gif"
"","6720.3800000716","survey-likert","151","1044653","0.0-43.0","SS1619739753725","similarity_question","","","","","","","","","","","","{""Q0"":5}","[0]","","images/stimuli/spore_stims/simple_02_A_b.gif","images/stimuli/spore_stims/simple_10_A_a.gif"
"","7305.104999919422","survey-likert","152","1051986","0.0-44.0","SS1619739753725","similarity_question","","","","","","","","","","","","{""Q0"":2}","[0]","","images/stimuli/spore_stims/complex_04_A_a.gif","images/stimuli/spore_stims/complex_19_A_b.gif"
"[{""page_index"":0,""viewing_time"":7201.699999975972}]","7202.545000007376","instructions","153","1059206","0.0-45.0","SS1619739753725","instructions","","","","","","","","","","","","","","","",""
"","5253.260000026785","survey-likert","154","1064474","0.0-46.0","SS1619739753725","","","","","","","","","images/stimuli/spore_stims/complex_19_A_b.gif","","","","{""Q0"":5}","[0]","","",""
"","5333.274999982677","survey-likert","155","1069830","0.0-47.0","SS1619739753725","","","","","","","","","images/stimuli/spore_stims/simple_17_A_b.gif","","","","{""Q0"":1}","[0]","","",""
"","4630.9800000162795","survey-likert","156","1074482","0.0-48.0","SS1619739753725","","","","","","","","","images/stimuli/spore_stims/simple_09_A_a.gif","","","","{""Q0"":0}","[0]","","",""
"","4738.720000023022","survey-likert","157","1079249","0.0-49.0","SS1619739753725","","","","","","","","","images/stimuli/spore_stims/complex_02_A_a.gif","","","","{""Q0"":5}","[0]","","",""
"","4143.990000011399","survey-likert","158","1083420","0.0-50.0","SS1619739753725","","","","","","","","","images/stimuli/spore_stims/complex_08_A_b.gif","","","","{""Q0"":6}","[0]","","",""
"","2089.644999941811","survey-likert","159","1085532","0.0-51.0","SS1619739753725","","","","","","","","","images/stimuli/spore_stims/simple_15_A_b.gif","","","","{""Q0"":1}","[0]","","",""
"","3739.9150000419468","survey-likert","160","1089301","0.0-52.0","SS1619739753725","","","","","","","","","images/stimuli/spore_stims/simple_13_A_b.gif","","","","{""Q0"":0}","[0]","","",""
"","3352.850000024773","survey-likert","161","1092675","0.0-53.0","SS1619739753725","","","","","","","","","images/stimuli/spore_stims/complex_06_A_a.gif","","","","{""Q0"":5}","[0]","","",""
"","3112.8849999513477","survey-likert","162","1095812","0.0-54.0","SS1619739753725","","","","","","","","","images/stimuli/spore_stims/complex_10_A_b.gif","","","","{""Q0"":5}","[0]","","",""
"","4437.2150000417605","survey-likert","163","1100270","0.0-55.0","SS1619739753725","","","","","","","","","images/stimuli/spore_stims/complex_12_A_b.gif","","","","{""Q0"":5}","[0]","","",""
"","6189.834999968298","survey-likert","164","1106485","0.0-56.0","SS1619739753725","","","","","","","","","images/stimuli/spore_stims/simple_14_A_a.gif","","","","{""Q0"":1}","[0]","","",""
"","4517.195000080392","survey-likert","165","1111025","0.0-57.0","SS1619739753725","","","","","","","","","images/stimuli/spore_stims/simple_10_A_a.gif","","","","{""Q0"":0}","[0]","","",""
"[{""page_index"":0,""viewing_time"":2471.925000078045}]","2472.7699999930337","instructions","166","1113515","0.0-58.0","SS1619739753725","instructions","","","","","","","","","","","","","","","",""
"","5230.174999916926","demog-age","167","1118768","0.0-59.0","SS1619739753725","","","","","","","","","","","","","{""age"":""24""}","","","",""
"","5977.69500000868","demog-ethnic-US","168","1124773","0.0-60.0","SS1619739753725","","","","","","","","","","","","","{""ethnicity"":[""White""]}","[0]","","",""
"","16876.79999996908","demog-gender-and-education","169","1141667","0.0-61.0","SS1619739753725","","","","","","","","","","","","","{""gender"":""Female"",""education"":""High school diploma""}","[0,1]","","",""
"","19221.629999927245","survey-text","170","1160911","0.0-62.0","SS1619739753725","feedback","","","","","","","","","","","","{""Q0"":""no problems at all!""}","","","",""
"[{""page_index"":0,""viewing_time"":1650.2800000598654}]","1651.0400000261143","instructions","171","1162574","0.0-63.0","SS1619739753725","instructions","","","","","","","","","","","","","","","",""
