"view_history","rt","trial_type","trial_index","time_elapsed","internal_node_id","subject","stimulus_type","trial_stimulus","key_press","minimum_viewing_duration","trial_looking_time","block_deviant","block_background","exposure_type","stimulus","block_number","block_type","stimulus_displayed","responses","question_order","math_correct_answer","stimulus_left","stimulus_right"
"[{""page_index"":0,""viewing_time"":10802.83000000054}]","10803.385000001072","instructions","0","10804","0.0-0.0","SS1619739858329","","","","","","","","","","","","","","","","",""
"[{""page_index"":0,""viewing_time"":25156.064999999217},{""page_index"":1,""viewing_time"":6198.370000000068}]","31354.68000000037","instructions","1","44171","0.0-1.0","SS1619739858329","instructions","","","","","","","","","","","","","","","",""
"","6182.810000000245","sequential-stimulus-presentation-old","2","50864","0.0-2.0","SS1619739858329","","","40","500","6682.810000000245","null","null","self_paced","","","","","","","","",""
"","4127.40500000109","sequential-stimulus-presentation-old","3","55496","0.0-3.0","SS1619739858329","","","40","500","4627.40500000109","null","null","self_paced","","","","","","","","",""
"[{""page_index"":0,""viewing_time"":18476.28000000077}]","18476.59500000009","instructions","4","73974","0.0-4.0","SS1619739858329","instructions","","","","","","","","","","","","","","","",""
"","2225.9500000000116","sequential-stimulus-presentation-old","5","91211","0.0-5.0","SS1619739858329","","","40","500","2725.9500000000116","null","null","forced_long","","","","","","","","",""
"","2767.0799999996234","sequential-stimulus-presentation-old","6","94488","0.0-6.0","SS1619739858329","","","40","500","3267.0799999996234","null","null","forced_long","","","","","","","","",""
"[{""page_index"":0,""viewing_time"":3226.6599999984464}]","3226.8549999989773","instructions","7","97715","0.0-7.0","SS1619739858329","instructions","","","","","","","","","","","","","","","",""
"[{""page_index"":0,""viewing_time"":10677.90000000059},{""page_index"":1,""viewing_time"":9921.829999999318},{""page_index"":2,""viewing_time"":5280.300000000352},{""page_index"":3,""viewing_time"":2705.504999999903},{""page_index"":4,""viewing_time"":983.1649999996589}]","29569.05499999992","instructions","8","127285","0.0-8.0","SS1619739858329","instructions","","","","","","","","","","","","","","","",""
"","null","html-keyboard-response","9","128513","0.0-9.0-0.0","SS1619739858329","","","null","","","","","","<p><img src= images/blank.png width =""600"" height = ""600"" style=""position:fixed;top:50%; left:50%; transform: translate(-50%, -50%); border:5px solid black"">","","","","","","","",""
"","963.5699999998906","sequential-stimulus-presentation-old","10","144479","0.0-9.0-1.0","SS1619739858329","trial","","40","500","1463.5699999998906","images/stimuli/spore_stims/simple_12_A_b.gif","images/stimuli/spore_stims/simple_16_A_a.gif","forced_long","","0","simple_dissimilar","images/stimuli/spore_stims/simple_16_A_a.gif","","","","",""
"","null","html-keyboard-response","11","145346","0.0-9.0-0.1","SS1619739858329","","","null","","","","","","<p><img src= images/blank.png width =""600"" height = ""600"" style=""position:fixed;top:50%; left:50%; transform: translate(-50%, -50%); border:5px solid black"">","","","","","","","",""
"","17451.520000000513","sequential-stimulus-presentation-old","12","163314","0.0-9.0-1.1","SS1619739858329","trial","","40","500","17951.520000000513","images/stimuli/spore_stims/simple_12_A_b.gif","images/stimuli/spore_stims/simple_16_A_a.gif","forced_long","","0","simple_dissimilar","images/stimuli/spore_stims/simple_16_A_a.gif","","","","",""
"","null","html-keyboard-response","13","164291","0.0-9.0-0.2","SS1619739858329","","","null","","","","","","<p><img src= images/blank.png width =""600"" height = ""600"" style=""position:fixed;top:50%; left:50%; transform: translate(-50%, -50%); border:5px solid black"">","","","","","","","",""
"","12887.325000001496","sequential-stimulus-presentation-old","14","177681","0.0-9.0-1.2","SS1619739858329","trial","","40","500","13387.325000001496","images/stimuli/spore_stims/simple_12_A_b.gif","images/stimuli/spore_stims/simple_16_A_a.gif","forced_long","","0","simple_dissimilar","images/stimuli/spore_stims/simple_16_A_a.gif","","","","",""
"","null","html-keyboard-response","15","178523","0.0-9.0-0.3","SS1619739858329","","","null","","","","","","<p><img src= images/blank.png width =""600"" height = ""600"" style=""position:fixed;top:50%; left:50%; transform: translate(-50%, -50%); border:5px solid black"">","","","","","","","",""
"","30643.855000000243","sequential-stimulus-presentation-old","16","209679","0.0-9.0-1.3","SS1619739858329","trial","","40","500","31143.855000000243","images/stimuli/spore_stims/simple_12_A_b.gif","images/stimuli/spore_stims/simple_16_A_a.gif","forced_long","","0","simple_dissimilar","images/stimuli/spore_stims/simple_16_A_a.gif","","","","",""
"","null","html-keyboard-response","17","210574","0.0-9.0-0.4","SS1619739858329","","","null","","","","","","<p><img src= images/blank.png width =""600"" height = ""600"" style=""position:fixed;top:50%; left:50%; transform: translate(-50%, -50%); border:5px solid black"">","","","","","","","",""
"","12346.165000000823","sequential-stimulus-presentation-old","18","223423","0.0-9.0-1.4","SS1619739858329","trial","","40","500","12846.165000000823","images/stimuli/spore_stims/simple_12_A_b.gif","images/stimuli/spore_stims/simple_16_A_a.gif","forced_long","","0","simple_dissimilar","images/stimuli/spore_stims/simple_16_A_a.gif","","","","",""
"","null","html-keyboard-response","19","224402","0.0-9.0-0.5","SS1619739858329","","","null","","","","","","<p><img src= images/blank.png width =""600"" height = ""600"" style=""position:fixed;top:50%; left:50%; transform: translate(-50%, -50%); border:5px solid black"">","","","","","","","",""
"","22845.119999999937","sequential-stimulus-presentation-old","20","247759","0.0-9.0-1.5","SS1619739858329","trial","","40","500","23345.119999999937","images/stimuli/spore_stims/simple_12_A_b.gif","images/stimuli/spore_stims/simple_16_A_a.gif","forced_long","","0","simple_dissimilar","images/stimuli/spore_stims/simple_16_A_a.gif","","","","",""
"","4648.515000000771","survey-multi-choice","21","252410","0.0-10.0","SS1619739858329","math_question","","","","","","","","","","","","{""Q0"":""10""}","[0]","10","",""
"","null","html-keyboard-response","22","253336","0.0-11.0-0.0","SS1619739858329","","","null","","","","","","<p><img src= images/blank.png width =""600"" height = ""600"" style=""position:fixed;top:50%; left:50%; transform: translate(-50%, -50%); border:5px solid black"">","","","","","","","",""
"","2466.6849999994156","sequential-stimulus-presentation-old","23","270807","0.0-11.0-1.0","SS1619739858329","trial","","40","500","2966.6849999994156","images/stimuli/spore_stims/simple_16_A_b.gif","images/stimuli/spore_stims/simple_08_A_a.gif","forced_long","","1","simple_dissimilar","images/stimuli/spore_stims/simple_08_A_a.gif","","","","",""
"","null","html-keyboard-response","24","272053","0.0-11.0-0.1","SS1619739858329","","","null","","","","","","<p><img src= images/blank.png width =""600"" height = ""600"" style=""position:fixed;top:50%; left:50%; transform: translate(-50%, -50%); border:5px solid black"">","","","","","","","",""
"","10209.129999999248","sequential-stimulus-presentation-old","25","282765","0.0-11.0-1.1","SS1619739858329","trial","","40","500","10709.129999999248","images/stimuli/spore_stims/simple_16_A_b.gif","images/stimuli/spore_stims/simple_08_A_a.gif","forced_long","","1","simple_dissimilar","images/stimuli/spore_stims/simple_08_A_a.gif","","","","",""
"","null","html-keyboard-response","26","283908","0.0-11.0-0.2","SS1619739858329","","","null","","","","","","<p><img src= images/blank.png width =""600"" height = ""600"" style=""position:fixed;top:50%; left:50%; transform: translate(-50%, -50%); border:5px solid black"">","","","","","","","",""
"","15699.114999999409","sequential-stimulus-presentation-old","27","300125","0.0-11.0-1.2","SS1619739858329","trial","","40","500","16199.114999999409","images/stimuli/spore_stims/simple_16_A_b.gif","images/stimuli/spore_stims/simple_08_A_a.gif","forced_long","","1","simple_dissimilar","images/stimuli/spore_stims/simple_08_A_a.gif","","","","",""
"","null","html-keyboard-response","28","301273","0.0-11.0-0.3","SS1619739858329","","","null","","","","","","<p><img src= images/blank.png width =""600"" height = ""600"" style=""position:fixed;top:50%; left:50%; transform: translate(-50%, -50%); border:5px solid black"">","","","","","","","",""
"","18720.229999998992","sequential-stimulus-presentation-old","29","320503","0.0-11.0-1.3","SS1619739858329","trial","","40","500","19220.229999998992","images/stimuli/spore_stims/simple_16_A_b.gif","images/stimuli/spore_stims/simple_08_A_a.gif","forced_long","","1","simple_dissimilar","images/stimuli/spore_stims/simple_16_A_b.gif","","","","",""
"","null","html-keyboard-response","30","321737","0.0-11.0-0.4","SS1619739858329","","","null","","","","","","<p><img src= images/blank.png width =""600"" height = ""600"" style=""position:fixed;top:50%; left:50%; transform: translate(-50%, -50%); border:5px solid black"">","","","","","","","",""
"","10289.819999999949","sequential-stimulus-presentation-old","31","332541","0.0-11.0-1.4","SS1619739858329","trial","","40","500","10789.819999999949","images/stimuli/spore_stims/simple_16_A_b.gif","images/stimuli/spore_stims/simple_08_A_a.gif","forced_long","","1","simple_dissimilar","images/stimuli/spore_stims/simple_08_A_a.gif","","","","",""
"","3315.884999999951","survey-multi-choice","32","335859","0.0-12.0","SS1619739858329","math_question","","","","","","","","","","","","{""Q0"":""7""}","[0]","7","",""
"","null","html-keyboard-response","33","336691","0.0-13.0-0.0","SS1619739858329","","","null","","","","","","<p><img src= images/blank.png width =""600"" height = ""600"" style=""position:fixed;top:50%; left:50%; transform: translate(-50%, -50%); border:5px solid black"">","","","","","","","",""
"","10470.369999999064","sequential-stimulus-presentation-old","34","347677","0.0-13.0-1.0","SS1619739858329","trial","","40","500","10970.369999999064","images/stimuli/spore_stims/simple_01_A_b.gif","images/stimuli/spore_stims/simple_15_A_a.gif","self_paced","","2","simple_dissimilar","images/stimuli/spore_stims/simple_15_A_a.gif","","","","",""
"","null","html-keyboard-response","35","348647","0.0-13.0-0.1","SS1619739858329","","","null","","","","","","<p><img src= images/blank.png width =""600"" height = ""600"" style=""position:fixed;top:50%; left:50%; transform: translate(-50%, -50%); border:5px solid black"">","","","","","","","",""
"","5016.185000000405","sequential-stimulus-presentation-old","36","354179","0.0-13.0-1.1","SS1619739858329","trial","","40","500","5516.185000000405","images/stimuli/spore_stims/simple_01_A_b.gif","images/stimuli/spore_stims/simple_15_A_a.gif","self_paced","","2","simple_dissimilar","images/stimuli/spore_stims/simple_01_A_b.gif","","","","",""
"","null","html-keyboard-response","37","355450","0.0-13.0-0.2","SS1619739858329","","","null","","","","","","<p><img src= images/blank.png width =""600"" height = ""600"" style=""position:fixed;top:50%; left:50%; transform: translate(-50%, -50%); border:5px solid black"">","","","","","","","",""
"","17283.154999999155","sequential-stimulus-presentation-old","38","373248","0.0-13.0-1.2","SS1619739858329","trial","","40","500","17783.154999999155","images/stimuli/spore_stims/simple_01_A_b.gif","images/stimuli/spore_stims/simple_15_A_a.gif","self_paced","","2","simple_dissimilar","images/stimuli/spore_stims/simple_15_A_a.gif","","","","",""
"","null","html-keyboard-response","39","374456","0.0-13.0-0.3","SS1619739858329","","","null","","","","","","<p><img src= images/blank.png width =""600"" height = ""600"" style=""position:fixed;top:50%; left:50%; transform: translate(-50%, -50%); border:5px solid black"">","","","","","","","",""
"","11003.639999999024","sequential-stimulus-presentation-old","40","385964","0.0-13.0-1.3","SS1619739858329","trial","","40","500","11503.639999999024","images/stimuli/spore_stims/simple_01_A_b.gif","images/stimuli/spore_stims/simple_15_A_a.gif","self_paced","","2","simple_dissimilar","images/stimuli/spore_stims/simple_15_A_a.gif","","","","",""
"","null","html-keyboard-response","41","386861","0.0-13.0-0.4","SS1619739858329","","","null","","","","","","<p><img src= images/blank.png width =""600"" height = ""600"" style=""position:fixed;top:50%; left:50%; transform: translate(-50%, -50%); border:5px solid black"">","","","","","","","",""
"","5889.329999999958","sequential-stimulus-presentation-old","42","393258","0.0-13.0-1.4","SS1619739858329","trial","","40","500","6389.329999999958","images/stimuli/spore_stims/simple_01_A_b.gif","images/stimuli/spore_stims/simple_15_A_a.gif","self_paced","","2","simple_dissimilar","images/stimuli/spore_stims/simple_01_A_b.gif","","","","",""
"","3533.984999999986","survey-multi-choice","43","396794","0.0-14.0","SS1619739858329","math_question","","","","","","","","","","","","{""Q0"":""4""}","[0]","4","",""
"","null","html-keyboard-response","44","397917","0.0-15.0-0.0","SS1619739858329","","","null","","","","","","<p><img src= images/blank.png width =""600"" height = ""600"" style=""position:fixed;top:50%; left:50%; transform: translate(-50%, -50%); border:5px solid black"">","","","","","","","",""
"","667.8849999989034","sequential-stimulus-presentation-old","45","413590","0.0-15.0-1.0","SS1619739858329","trial","","40","500","1167.8849999989034","images/stimuli/spore_stims/complex_05_A_a.gif","images/stimuli/spore_stims/complex_19_A_b.gif","forced_long","","3","complex_dissimilar","images/stimuli/spore_stims/complex_19_A_b.gif","","","","",""
"","null","html-keyboard-response","46","414552","0.0-15.0-0.1","SS1619739858329","","","null","","","","","","<p><img src= images/blank.png width =""600"" height = ""600"" style=""position:fixed;top:50%; left:50%; transform: translate(-50%, -50%); border:5px solid black"">","","","","","","","",""
"","13488.989999999816","sequential-stimulus-presentation-old","47","428556","0.0-15.0-1.1","SS1619739858329","trial","","40","500","13988.989999999816","images/stimuli/spore_stims/complex_05_A_a.gif","images/stimuli/spore_stims/complex_19_A_b.gif","forced_long","","3","complex_dissimilar","images/stimuli/spore_stims/complex_19_A_b.gif","","","","",""
"","null","html-keyboard-response","48","429581","0.0-15.0-0.2","SS1619739858329","","","null","","","","","","<p><img src= images/blank.png width =""600"" height = ""600"" style=""position:fixed;top:50%; left:50%; transform: translate(-50%, -50%); border:5px solid black"">","","","","","","","",""
"","5068.590000000724","sequential-stimulus-presentation-old","49","435155","0.0-15.0-1.2","SS1619739858329","trial","","40","500","5568.590000000724","images/stimuli/spore_stims/complex_05_A_a.gif","images/stimuli/spore_stims/complex_19_A_b.gif","forced_long","","3","complex_dissimilar","images/stimuli/spore_stims/complex_19_A_b.gif","","","","",""
"","null","html-keyboard-response","50","436386","0.0-15.0-0.3","SS1619739858329","","","null","","","","","","<p><img src= images/blank.png width =""600"" height = ""600"" style=""position:fixed;top:50%; left:50%; transform: translate(-50%, -50%); border:5px solid black"">","","","","","","","",""
"","8814.58999999991","sequential-stimulus-presentation-old","51","445716","0.0-15.0-1.3","SS1619739858329","trial","","40","500","9314.58999999991","images/stimuli/spore_stims/complex_05_A_a.gif","images/stimuli/spore_stims/complex_19_A_b.gif","forced_long","","3","complex_dissimilar","images/stimuli/spore_stims/complex_19_A_b.gif","","","","",""
"","3332.2299999999814","survey-multi-choice","52","449050","0.0-16.0","SS1619739858329","math_question","","","","","","","","","","","","{""Q0"":""7""}","[0]","7","",""
"","null","html-keyboard-response","53","450129","0.0-17.0-0.0","SS1619739858329","","","null","","","","","","<p><img src= images/blank.png width =""600"" height = ""600"" style=""position:fixed;top:50%; left:50%; transform: translate(-50%, -50%); border:5px solid black"">","","","","","","","",""
"","10994.654999998631","sequential-stimulus-presentation-old","54","461627","0.0-17.0-1.0","SS1619739858329","trial","","40","500","11494.654999998631","images/stimuli/spore_stims/complex_07_A_a.gif","images/stimuli/spore_stims/complex_03_A_b.gif","self_paced","","4","complex_dissimilar","images/stimuli/spore_stims/complex_03_A_b.gif","","","","",""
"","null","html-keyboard-response","55","462650","0.0-17.0-0.1","SS1619739858329","","","null","","","","","","<p><img src= images/blank.png width =""600"" height = ""600"" style=""position:fixed;top:50%; left:50%; transform: translate(-50%, -50%); border:5px solid black"">","","","","","","","",""
"","9649.35000000149","sequential-stimulus-presentation-old","56","472812","0.0-17.0-1.1","SS1619739858329","trial","","40","500","10149.35000000149","images/stimuli/spore_stims/complex_07_A_a.gif","images/stimuli/spore_stims/complex_03_A_b.gif","self_paced","","4","complex_dissimilar","images/stimuli/spore_stims/complex_03_A_b.gif","","","","",""
"","null","html-keyboard-response","57","473753","0.0-17.0-0.2","SS1619739858329","","","null","","","","","","<p><img src= images/blank.png width =""600"" height = ""600"" style=""position:fixed;top:50%; left:50%; transform: translate(-50%, -50%); border:5px solid black"">","","","","","","","",""
"","4981.354999999865","sequential-stimulus-presentation-old","58","479249","0.0-17.0-1.2","SS1619739858329","trial","","40","500","5481.354999999865","images/stimuli/spore_stims/complex_07_A_a.gif","images/stimuli/spore_stims/complex_03_A_b.gif","self_paced","","4","complex_dissimilar","images/stimuli/spore_stims/complex_03_A_b.gif","","","","",""
"","null","html-keyboard-response","59","480077","0.0-17.0-0.3","SS1619739858329","","","null","","","","","","<p><img src= images/blank.png width =""600"" height = ""600"" style=""position:fixed;top:50%; left:50%; transform: translate(-50%, -50%); border:5px solid black"">","","","","","","","",""
"","7636.255000001285","sequential-stimulus-presentation-old","60","488229","0.0-17.0-1.3","SS1619739858329","trial","","40","500","8136.255000001285","images/stimuli/spore_stims/complex_07_A_a.gif","images/stimuli/spore_stims/complex_03_A_b.gif","self_paced","","4","complex_dissimilar","images/stimuli/spore_stims/complex_03_A_b.gif","","","","",""
"","null","html-keyboard-response","61","489332","0.0-17.0-0.4","SS1619739858329","","","null","","","","","","<p><img src= images/blank.png width =""600"" height = ""600"" style=""position:fixed;top:50%; left:50%; transform: translate(-50%, -50%); border:5px solid black"">","","","","","","","",""
"","15824.294999998529","sequential-stimulus-presentation-old","62","505659","0.0-17.0-1.4","SS1619739858329","trial","","40","500","16324.294999998529","images/stimuli/spore_stims/complex_07_A_a.gif","images/stimuli/spore_stims/complex_03_A_b.gif","self_paced","","4","complex_dissimilar","images/stimuli/spore_stims/complex_03_A_b.gif","","","","",""
"","null","html-keyboard-response","63","506958","0.0-17.0-0.5","SS1619739858329","","","null","","","","","","<p><img src= images/blank.png width =""600"" height = ""600"" style=""position:fixed;top:50%; left:50%; transform: translate(-50%, -50%); border:5px solid black"">","","","","","","","",""
"","3814.085000000021","sequential-stimulus-presentation-old","64","511287","0.0-17.0-1.5","SS1619739858329","trial","","40","500","4314.085000000021","images/stimuli/spore_stims/complex_07_A_a.gif","images/stimuli/spore_stims/complex_03_A_b.gif","self_paced","","4","complex_dissimilar","images/stimuli/spore_stims/complex_07_A_a.gif","","","","",""
"","3069.4299999995856","survey-multi-choice","65","514358","0.0-18.0","SS1619739858329","math_question","","","","","","","","","","","","{""Q0"":""4""}","[0]","4","",""
"","null","html-keyboard-response","66","515247","0.0-19.0-0.0","SS1619739858329","","","null","","","","","","<p><img src= images/blank.png width =""600"" height = ""600"" style=""position:fixed;top:50%; left:50%; transform: translate(-50%, -50%); border:5px solid black"">","","","","","","","",""
"","464.76999999873806","sequential-stimulus-presentation-old","67","530719","0.0-19.0-1.0","SS1619739858329","trial","","40","500","964.7699999987381","images/stimuli/spore_stims/complex_18_A_a.gif","images/stimuli/spore_stims/complex_07_A_b.gif","forced_long","","5","complex_dissimilar","images/stimuli/spore_stims/complex_07_A_b.gif","","","","",""
"","null","html-keyboard-response","68","531550","0.0-19.0-0.1","SS1619739858329","","","null","","","","","","<p><img src= images/blank.png width =""600"" height = ""600"" style=""position:fixed;top:50%; left:50%; transform: translate(-50%, -50%); border:5px solid black"">","","","","","","","",""
"","9942.274999999441","sequential-stimulus-presentation-old","69","541995","0.0-19.0-1.1","SS1619739858329","trial","","40","500","10442.274999999441","images/stimuli/spore_stims/complex_18_A_a.gif","images/stimuli/spore_stims/complex_07_A_b.gif","forced_long","","5","complex_dissimilar","images/stimuli/spore_stims/complex_07_A_b.gif","","","","",""
"","null","html-keyboard-response","70","543255","0.0-19.0-0.2","SS1619739858329","","","null","","","","","","<p><img src= images/blank.png width =""600"" height = ""600"" style=""position:fixed;top:50%; left:50%; transform: translate(-50%, -50%); border:5px solid black"">","","","","","","","",""
"","7577.359999999404","sequential-stimulus-presentation-old","71","551336","0.0-19.0-1.2","SS1619739858329","trial","","40","500","8077.359999999404","images/stimuli/spore_stims/complex_18_A_a.gif","images/stimuli/spore_stims/complex_07_A_b.gif","forced_long","","5","complex_dissimilar","images/stimuli/spore_stims/complex_07_A_b.gif","","","","",""
"","null","html-keyboard-response","72","552563","0.0-19.0-0.3","SS1619739858329","","","null","","","","","","<p><img src= images/blank.png width =""600"" height = ""600"" style=""position:fixed;top:50%; left:50%; transform: translate(-50%, -50%); border:5px solid black"">","","","","","","","",""
"","15855.579999999492","sequential-stimulus-presentation-old","73","568930","0.0-19.0-1.3","SS1619739858329","trial","","40","500","16355.579999999492","images/stimuli/spore_stims/complex_18_A_a.gif","images/stimuli/spore_stims/complex_07_A_b.gif","forced_long","","5","complex_dissimilar","images/stimuli/spore_stims/complex_07_A_b.gif","","","","",""
"","3107.9300000001676","survey-multi-choice","74","572039","0.0-20.0","SS1619739858329","math_question","","","","","","","","","","","","{""Q0"":""12""}","[0]","12","",""
"","null","html-keyboard-response","75","573266","0.0-21.0-0.0","SS1619739858329","","","null","","","","","","<p><img src= images/blank.png width =""600"" height = ""600"" style=""position:fixed;top:50%; left:50%; transform: translate(-50%, -50%); border:5px solid black"">","","","","","","","",""
"","1397.6600000006147","sequential-stimulus-presentation-old","76","575165","0.0-21.0-1.0","SS1619739858329","trial","","40","500","1897.6600000006147","images/stimuli/spore_stims/complex_08_A_a.gif","images/stimuli/spore_stims/complex_20_A_b.gif","forced_short","","6","complex_dissimilar","images/stimuli/spore_stims/complex_20_A_b.gif","","","","",""
"","null","html-keyboard-response","77","576462","0.0-21.0-0.1","SS1619739858329","","","null","","","","","","<p><img src= images/blank.png width =""600"" height = ""600"" style=""position:fixed;top:50%; left:50%; transform: translate(-50%, -50%); border:5px solid black"">","","","","","","","",""
"","15205.180000000866","sequential-stimulus-presentation-old","78","592170","0.0-21.0-1.1","SS1619739858329","trial","","40","500","15705.180000000866","images/stimuli/spore_stims/complex_08_A_a.gif","images/stimuli/spore_stims/complex_20_A_b.gif","forced_short","","6","complex_dissimilar","images/stimuli/spore_stims/complex_08_A_a.gif","","","","",""
"","null","html-keyboard-response","79","593171","0.0-21.0-0.2","SS1619739858329","","","null","","","","","","<p><img src= images/blank.png width =""600"" height = ""600"" style=""position:fixed;top:50%; left:50%; transform: translate(-50%, -50%); border:5px solid black"">","","","","","","","",""
"","9270.160000000033","sequential-stimulus-presentation-old","80","602943","0.0-21.0-1.2","SS1619739858329","trial","","40","500","9770.160000000033","images/stimuli/spore_stims/complex_08_A_a.gif","images/stimuli/spore_stims/complex_20_A_b.gif","forced_short","","6","complex_dissimilar","images/stimuli/spore_stims/complex_20_A_b.gif","","","","",""
"","null","html-keyboard-response","81","604005","0.0-21.0-0.3","SS1619739858329","","","null","","","","","","<p><img src= images/blank.png width =""600"" height = ""600"" style=""position:fixed;top:50%; left:50%; transform: translate(-50%, -50%); border:5px solid black"">","","","","","","","",""
"","3825.7850000008475","sequential-stimulus-presentation-old","82","608334","0.0-21.0-1.3","SS1619739858329","trial","","40","500","4325.7850000008475","images/stimuli/spore_stims/complex_08_A_a.gif","images/stimuli/spore_stims/complex_20_A_b.gif","forced_short","","6","complex_dissimilar","images/stimuli/spore_stims/complex_20_A_b.gif","","","","",""
"","null","html-keyboard-response","83","609551","0.0-21.0-0.4","SS1619739858329","","","null","","","","","","<p><img src= images/blank.png width =""600"" height = ""600"" style=""position:fixed;top:50%; left:50%; transform: translate(-50%, -50%); border:5px solid black"">","","","","","","","",""
"","5374.845000000321","sequential-stimulus-presentation-old","84","615429","0.0-21.0-1.4","SS1619739858329","trial","","40","500","5874.845000000321","images/stimuli/spore_stims/complex_08_A_a.gif","images/stimuli/spore_stims/complex_20_A_b.gif","forced_short","","6","complex_dissimilar","images/stimuli/spore_stims/complex_20_A_b.gif","","","","",""
"","null","html-keyboard-response","85","616304","0.0-21.0-0.5","SS1619739858329","","","null","","","","","","<p><img src= images/blank.png width =""600"" height = ""600"" style=""position:fixed;top:50%; left:50%; transform: translate(-50%, -50%); border:5px solid black"">","","","","","","","",""
"","13940.810000000056","sequential-stimulus-presentation-old","86","630748","0.0-21.0-1.5","SS1619739858329","trial","","40","500","14440.810000000056","images/stimuli/spore_stims/complex_08_A_a.gif","images/stimuli/spore_stims/complex_20_A_b.gif","forced_short","","6","complex_dissimilar","images/stimuli/spore_stims/complex_20_A_b.gif","","","","",""
"","4240.069999999832","survey-multi-choice","87","634990","0.0-22.0","SS1619739858329","math_question","","","","","","","","","","","","{""Q0"":""15""}","[0]","15","",""
"","null","html-keyboard-response","88","636096","0.0-23.0-0.0","SS1619739858329","","","null","","","","","","<p><img src= images/blank.png width =""600"" height = ""600"" style=""position:fixed;top:50%; left:50%; transform: translate(-50%, -50%); border:5px solid black"">","","","","","","","",""
"","11195.14499999967","sequential-stimulus-presentation-old","89","647794","0.0-23.0-1.0","SS1619739858329","trial","","40","500","11695.14499999967","images/stimuli/spore_stims/simple_07_A_b.gif","images/stimuli/spore_stims/simple_05_A_a.gif","self_paced","","7","simple_dissimilar","images/stimuli/spore_stims/simple_05_A_a.gif","","","","",""
"","null","html-keyboard-response","90","648676","0.0-23.0-0.1","SS1619739858329","","","null","","","","","","<p><img src= images/blank.png width =""600"" height = ""600"" style=""position:fixed;top:50%; left:50%; transform: translate(-50%, -50%); border:5px solid black"">","","","","","","","",""
"","6636.635000000708","sequential-stimulus-presentation-old","91","655828","0.0-23.0-1.1","SS1619739858329","trial","","40","500","7136.635000000708","images/stimuli/spore_stims/simple_07_A_b.gif","images/stimuli/spore_stims/simple_05_A_a.gif","self_paced","","7","simple_dissimilar","images/stimuli/spore_stims/simple_07_A_b.gif","","","","",""
"","null","html-keyboard-response","92","656818","0.0-23.0-0.2","SS1619739858329","","","null","","","","","","<p><img src= images/blank.png width =""600"" height = ""600"" style=""position:fixed;top:50%; left:50%; transform: translate(-50%, -50%); border:5px solid black"">","","","","","","","",""
"","5675.005000000936","sequential-stimulus-presentation-old","93","662996","0.0-23.0-1.2","SS1619739858329","trial","","40","500","6175.005000000936","images/stimuli/spore_stims/simple_07_A_b.gif","images/stimuli/spore_stims/simple_05_A_a.gif","self_paced","","7","simple_dissimilar","images/stimuli/spore_stims/simple_05_A_a.gif","","","","",""
"","null","html-keyboard-response","94","664038","0.0-23.0-0.3","SS1619739858329","","","null","","","","","","<p><img src= images/blank.png width =""600"" height = ""600"" style=""position:fixed;top:50%; left:50%; transform: translate(-50%, -50%); border:5px solid black"">","","","","","","","",""
"","5029.590000000084","sequential-stimulus-presentation-old","95","669571","0.0-23.0-1.3","SS1619739858329","trial","","40","500","5529.590000000084","images/stimuli/spore_stims/simple_07_A_b.gif","images/stimuli/spore_stims/simple_05_A_a.gif","self_paced","","7","simple_dissimilar","images/stimuli/spore_stims/simple_05_A_a.gif","","","","",""
"","3289.220000000554","survey-multi-choice","96","672862","0.0-24.0","SS1619739858329","math_question","","","","","","","","","","","","{""Q0"":""9""}","[0]","9","",""
"","null","html-keyboard-response","97","673925","0.0-25.0-0.0","SS1619739858329","","","null","","","","","","<p><img src= images/blank.png width =""600"" height = ""600"" style=""position:fixed;top:50%; left:50%; transform: translate(-50%, -50%); border:5px solid black"">","","","","","","","",""
"","334.010000000475","sequential-stimulus-presentation-old","98","674774","0.0-25.0-1.0","SS1619739858329","trial","","40","500","834.010000000475","images/stimuli/spore_stims/complex_09_A_a.gif","images/stimuli/spore_stims/complex_16_A_b.gif","forced_short","","8","complex_dissimilar","images/stimuli/spore_stims/complex_16_A_b.gif","","","","",""
"","null","html-keyboard-response","99","675957","0.0-25.0-0.1","SS1619739858329","","","null","","","","","","<p><img src= images/blank.png width =""600"" height = ""600"" style=""position:fixed;top:50%; left:50%; transform: translate(-50%, -50%); border:5px solid black"">","","","","","","","",""
"","6132.305000000983","sequential-stimulus-presentation-old","100","682592","0.0-25.0-1.1","SS1619739858329","trial","","40","500","6632.305000000983","images/stimuli/spore_stims/complex_09_A_a.gif","images/stimuli/spore_stims/complex_16_A_b.gif","forced_short","","8","complex_dissimilar","images/stimuli/spore_stims/complex_16_A_b.gif","","","","",""
"","null","html-keyboard-response","101","683489","0.0-25.0-0.2","SS1619739858329","","","null","","","","","","<p><img src= images/blank.png width =""600"" height = ""600"" style=""position:fixed;top:50%; left:50%; transform: translate(-50%, -50%); border:5px solid black"">","","","","","","","",""
"","13608.505000000121","sequential-stimulus-presentation-old","102","697600","0.0-25.0-1.2","SS1619739858329","trial","","40","500","14108.505000000121","images/stimuli/spore_stims/complex_09_A_a.gif","images/stimuli/spore_stims/complex_16_A_b.gif","forced_short","","8","complex_dissimilar","images/stimuli/spore_stims/complex_09_A_a.gif","","","","",""
"","null","html-keyboard-response","103","698657","0.0-25.0-0.3","SS1619739858329","","","null","","","","","","<p><img src= images/blank.png width =""600"" height = ""600"" style=""position:fixed;top:50%; left:50%; transform: translate(-50%, -50%); border:5px solid black"">","","","","","","","",""
"","5700.51500000048","sequential-stimulus-presentation-old","104","704862","0.0-25.0-1.3","SS1619739858329","trial","","40","500","6200.51500000048","images/stimuli/spore_stims/complex_09_A_a.gif","images/stimuli/spore_stims/complex_16_A_b.gif","forced_short","","8","complex_dissimilar","images/stimuli/spore_stims/complex_16_A_b.gif","","","","",""
"","null","html-keyboard-response","105","706175","0.0-25.0-0.4","SS1619739858329","","","null","","","","","","<p><img src= images/blank.png width =""600"" height = ""600"" style=""position:fixed;top:50%; left:50%; transform: translate(-50%, -50%); border:5px solid black"">","","","","","","","",""
"","6567.549999999814","sequential-stimulus-presentation-old","106","713246","0.0-25.0-1.4","SS1619739858329","trial","","40","500","7067.549999999814","images/stimuli/spore_stims/complex_09_A_a.gif","images/stimuli/spore_stims/complex_16_A_b.gif","forced_short","","8","complex_dissimilar","images/stimuli/spore_stims/complex_16_A_b.gif","","","","",""
"","null","html-keyboard-response","107","714536","0.0-25.0-0.5","SS1619739858329","","","null","","","","","","<p><img src= images/blank.png width =""600"" height = ""600"" style=""position:fixed;top:50%; left:50%; transform: translate(-50%, -50%); border:5px solid black"">","","","","","","","",""
"","6398.195000001579","sequential-stimulus-presentation-old","108","721447","0.0-25.0-1.5","SS1619739858329","trial","","40","500","6898.195000001579","images/stimuli/spore_stims/complex_09_A_a.gif","images/stimuli/spore_stims/complex_16_A_b.gif","forced_short","","8","complex_dissimilar","images/stimuli/spore_stims/complex_09_A_a.gif","","","","",""
"","3238.6599999991013","survey-multi-choice","109","724687","0.0-26.0","SS1619739858329","math_question","","","","","","","","","","","","{""Q0"":""13""}","[0]","13","",""
"","null","html-keyboard-response","110","725746","0.0-27.0-0.0","SS1619739858329","","","null","","","","","","<p><img src= images/blank.png width =""600"" height = ""600"" style=""position:fixed;top:50%; left:50%; transform: translate(-50%, -50%); border:5px solid black"">","","","","","","","",""
"","4666.880000000587","sequential-stimulus-presentation-old","111","730931","0.0-27.0-1.0","SS1619739858329","trial","","40","500","5166.880000000587","images/stimuli/spore_stims/complex_01_A_b.gif","images/stimuli/spore_stims/complex_06_A_a.gif","self_paced","","9","complex_dissimilar","images/stimuli/spore_stims/complex_06_A_a.gif","","","","",""
"","null","html-keyboard-response","112","731968","0.0-27.0-0.1","SS1619739858329","","","null","","","","","","<p><img src= images/blank.png width =""600"" height = ""600"" style=""position:fixed;top:50%; left:50%; transform: translate(-50%, -50%); border:5px solid black"">","","","","","","","",""
"","12246.084999998799","sequential-stimulus-presentation-old","113","744729","0.0-27.0-1.1","SS1619739858329","trial","","40","500","12746.084999998799","images/stimuli/spore_stims/complex_01_A_b.gif","images/stimuli/spore_stims/complex_06_A_a.gif","self_paced","","9","complex_dissimilar","images/stimuli/spore_stims/complex_06_A_a.gif","","","","",""
"","null","html-keyboard-response","114","745674","0.0-27.0-0.2","SS1619739858329","","","null","","","","","","<p><img src= images/blank.png width =""600"" height = ""600"" style=""position:fixed;top:50%; left:50%; transform: translate(-50%, -50%); border:5px solid black"">","","","","","","","",""
"","4715.374999999767","sequential-stimulus-presentation-old","115","750905","0.0-27.0-1.2","SS1619739858329","trial","","40","500","5215.374999999767","images/stimuli/spore_stims/complex_01_A_b.gif","images/stimuli/spore_stims/complex_06_A_a.gif","self_paced","","9","complex_dissimilar","images/stimuli/spore_stims/complex_06_A_a.gif","","","","",""
"","null","html-keyboard-response","116","751899","0.0-27.0-0.3","SS1619739858329","","","null","","","","","","<p><img src= images/blank.png width =""600"" height = ""600"" style=""position:fixed;top:50%; left:50%; transform: translate(-50%, -50%); border:5px solid black"">","","","","","","","",""
"","13788.594999999972","sequential-stimulus-presentation-old","117","766191","0.0-27.0-1.3","SS1619739858329","trial","","40","500","14288.594999999972","images/stimuli/spore_stims/complex_01_A_b.gif","images/stimuli/spore_stims/complex_06_A_a.gif","self_paced","","9","complex_dissimilar","images/stimuli/spore_stims/complex_06_A_a.gif","","","","",""
"","null","html-keyboard-response","118","767217","0.0-27.0-0.4","SS1619739858329","","","null","","","","","","<p><img src= images/blank.png width =""600"" height = ""600"" style=""position:fixed;top:50%; left:50%; transform: translate(-50%, -50%); border:5px solid black"">","","","","","","","",""
"","5660.890000000945","sequential-stimulus-presentation-old","119","773394","0.0-27.0-1.4","SS1619739858329","trial","","40","500","6160.890000000945","images/stimuli/spore_stims/complex_01_A_b.gif","images/stimuli/spore_stims/complex_06_A_a.gif","self_paced","","9","complex_dissimilar","images/stimuli/spore_stims/complex_06_A_a.gif","","","","",""
"","3157.279999999446","survey-multi-choice","120","776553","0.0-28.0","SS1619739858329","math_question","","","","","","","","","","","","{""Q0"":""9""}","[0]","9","",""
"","null","html-keyboard-response","121","777810","0.0-29.0-0.0","SS1619739858329","","","null","","","","","","<p><img src= images/blank.png width =""600"" height = ""600"" style=""position:fixed;top:50%; left:50%; transform: translate(-50%, -50%); border:5px solid black"">","","","","","","","",""
"","878.229999998468","sequential-stimulus-presentation-old","122","779204","0.0-29.0-1.0","SS1619739858329","trial","","40","500","1378.229999998468","images/stimuli/spore_stims/simple_14_A_b.gif","images/stimuli/spore_stims/simple_06_A_a.gif","forced_short","","10","simple_dissimilar","images/stimuli/spore_stims/simple_06_A_a.gif","","","","",""
"","null","html-keyboard-response","123","780136","0.0-29.0-0.1","SS1619739858329","","","null","","","","","","<p><img src= images/blank.png width =""600"" height = ""600"" style=""position:fixed;top:50%; left:50%; transform: translate(-50%, -50%); border:5px solid black"">","","","","","","","",""
"","8287.84500000067","sequential-stimulus-presentation-old","124","788930","0.0-29.0-1.1","SS1619739858329","trial","","40","500","8787.84500000067","images/stimuli/spore_stims/simple_14_A_b.gif","images/stimuli/spore_stims/simple_06_A_a.gif","forced_short","","10","simple_dissimilar","images/stimuli/spore_stims/simple_14_A_b.gif","","","","",""
"","null","html-keyboard-response","125","790174","0.0-29.0-0.2","SS1619739858329","","","null","","","","","","<p><img src= images/blank.png width =""600"" height = ""600"" style=""position:fixed;top:50%; left:50%; transform: translate(-50%, -50%); border:5px solid black"">","","","","","","","",""
"","12563.490000000456","sequential-stimulus-presentation-old","126","803252","0.0-29.0-1.2","SS1619739858329","trial","","40","500","13063.490000000456","images/stimuli/spore_stims/simple_14_A_b.gif","images/stimuli/spore_stims/simple_06_A_a.gif","forced_short","","10","simple_dissimilar","images/stimuli/spore_stims/simple_06_A_a.gif","","","","",""
"","null","html-keyboard-response","127","804225","0.0-29.0-0.3","SS1619739858329","","","null","","","","","","<p><img src= images/blank.png width =""600"" height = ""600"" style=""position:fixed;top:50%; left:50%; transform: translate(-50%, -50%); border:5px solid black"">","","","","","","","",""
"","4643.439999999828","sequential-stimulus-presentation-old","128","809371","0.0-29.0-1.3","SS1619739858329","trial","","40","500","5143.439999999828","images/stimuli/spore_stims/simple_14_A_b.gif","images/stimuli/spore_stims/simple_06_A_a.gif","forced_short","","10","simple_dissimilar","images/stimuli/spore_stims/simple_06_A_a.gif","","","","",""
"","null","html-keyboard-response","129","810232","0.0-29.0-0.4","SS1619739858329","","","null","","","","","","<p><img src= images/blank.png width =""600"" height = ""600"" style=""position:fixed;top:50%; left:50%; transform: translate(-50%, -50%); border:5px solid black"">","","","","","","","",""
"","4849.614999999176","sequential-stimulus-presentation-old","130","815596","0.0-29.0-1.4","SS1619739858329","trial","","40","500","5349.614999999176","images/stimuli/spore_stims/simple_14_A_b.gif","images/stimuli/spore_stims/simple_06_A_a.gif","forced_short","","10","simple_dissimilar","images/stimuli/spore_stims/simple_06_A_a.gif","","","","",""
"","3516.400000000489","survey-multi-choice","131","819115","0.0-30.0","SS1619739858329","math_question","","","","","","","","","","","","{""Q0"":""15""}","[0]","15","",""
"","null","html-keyboard-response","132","820342","0.0-31.0-0.0","SS1619739858329","","","null","","","","","","<p><img src= images/blank.png width =""600"" height = ""600"" style=""position:fixed;top:50%; left:50%; transform: translate(-50%, -50%); border:5px solid black"">","","","","","","","",""
"","3710.5200000004843","sequential-stimulus-presentation-old","133","824557","0.0-31.0-1.0","SS1619739858329","trial","","40","500","4210.520000000484","images/stimuli/spore_stims/simple_09_A_b.gif","images/stimuli/spore_stims/simple_03_A_a.gif","forced_short","","11","simple_dissimilar","images/stimuli/spore_stims/simple_03_A_a.gif","","","","",""
"","null","html-keyboard-response","134","825722","0.0-31.0-0.1","SS1619739858329","","","null","","","","","","<p><img src= images/blank.png width =""600"" height = ""600"" style=""position:fixed;top:50%; left:50%; transform: translate(-50%, -50%); border:5px solid black"">","","","","","","","",""
"","4488.525000000605","sequential-stimulus-presentation-old","135","830713","0.0-31.0-1.1","SS1619739858329","trial","","40","500","4988.525000000605","images/stimuli/spore_stims/simple_09_A_b.gif","images/stimuli/spore_stims/simple_03_A_a.gif","forced_short","","11","simple_dissimilar","images/stimuli/spore_stims/simple_09_A_b.gif","","","","",""
"","null","html-keyboard-response","136","831568","0.0-31.0-0.2","SS1619739858329","","","null","","","","","","<p><img src= images/blank.png width =""600"" height = ""600"" style=""position:fixed;top:50%; left:50%; transform: translate(-50%, -50%); border:5px solid black"">","","","","","","","",""
"","5452.794999999227","sequential-stimulus-presentation-old","137","837524","0.0-31.0-1.2","SS1619739858329","trial","","40","500","5952.794999999227","images/stimuli/spore_stims/simple_09_A_b.gif","images/stimuli/spore_stims/simple_03_A_a.gif","forced_short","","11","simple_dissimilar","images/stimuli/spore_stims/simple_03_A_a.gif","","","","",""
"","null","html-keyboard-response","138","838744","0.0-31.0-0.3","SS1619739858329","","","null","","","","","","<p><img src= images/blank.png width =""600"" height = ""600"" style=""position:fixed;top:50%; left:50%; transform: translate(-50%, -50%); border:5px solid black"">","","","","","","","",""
"","3454.1499999995576","sequential-stimulus-presentation-old","139","842709","0.0-31.0-1.3","SS1619739858329","trial","","40","500","3954.1499999995576","images/stimuli/spore_stims/simple_09_A_b.gif","images/stimuli/spore_stims/simple_03_A_a.gif","forced_short","","11","simple_dissimilar","images/stimuli/spore_stims/simple_03_A_a.gif","","","","",""
"[{""page_index"":0,""viewing_time"":4448.800000000163}]","4449.059999999008","instructions","140","847160","0.0-32.0","SS1619739858329","instructions","","","","","","","","","","","","","","","",""
"","6270.7449999997625","survey-likert","141","853434","0.0-33.0","SS1619739858329","similarity_question","","","","","","","","","","","","{""Q0"":1}","[0]","","images/stimuli/spore_stims/complex_19_A_b.gif","images/stimuli/spore_stims/complex_05_A_a.gif"
"","5501.6250000006985","survey-likert","142","858939","0.0-34.0","SS1619739858329","similarity_question","","","","","","","","","","","","{""Q0"":1}","[0]","","images/stimuli/spore_stims/complex_01_A_b.gif","images/stimuli/spore_stims/complex_06_A_a.gif"
"","5464.535000000964","survey-likert","143","864408","0.0-35.0","SS1619739858329","similarity_question","","","","","","","","","","","","{""Q0"":3}","[0]","","images/stimuli/spore_stims/complex_08_A_a.gif","images/stimuli/spore_stims/complex_20_A_b.gif"
"","4505.490000001388","survey-likert","144","868917","0.0-36.0","SS1619739858329","similarity_question","","","","","","","","","","","","{""Q0"":0}","[0]","","images/stimuli/spore_stims/complex_07_A_b.gif","images/stimuli/spore_stims/complex_18_A_a.gif"
"","6408.3349999982165","survey-likert","145","875329","0.0-37.0","SS1619739858329","similarity_question","","","","","","","","","","","","{""Q0"":4}","[0]","","images/stimuli/spore_stims/simple_03_A_a.gif","images/stimuli/spore_stims/simple_09_A_b.gif"
"","4545.869999999995","survey-likert","146","879878","0.0-38.0","SS1619739858329","similarity_question","","","","","","","","","","","","{""Q0"":3}","[0]","","images/stimuli/spore_stims/simple_01_A_b.gif","images/stimuli/spore_stims/simple_15_A_a.gif"
"","4391.17000000074","survey-likert","147","884272","0.0-39.0","SS1619739858329","similarity_question","","","","","","","","","","","","{""Q0"":4}","[0]","","images/stimuli/spore_stims/simple_12_A_b.gif","images/stimuli/spore_stims/simple_16_A_a.gif"
"","4621.9049999999115","survey-likert","148","888898","0.0-40.0","SS1619739858329","similarity_question","","","","","","","","","","","","{""Q0"":4}","[0]","","images/stimuli/spore_stims/complex_07_A_a.gif","images/stimuli/spore_stims/complex_03_A_b.gif"
"","3262.305000000284","survey-likert","149","892163","0.0-41.0","SS1619739858329","similarity_question","","","","","","","","","","","","{""Q0"":5}","[0]","","images/stimuli/spore_stims/simple_14_A_b.gif","images/stimuli/spore_stims/simple_06_A_a.gif"
"","3926.474999998347","survey-likert","150","896092","0.0-42.0","SS1619739858329","similarity_question","","","","","","","","","","","","{""Q0"":3}","[0]","","images/stimuli/spore_stims/simple_05_A_a.gif","images/stimuli/spore_stims/simple_07_A_b.gif"
"","4421.295000000158","survey-likert","151","900517","0.0-43.0","SS1619739858329","similarity_question","","","","","","","","","","","","{""Q0"":1}","[0]","","images/stimuli/spore_stims/complex_09_A_a.gif","images/stimuli/spore_stims/complex_16_A_b.gif"
"","5057.480000001378","survey-likert","152","905579","0.0-44.0","SS1619739858329","similarity_question","","","","","","","","","","","","{""Q0"":4}","[0]","","images/stimuli/spore_stims/simple_16_A_b.gif","images/stimuli/spore_stims/simple_08_A_a.gif"
"[{""page_index"":0,""viewing_time"":3171.47999999905}]","3171.8650000002235","instructions","153","908753","0.0-45.0","SS1619739858329","instructions","","","","","","","","","","","","","","","",""
"","4515.750000000466","survey-likert","154","913272","0.0-46.0","SS1619739858329","","","","","","","","","images/stimuli/spore_stims/simple_15_A_a.gif","","","","{""Q0"":0}","[0]","","",""
"","5238.924999999581","survey-likert","155","918515","0.0-47.0","SS1619739858329","","","","","","","","","images/stimuli/spore_stims/simple_07_A_b.gif","","","","{""Q0"":0}","[0]","","",""
"","5375.3699999997625","survey-likert","156","923894","0.0-48.0","SS1619739858329","","","","","","","","","images/stimuli/spore_stims/complex_07_A_b.gif","","","","{""Q0"":4}","[0]","","",""
"","3262.1199999994133","survey-likert","157","927159","0.0-49.0","SS1619739858329","","","","","","","","","images/stimuli/spore_stims/simple_09_A_b.gif","","","","{""Q0"":1}","[0]","","",""
"","2854.4000000001397","survey-likert","158","930017","0.0-50.0","SS1619739858329","","","","","","","","","images/stimuli/spore_stims/simple_16_A_b.gif","","","","{""Q0"":1}","[0]","","",""
"","6922.875000000233","survey-likert","159","936944","0.0-51.0","SS1619739858329","","","","","","","","","images/stimuli/spore_stims/complex_07_A_a.gif","","","","{""Q0"":4}","[0]","","",""
"","3365.720000001602","survey-likert","160","940312","0.0-52.0","SS1619739858329","","","","","","","","","images/stimuli/spore_stims/complex_19_A_b.gif","","","","{""Q0"":3}","[0]","","",""
"","5474.574999998324","survey-likert","161","945790","0.0-53.0","SS1619739858329","","","","","","","","","images/stimuli/spore_stims/simple_14_A_b.gif","","","","{""Q0"":0}","[0]","","",""
"","6023.274999999558","survey-likert","162","951817","0.0-54.0","SS1619739858329","","","","","","","","","images/stimuli/spore_stims/complex_20_A_b.gif","","","","{""Q0"":4}","[0]","","",""
"","5813.825000001001","survey-likert","163","957634","0.0-55.0","SS1619739858329","","","","","","","","","images/stimuli/spore_stims/complex_06_A_a.gif","","","","{""Q0"":4}","[0]","","",""
"","3560.844999999972","survey-likert","164","961198","0.0-56.0","SS1619739858329","","","","","","","","","images/stimuli/spore_stims/simple_16_A_a.gif","","","","{""Q0"":1}","[0]","","",""
"","3915.544999999809","survey-likert","165","965117","0.0-57.0","SS1619739858329","","","","","","","","","images/stimuli/spore_stims/complex_09_A_a.gif","","","","{""Q0"":5}","[0]","","",""
"[{""page_index"":0,""viewing_time"":1585.1350000011735}]","1585.3500000011409","instructions","166","966705","0.0-58.0","SS1619739858329","instructions","","","","","","","","","","","","","","","",""
"","3110.794999998645","demog-age","167","969820","0.0-59.0","SS1619739858329","","","","","","","","","","","","","{""age"":""19""}","","","",""
"","6250.595000001369","demog-ethnic-US","168","976075","0.0-60.0","SS1619739858329","","","","","","","","","","","","","{""ethnicity"":[""White""]}","[0]","","",""
"","11072.539999999106","demog-gender-and-education","169","987153","0.0-61.0","SS1619739858329","","","","","","","","","","","","","{""gender"":""Male"",""education"":""High school diploma""}","[0,1]","","",""
"","16071.690000000643","survey-text","170","1003229","0.0-62.0","SS1619739858329","feedback","","","","","","","","","","","","{""Q0"":""no, everything worked great""}","","","",""
"[{""page_index"":0,""viewing_time"":1601.3999999995576}]","1601.6300000010524","instructions","171","1004834","0.0-63.0","SS1619739858329","instructions","","","","","","","","","","","","","","","",""
