"view_history","rt","trial_type","trial_index","time_elapsed","internal_node_id","subject","stimulus_type","trial_stimulus","key_press","minimum_viewing_duration","trial_looking_time","block_deviant","block_background","exposure_type","stimulus","block_number","block_type","stimulus_displayed","responses","question_order","math_correct_answer","stimulus_left","stimulus_right"
"[{""page_index"":0,""viewing_time"":21001}]","21001","instructions","0","21006","0.0-0.0","SS1619739740824","","","","","","","","","","","","","","","","",""
"[{""page_index"":0,""viewing_time"":21656},{""page_index"":1,""viewing_time"":7912}]","29568","instructions","1","52590","0.0-1.0","SS1619739740824","instructions","","","","","","","","","","","","","","","",""
"","8231","sequential-stimulus-presentation-old","2","61340","0.0-2.0","SS1619739740824","","","40","500","8731","null","null","self_paced","","","","","","","","",""
"","3441","sequential-stimulus-presentation-old","3","65302","0.0-3.0","SS1619739740824","","","40","500","3941","null","null","self_paced","","","","","","","","",""
"[{""page_index"":0,""viewing_time"":34147}]","34148","instructions","4","99453","0.0-4.0","SS1619739740824","instructions","","","","","","","","","","","","","","","",""
"","1050","sequential-stimulus-presentation-old","5","115518","0.0-5.0","SS1619739740824","","","40","500","1550","null","null","forced_long","","","","","","","","",""
"","3653","sequential-stimulus-presentation-old","6","119680","0.0-6.0","SS1619739740824","","","40","500","4153","null","null","forced_long","","","","","","","","",""
"[{""page_index"":0,""viewing_time"":3705}]","3706","instructions","7","123389","0.0-7.0","SS1619739740824","instructions","","","","","","","","","","","","","","","",""
"[{""page_index"":0,""viewing_time"":12973},{""page_index"":1,""viewing_time"":14472},{""page_index"":2,""viewing_time"":14176},{""page_index"":3,""viewing_time"":1201},{""page_index"":4,""viewing_time"":1063}]","43885","instructions","8","167278","0.0-8.0","SS1619739740824","instructions","","","","","","","","","","","","","","","",""
"","null","html-keyboard-response","9","168157","0.0-9.0-0.0","SS1619739740824","","","null","","","","","","<p><img src= images/blank.png width =""600"" height = ""600"" style=""position:fixed;top:50%; left:50%; transform: translate(-50%, -50%); border:5px solid black"">","","","","","","","",""
"","1823","sequential-stimulus-presentation-old","10","170489","0.0-9.0-1.0","SS1619739740824","trial","","40","500","2323","images/stimuli/spore_stims/complex_08_A_a.gif","images/stimuli/spore_stims/complex_14_A_b.gif","forced_short","","0","complex_dissimilar","images/stimuli/spore_stims/complex_14_A_b.gif","","","","",""
"","null","html-keyboard-response","11","171398","0.0-9.0-0.1","SS1619739740824","","","null","","","","","","<p><img src= images/blank.png width =""600"" height = ""600"" style=""position:fixed;top:50%; left:50%; transform: translate(-50%, -50%); border:5px solid black"">","","","","","","","",""
"","44000","sequential-stimulus-presentation-old","12","215906","0.0-9.0-1.1","SS1619739740824","trial","","40","500","44500","images/stimuli/spore_stims/complex_08_A_a.gif","images/stimuli/spore_stims/complex_14_A_b.gif","forced_short","","0","complex_dissimilar","images/stimuli/spore_stims/complex_14_A_b.gif","","","","",""
"","null","html-keyboard-response","13","216966","0.0-9.0-0.2","SS1619739740824","","","null","","","","","","<p><img src= images/blank.png width =""600"" height = ""600"" style=""position:fixed;top:50%; left:50%; transform: translate(-50%, -50%); border:5px solid black"">","","","","","","","",""
"","67707","sequential-stimulus-presentation-old","14","285183","0.0-9.0-1.2","SS1619739740824","trial","","40","500","68207","images/stimuli/spore_stims/complex_08_A_a.gif","images/stimuli/spore_stims/complex_14_A_b.gif","forced_short","","0","complex_dissimilar","images/stimuli/spore_stims/complex_14_A_b.gif","","","","",""
"","null","html-keyboard-response","15","286126","0.0-9.0-0.3","SS1619739740824","","","null","","","","","","<p><img src= images/blank.png width =""600"" height = ""600"" style=""position:fixed;top:50%; left:50%; transform: translate(-50%, -50%); border:5px solid black"">","","","","","","","",""
"","6027","sequential-stimulus-presentation-old","16","292662","0.0-9.0-1.3","SS1619739740824","trial","","40","500","6527","images/stimuli/spore_stims/complex_08_A_a.gif","images/stimuli/spore_stims/complex_14_A_b.gif","forced_short","","0","complex_dissimilar","images/stimuli/spore_stims/complex_14_A_b.gif","","","","",""
"","null","html-keyboard-response","17","293935","0.0-9.0-0.4","SS1619739740824","","","null","","","","","","<p><img src= images/blank.png width =""600"" height = ""600"" style=""position:fixed;top:50%; left:50%; transform: translate(-50%, -50%); border:5px solid black"">","","","","","","","",""
"","17471","sequential-stimulus-presentation-old","18","311916","0.0-9.0-1.4","SS1619739740824","trial","","40","500","17971","images/stimuli/spore_stims/complex_08_A_a.gif","images/stimuli/spore_stims/complex_14_A_b.gif","forced_short","","0","complex_dissimilar","images/stimuli/spore_stims/complex_14_A_b.gif","","","","",""
"","null","html-keyboard-response","19","312935","0.0-9.0-0.5","SS1619739740824","","","null","","","","","","<p><img src= images/blank.png width =""600"" height = ""600"" style=""position:fixed;top:50%; left:50%; transform: translate(-50%, -50%); border:5px solid black"">","","","","","","","",""
"","34650","sequential-stimulus-presentation-old","20","348095","0.0-9.0-1.5","SS1619739740824","trial","","40","500","35150","images/stimuli/spore_stims/complex_08_A_a.gif","images/stimuli/spore_stims/complex_14_A_b.gif","forced_short","","0","complex_dissimilar","images/stimuli/spore_stims/complex_08_A_a.gif","","","","",""
"","4106","survey-multi-choice","21","352208","0.0-10.0","SS1619739740824","math_question","","","","","","","","","","","","{""Q0"":""12""}","[0]","12","",""
"","null","html-keyboard-response","22","353336","0.0-11.0-0.0","SS1619739740824","","","null","","","","","","<p><img src= images/blank.png width =""600"" height = ""600"" style=""position:fixed;top:50%; left:50%; transform: translate(-50%, -50%); border:5px solid black"">","","","","","","","",""
"","48106","sequential-stimulus-presentation-old","23","401951","0.0-11.0-1.0","SS1619739740824","trial","","40","500","48606","images/stimuli/spore_stims/complex_17_A_a.gif","images/stimuli/spore_stims/complex_02_A_b.gif","self_paced","","1","complex_dissimilar","images/stimuli/spore_stims/complex_02_A_b.gif","","","","",""
"","null","html-keyboard-response","24","403145","0.0-11.0-0.1","SS1619739740824","","","null","","","","","","<p><img src= images/blank.png width =""600"" height = ""600"" style=""position:fixed;top:50%; left:50%; transform: translate(-50%, -50%); border:5px solid black"">","","","","","","","",""
"","43158","sequential-stimulus-presentation-old","25","446813","0.0-11.0-1.1","SS1619739740824","trial","","40","500","43658","images/stimuli/spore_stims/complex_17_A_a.gif","images/stimuli/spore_stims/complex_02_A_b.gif","self_paced","","1","complex_dissimilar","images/stimuli/spore_stims/complex_17_A_a.gif","","","","",""
"","null","html-keyboard-response","26","448084","0.0-11.0-0.2","SS1619739740824","","","null","","","","","","<p><img src= images/blank.png width =""600"" height = ""600"" style=""position:fixed;top:50%; left:50%; transform: translate(-50%, -50%); border:5px solid black"">","","","","","","","",""
"","12640","sequential-stimulus-presentation-old","27","461244","0.0-11.0-1.2","SS1619739740824","trial","","40","500","13140","images/stimuli/spore_stims/complex_17_A_a.gif","images/stimuli/spore_stims/complex_02_A_b.gif","self_paced","","1","complex_dissimilar","images/stimuli/spore_stims/complex_02_A_b.gif","","","","",""
"","null","html-keyboard-response","28","462134","0.0-11.0-0.3","SS1619739740824","","","null","","","","","","<p><img src= images/blank.png width =""600"" height = ""600"" style=""position:fixed;top:50%; left:50%; transform: translate(-50%, -50%); border:5px solid black"">","","","","","","","",""
"","16051","sequential-stimulus-presentation-old","29","478705","0.0-11.0-1.3","SS1619739740824","trial","","40","500","16551","images/stimuli/spore_stims/complex_17_A_a.gif","images/stimuli/spore_stims/complex_02_A_b.gif","self_paced","","1","complex_dissimilar","images/stimuli/spore_stims/complex_17_A_a.gif","","","","",""
"","null","html-keyboard-response","30","479574","0.0-11.0-0.4","SS1619739740824","","","null","","","","","","<p><img src= images/blank.png width =""600"" height = ""600"" style=""position:fixed;top:50%; left:50%; transform: translate(-50%, -50%); border:5px solid black"">","","","","","","","",""
"","31949","sequential-stimulus-presentation-old","31","512033","0.0-11.0-1.4","SS1619739740824","trial","","40","500","32449","images/stimuli/spore_stims/complex_17_A_a.gif","images/stimuli/spore_stims/complex_02_A_b.gif","self_paced","","1","complex_dissimilar","images/stimuli/spore_stims/complex_02_A_b.gif","","","","",""
"","3931","survey-multi-choice","32","515971","0.0-12.0","SS1619739740824","math_question","","","","","","","","","","","","{""Q0"":""10""}","[0]","10","",""
"","null","html-keyboard-response","33","517233","0.0-13.0-0.0","SS1619739740824","","","null","","","","","","<p><img src= images/blank.png width =""600"" height = ""600"" style=""position:fixed;top:50%; left:50%; transform: translate(-50%, -50%); border:5px solid black"">","","","","","","","",""
"","1393","sequential-stimulus-presentation-old","34","519136","0.0-13.0-1.0","SS1619739740824","trial","","40","500","1893","images/stimuli/spore_stims/complex_11_A_a.gif","images/stimuli/spore_stims/complex_10_A_b.gif","forced_short","","2","complex_dissimilar","images/stimuli/spore_stims/complex_10_A_b.gif","","","","",""
"","null","html-keyboard-response","35","520054","0.0-13.0-0.1","SS1619739740824","","","null","","","","","","<p><img src= images/blank.png width =""600"" height = ""600"" style=""position:fixed;top:50%; left:50%; transform: translate(-50%, -50%); border:5px solid black"">","","","","","","","",""
"","36762","sequential-stimulus-presentation-old","36","557324","0.0-13.0-1.1","SS1619739740824","trial","","40","500","37262","images/stimuli/spore_stims/complex_11_A_a.gif","images/stimuli/spore_stims/complex_10_A_b.gif","forced_short","","2","complex_dissimilar","images/stimuli/spore_stims/complex_10_A_b.gif","","","","",""
"","null","html-keyboard-response","37","558283","0.0-13.0-0.2","SS1619739740824","","","null","","","","","","<p><img src= images/blank.png width =""600"" height = ""600"" style=""position:fixed;top:50%; left:50%; transform: translate(-50%, -50%); border:5px solid black"">","","","","","","","",""
"","28894","sequential-stimulus-presentation-old","38","587687","0.0-13.0-1.2","SS1619739740824","trial","","40","500","29394","images/stimuli/spore_stims/complex_11_A_a.gif","images/stimuli/spore_stims/complex_10_A_b.gif","forced_short","","2","complex_dissimilar","images/stimuli/spore_stims/complex_10_A_b.gif","","","","",""
"","null","html-keyboard-response","39","588812","0.0-13.0-0.3","SS1619739740824","","","null","","","","","","<p><img src= images/blank.png width =""600"" height = ""600"" style=""position:fixed;top:50%; left:50%; transform: translate(-50%, -50%); border:5px solid black"">","","","","","","","",""
"","16085","sequential-stimulus-presentation-old","40","605408","0.0-13.0-1.3","SS1619739740824","trial","","40","500","16585","images/stimuli/spore_stims/complex_11_A_a.gif","images/stimuli/spore_stims/complex_10_A_b.gif","forced_short","","2","complex_dissimilar","images/stimuli/spore_stims/complex_10_A_b.gif","","","","",""
"","null","html-keyboard-response","41","606613","0.0-13.0-0.4","SS1619739740824","","","null","","","","","","<p><img src= images/blank.png width =""600"" height = ""600"" style=""position:fixed;top:50%; left:50%; transform: translate(-50%, -50%); border:5px solid black"">","","","","","","","",""
"","31063","sequential-stimulus-presentation-old","42","638186","0.0-13.0-1.4","SS1619739740824","trial","","40","500","31563","images/stimuli/spore_stims/complex_11_A_a.gif","images/stimuli/spore_stims/complex_10_A_b.gif","forced_short","","2","complex_dissimilar","images/stimuli/spore_stims/complex_10_A_b.gif","","","","",""
"","null","html-keyboard-response","43","639213","0.0-13.0-0.5","SS1619739740824","","","null","","","","","","<p><img src= images/blank.png width =""600"" height = ""600"" style=""position:fixed;top:50%; left:50%; transform: translate(-50%, -50%); border:5px solid black"">","","","","","","","",""
"","6706","sequential-stimulus-presentation-old","44","646428","0.0-13.0-1.5","SS1619739740824","trial","","40","500","7206","images/stimuli/spore_stims/complex_11_A_a.gif","images/stimuli/spore_stims/complex_10_A_b.gif","forced_short","","2","complex_dissimilar","images/stimuli/spore_stims/complex_11_A_a.gif","","","","",""
"","2640","survey-multi-choice","45","649075","0.0-14.0","SS1619739740824","math_question","","","","","","","","","","","","{""Q0"":""3""}","[0]","3","",""
"","null","html-keyboard-response","46","649902","0.0-15.0-0.0","SS1619739740824","","","null","","","","","","<p><img src= images/blank.png width =""600"" height = ""600"" style=""position:fixed;top:50%; left:50%; transform: translate(-50%, -50%); border:5px solid black"">","","","","","","","",""
"","1816","sequential-stimulus-presentation-old","47","652229","0.0-15.0-1.0","SS1619739740824","trial","","40","500","2316","images/stimuli/spore_stims/simple_01_A_b.gif","images/stimuli/spore_stims/simple_09_A_a.gif","forced_short","","3","simple_dissimilar","images/stimuli/spore_stims/simple_09_A_a.gif","","","","",""
"","null","html-keyboard-response","48","653492","0.0-15.0-0.1","SS1619739740824","","","null","","","","","","<p><img src= images/blank.png width =""600"" height = ""600"" style=""position:fixed;top:50%; left:50%; transform: translate(-50%, -50%); border:5px solid black"">","","","","","","","",""
"","43678","sequential-stimulus-presentation-old","49","697691","0.0-15.0-1.1","SS1619739740824","trial","","40","500","44178","images/stimuli/spore_stims/simple_01_A_b.gif","images/stimuli/spore_stims/simple_09_A_a.gif","forced_short","","3","simple_dissimilar","images/stimuli/spore_stims/simple_01_A_b.gif","","","","",""
"","null","html-keyboard-response","50","698741","0.0-15.0-0.2","SS1619739740824","","","null","","","","","","<p><img src= images/blank.png width =""600"" height = ""600"" style=""position:fixed;top:50%; left:50%; transform: translate(-50%, -50%); border:5px solid black"">","","","","","","","",""
"","1518","sequential-stimulus-presentation-old","51","700770","0.0-15.0-1.2","SS1619739740824","trial","","40","500","2018","images/stimuli/spore_stims/simple_01_A_b.gif","images/stimuli/spore_stims/simple_09_A_a.gif","forced_short","","3","simple_dissimilar","images/stimuli/spore_stims/simple_01_A_b.gif","","","","",""
"","null","html-keyboard-response","52","701622","0.0-15.0-0.3","SS1619739740824","","","null","","","","","","<p><img src= images/blank.png width =""600"" height = ""600"" style=""position:fixed;top:50%; left:50%; transform: translate(-50%, -50%); border:5px solid black"">","","","","","","","",""
"","3960","sequential-stimulus-presentation-old","53","706104","0.0-15.0-1.3","SS1619739740824","trial","","40","500","4460","images/stimuli/spore_stims/simple_01_A_b.gif","images/stimuli/spore_stims/simple_09_A_a.gif","forced_short","","3","simple_dissimilar","images/stimuli/spore_stims/simple_09_A_a.gif","","","","",""
"","3401","survey-multi-choice","54","709514","0.0-16.0","SS1619739740824","math_question","","","","","","","","","","","","{""Q0"":""15""}","[0]","15","",""
"","null","html-keyboard-response","55","710772","0.0-17.0-0.0","SS1619739740824","","","null","","","","","","<p><img src= images/blank.png width =""600"" height = ""600"" style=""position:fixed;top:50%; left:50%; transform: translate(-50%, -50%); border:5px solid black"">","","","","","","","",""
"","4972","sequential-stimulus-presentation-old","56","730754","0.0-17.0-1.0","SS1619739740824","trial","","40","500","5472","images/stimuli/spore_stims/simple_03_A_b.gif","images/stimuli/spore_stims/simple_17_A_a.gif","forced_long","","4","simple_dissimilar","images/stimuli/spore_stims/simple_17_A_a.gif","","","","",""
"","null","html-keyboard-response","57","731752","0.0-17.0-0.1","SS1619739740824","","","null","","","","","","<p><img src= images/blank.png width =""600"" height = ""600"" style=""position:fixed;top:50%; left:50%; transform: translate(-50%, -50%); border:5px solid black"">","","","","","","","",""
"","345","sequential-stimulus-presentation-old","58","732617","0.0-17.0-1.1","SS1619739740824","trial","","40","500","845","images/stimuli/spore_stims/simple_03_A_b.gif","images/stimuli/spore_stims/simple_17_A_a.gif","forced_long","","4","simple_dissimilar","images/stimuli/spore_stims/simple_17_A_a.gif","","","","",""
"","null","html-keyboard-response","59","733823","0.0-17.0-0.2","SS1619739740824","","","null","","","","","","<p><img src= images/blank.png width =""600"" height = ""600"" style=""position:fixed;top:50%; left:50%; transform: translate(-50%, -50%); border:5px solid black"">","","","","","","","",""
"","1415","sequential-stimulus-presentation-old","60","735748","0.0-17.0-1.2","SS1619739740824","trial","","40","500","1915","images/stimuli/spore_stims/simple_03_A_b.gif","images/stimuli/spore_stims/simple_17_A_a.gif","forced_long","","4","simple_dissimilar","images/stimuli/spore_stims/simple_17_A_a.gif","","","","",""
"","null","html-keyboard-response","61","736661","0.0-17.0-0.3","SS1619739740824","","","null","","","","","","<p><img src= images/blank.png width =""600"" height = ""600"" style=""position:fixed;top:50%; left:50%; transform: translate(-50%, -50%); border:5px solid black"">","","","","","","","",""
"","43973","sequential-stimulus-presentation-old","62","781155","0.0-17.0-1.3","SS1619739740824","trial","","40","500","44473","images/stimuli/spore_stims/simple_03_A_b.gif","images/stimuli/spore_stims/simple_17_A_a.gif","forced_long","","4","simple_dissimilar","images/stimuli/spore_stims/simple_17_A_a.gif","","","","",""
"","2855","survey-multi-choice","63","784018","0.0-18.0","SS1619739740824","math_question","","","","","","","","","","","","{""Q0"":""12""}","[0]","12","",""
"","null","html-keyboard-response","64","785081","0.0-19.0-0.0","SS1619739740824","","","null","","","","","","<p><img src= images/blank.png width =""600"" height = ""600"" style=""position:fixed;top:50%; left:50%; transform: translate(-50%, -50%); border:5px solid black"">","","","","","","","",""
"","886","sequential-stimulus-presentation-old","65","800986","0.0-19.0-1.0","SS1619739740824","trial","","40","500","1386","images/stimuli/spore_stims/complex_18_A_b.gif","images/stimuli/spore_stims/complex_07_A_a.gif","forced_long","","5","complex_dissimilar","images/stimuli/spore_stims/complex_07_A_a.gif","","","","",""
"","null","html-keyboard-response","66","801850","0.0-19.0-0.1","SS1619739740824","","","null","","","","","","<p><img src= images/blank.png width =""600"" height = ""600"" style=""position:fixed;top:50%; left:50%; transform: translate(-50%, -50%); border:5px solid black"">","","","","","","","",""
"","67038","sequential-stimulus-presentation-old","67","869410","0.0-19.0-1.1","SS1619739740824","trial","","40","500","67538","images/stimuli/spore_stims/complex_18_A_b.gif","images/stimuli/spore_stims/complex_07_A_a.gif","forced_long","","5","complex_dissimilar","images/stimuli/spore_stims/complex_18_A_b.gif","","","","",""
"","null","html-keyboard-response","68","870560","0.0-19.0-0.2","SS1619739740824","","","null","","","","","","<p><img src= images/blank.png width =""600"" height = ""600"" style=""position:fixed;top:50%; left:50%; transform: translate(-50%, -50%); border:5px solid black"">","","","","","","","",""
"","26724","sequential-stimulus-presentation-old","69","897793","0.0-19.0-1.2","SS1619739740824","trial","","40","500","27224","images/stimuli/spore_stims/complex_18_A_b.gif","images/stimuli/spore_stims/complex_07_A_a.gif","forced_long","","5","complex_dissimilar","images/stimuli/spore_stims/complex_07_A_a.gif","","","","",""
"","null","html-keyboard-response","70","898641","0.0-19.0-0.3","SS1619739740824","","","null","","","","","","<p><img src= images/blank.png width =""600"" height = ""600"" style=""position:fixed;top:50%; left:50%; transform: translate(-50%, -50%); border:5px solid black"">","","","","","","","",""
"","16597","sequential-stimulus-presentation-old","71","915759","0.0-19.0-1.3","SS1619739740824","trial","","40","500","17097","images/stimuli/spore_stims/complex_18_A_b.gif","images/stimuli/spore_stims/complex_07_A_a.gif","forced_long","","5","complex_dissimilar","images/stimuli/spore_stims/complex_07_A_a.gif","","","","",""
"","null","html-keyboard-response","72","916960","0.0-19.0-0.4","SS1619739740824","","","null","","","","","","<p><img src= images/blank.png width =""600"" height = ""600"" style=""position:fixed;top:50%; left:50%; transform: translate(-50%, -50%); border:5px solid black"">","","","","","","","",""
"","35388","sequential-stimulus-presentation-old","73","952859","0.0-19.0-1.4","SS1619739740824","trial","","40","500","35888","images/stimuli/spore_stims/complex_18_A_b.gif","images/stimuli/spore_stims/complex_07_A_a.gif","forced_long","","5","complex_dissimilar","images/stimuli/spore_stims/complex_18_A_b.gif","","","","",""
"","3293","survey-multi-choice","74","956161","0.0-20.0","SS1619739740824","math_question","","","","","","","","","","","","{""Q0"":""9""}","[0]","9","",""
"","null","html-keyboard-response","75","957409","0.0-21.0-0.0","SS1619739740824","","","null","","","","","","<p><img src= images/blank.png width =""600"" height = ""600"" style=""position:fixed;top:50%; left:50%; transform: translate(-50%, -50%); border:5px solid black"">","","","","","","","",""
"","15112","sequential-stimulus-presentation-old","76","973031","0.0-21.0-1.0","SS1619739740824","trial","","40","500","15612","images/stimuli/spore_stims/simple_06_A_b.gif","images/stimuli/spore_stims/simple_15_A_a.gif","self_paced","","6","simple_dissimilar","images/stimuli/spore_stims/simple_15_A_a.gif","","","","",""
"","null","html-keyboard-response","77","973939","0.0-21.0-0.1","SS1619739740824","","","null","","","","","","<p><img src= images/blank.png width =""600"" height = ""600"" style=""position:fixed;top:50%; left:50%; transform: translate(-50%, -50%); border:5px solid black"">","","","","","","","",""
"","20544","sequential-stimulus-presentation-old","78","995005","0.0-21.0-1.1","SS1619739740824","trial","","40","500","21044","images/stimuli/spore_stims/simple_06_A_b.gif","images/stimuli/spore_stims/simple_15_A_a.gif","self_paced","","6","simple_dissimilar","images/stimuli/spore_stims/simple_06_A_b.gif","","","","",""
"","null","html-keyboard-response","79","996020","0.0-21.0-0.2","SS1619739740824","","","null","","","","","","<p><img src= images/blank.png width =""600"" height = ""600"" style=""position:fixed;top:50%; left:50%; transform: translate(-50%, -50%); border:5px solid black"">","","","","","","","",""
"","15578","sequential-stimulus-presentation-old","80","1012108","0.0-21.0-1.2","SS1619739740824","trial","","40","500","16078","images/stimuli/spore_stims/simple_06_A_b.gif","images/stimuli/spore_stims/simple_15_A_a.gif","self_paced","","6","simple_dissimilar","images/stimuli/spore_stims/simple_15_A_a.gif","","","","",""
"","null","html-keyboard-response","81","1012930","0.0-21.0-0.3","SS1619739740824","","","null","","","","","","<p><img src= images/blank.png width =""600"" height = ""600"" style=""position:fixed;top:50%; left:50%; transform: translate(-50%, -50%); border:5px solid black"">","","","","","","","",""
"","362","sequential-stimulus-presentation-old","82","1013802","0.0-21.0-1.3","SS1619739740824","trial","","40","500","862","images/stimuli/spore_stims/simple_06_A_b.gif","images/stimuli/spore_stims/simple_15_A_a.gif","self_paced","","6","simple_dissimilar","images/stimuli/spore_stims/simple_06_A_b.gif","","","","",""
"","null","html-keyboard-response","83","1014929","0.0-21.0-0.4","SS1619739740824","","","null","","","","","","<p><img src= images/blank.png width =""600"" height = ""600"" style=""position:fixed;top:50%; left:50%; transform: translate(-50%, -50%); border:5px solid black"">","","","","","","","",""
"","23427","sequential-stimulus-presentation-old","84","1038867","0.0-21.0-1.4","SS1619739740824","trial","","40","500","23927","images/stimuli/spore_stims/simple_06_A_b.gif","images/stimuli/spore_stims/simple_15_A_a.gif","self_paced","","6","simple_dissimilar","images/stimuli/spore_stims/simple_15_A_a.gif","","","","",""
"","3693","survey-multi-choice","85","1042567","0.0-22.0","SS1619739740824","math_question","","","","","","","","","","","","{""Q0"":""7""}","[0]","7","",""
"","null","html-keyboard-response","86","1043409","0.0-23.0-0.0","SS1619739740824","","","null","","","","","","<p><img src= images/blank.png width =""600"" height = ""600"" style=""position:fixed;top:50%; left:50%; transform: translate(-50%, -50%); border:5px solid black"">","","","","","","","",""
"","2980","sequential-stimulus-presentation-old","87","1061409","0.0-23.0-1.0","SS1619739740824","trial","","40","500","3480","images/stimuli/spore_stims/complex_14_A_a.gif","images/stimuli/spore_stims/complex_15_A_b.gif","forced_long","","7","complex_dissimilar","images/stimuli/spore_stims/complex_15_A_b.gif","","","","",""
"","null","html-keyboard-response","88","1062398","0.0-23.0-0.1","SS1619739740824","","","null","","","","","","<p><img src= images/blank.png width =""600"" height = ""600"" style=""position:fixed;top:50%; left:50%; transform: translate(-50%, -50%); border:5px solid black"">","","","","","","","",""
"","38051","sequential-stimulus-presentation-old","89","1100959","0.0-23.0-1.1","SS1619739740824","trial","","40","500","38551","images/stimuli/spore_stims/complex_14_A_a.gif","images/stimuli/spore_stims/complex_15_A_b.gif","forced_long","","7","complex_dissimilar","images/stimuli/spore_stims/complex_15_A_b.gif","","","","",""
"","null","html-keyboard-response","90","1102158","0.0-23.0-0.2","SS1619739740824","","","null","","","","","","<p><img src= images/blank.png width =""600"" height = ""600"" style=""position:fixed;top:50%; left:50%; transform: translate(-50%, -50%); border:5px solid black"">","","","","","","","",""
"","11444","sequential-stimulus-presentation-old","91","1114114","0.0-23.0-1.2","SS1619739740824","trial","","40","500","11944","images/stimuli/spore_stims/complex_14_A_a.gif","images/stimuli/spore_stims/complex_15_A_b.gif","forced_long","","7","complex_dissimilar","images/stimuli/spore_stims/complex_14_A_a.gif","","","","",""
"","null","html-keyboard-response","92","1115319","0.0-23.0-0.3","SS1619739740824","","","null","","","","","","<p><img src= images/blank.png width =""600"" height = ""600"" style=""position:fixed;top:50%; left:50%; transform: translate(-50%, -50%); border:5px solid black"">","","","","","","","",""
"","1096","sequential-stimulus-presentation-old","93","1116936","0.0-23.0-1.3","SS1619739740824","trial","","40","500","1596","images/stimuli/spore_stims/complex_14_A_a.gif","images/stimuli/spore_stims/complex_15_A_b.gif","forced_long","","7","complex_dissimilar","images/stimuli/spore_stims/complex_15_A_b.gif","","","","",""
"","null","html-keyboard-response","94","1117849","0.0-23.0-0.4","SS1619739740824","","","null","","","","","","<p><img src= images/blank.png width =""600"" height = ""600"" style=""position:fixed;top:50%; left:50%; transform: translate(-50%, -50%); border:5px solid black"">","","","","","","","",""
"","16648","sequential-stimulus-presentation-old","95","1135017","0.0-23.0-1.4","SS1619739740824","trial","","40","500","17148","images/stimuli/spore_stims/complex_14_A_a.gif","images/stimuli/spore_stims/complex_15_A_b.gif","forced_long","","7","complex_dissimilar","images/stimuli/spore_stims/complex_15_A_b.gif","","","","",""
"","2753","survey-multi-choice","96","1137784","0.0-24.0","SS1619739740824","math_question","","","","","","","","","","","","{""Q0"":""16""}","[0]","16","",""
"","null","html-keyboard-response","97","1138919","0.0-25.0-0.0","SS1619739740824","","","null","","","","","","<p><img src= images/blank.png width =""600"" height = ""600"" style=""position:fixed;top:50%; left:50%; transform: translate(-50%, -50%); border:5px solid black"">","","","","","","","",""
"","27094","sequential-stimulus-presentation-old","98","1166522","0.0-25.0-1.0","SS1619739740824","trial","","40","500","27594","images/stimuli/spore_stims/complex_20_A_b.gif","images/stimuli/spore_stims/complex_13_A_a.gif","self_paced","","8","complex_dissimilar","images/stimuli/spore_stims/complex_13_A_a.gif","","","","",""
"","null","html-keyboard-response","99","1167529","0.0-25.0-0.1","SS1619739740824","","","null","","","","","","<p><img src= images/blank.png width =""600"" height = ""600"" style=""position:fixed;top:50%; left:50%; transform: translate(-50%, -50%); border:5px solid black"">","","","","","","","",""
"","34034","sequential-stimulus-presentation-old","100","1202083","0.0-25.0-1.1","SS1619739740824","trial","","40","500","34534","images/stimuli/spore_stims/complex_20_A_b.gif","images/stimuli/spore_stims/complex_13_A_a.gif","self_paced","","8","complex_dissimilar","images/stimuli/spore_stims/complex_13_A_a.gif","","","","",""
"","null","html-keyboard-response","101","1202948","0.0-25.0-0.2","SS1619739740824","","","null","","","","","","<p><img src= images/blank.png width =""600"" height = ""600"" style=""position:fixed;top:50%; left:50%; transform: translate(-50%, -50%); border:5px solid black"">","","","","","","","",""
"","275","sequential-stimulus-presentation-old","102","1203734","0.0-25.0-1.2","SS1619739740824","trial","","40","500","775","images/stimuli/spore_stims/complex_20_A_b.gif","images/stimuli/spore_stims/complex_13_A_a.gif","self_paced","","8","complex_dissimilar","images/stimuli/spore_stims/complex_13_A_a.gif","","","","",""
"","null","html-keyboard-response","103","1204612","0.0-25.0-0.3","SS1619739740824","","","null","","","","","","<p><img src= images/blank.png width =""600"" height = ""600"" style=""position:fixed;top:50%; left:50%; transform: translate(-50%, -50%); border:5px solid black"">","","","","","","","",""
"","1251","sequential-stimulus-presentation-old","104","1206373","0.0-25.0-1.3","SS1619739740824","trial","","40","500","1751","images/stimuli/spore_stims/complex_20_A_b.gif","images/stimuli/spore_stims/complex_13_A_a.gif","self_paced","","8","complex_dissimilar","images/stimuli/spore_stims/complex_13_A_a.gif","","","","",""
"","null","html-keyboard-response","105","1207392","0.0-25.0-0.4","SS1619739740824","","","null","","","","","","<p><img src= images/blank.png width =""600"" height = ""600"" style=""position:fixed;top:50%; left:50%; transform: translate(-50%, -50%); border:5px solid black"">","","","","","","","",""
"","954","sequential-stimulus-presentation-old","106","1208855","0.0-25.0-1.4","SS1619739740824","trial","","40","500","1454","images/stimuli/spore_stims/complex_20_A_b.gif","images/stimuli/spore_stims/complex_13_A_a.gif","self_paced","","8","complex_dissimilar","images/stimuli/spore_stims/complex_13_A_a.gif","","","","",""
"","null","html-keyboard-response","107","1210068","0.0-25.0-0.5","SS1619739740824","","","null","","","","","","<p><img src= images/blank.png width =""600"" height = ""600"" style=""position:fixed;top:50%; left:50%; transform: translate(-50%, -50%); border:5px solid black"">","","","","","","","",""
"","2632","sequential-stimulus-presentation-old","108","1213211","0.0-25.0-1.5","SS1619739740824","trial","","40","500","3132","images/stimuli/spore_stims/complex_20_A_b.gif","images/stimuli/spore_stims/complex_13_A_a.gif","self_paced","","8","complex_dissimilar","images/stimuli/spore_stims/complex_13_A_a.gif","","","","",""
"","3600","survey-multi-choice","109","1216822","0.0-26.0","SS1619739740824","math_question","","","","","","","","","","","","{""Q0"":""7""}","[0]","7","",""
"","null","html-keyboard-response","110","1217988","0.0-27.0-0.0","SS1619739740824","","","null","","","","","","<p><img src= images/blank.png width =""600"" height = ""600"" style=""position:fixed;top:50%; left:50%; transform: translate(-50%, -50%); border:5px solid black"">","","","","","","","",""
"","1824","sequential-stimulus-presentation-old","111","1220322","0.0-27.0-1.0","SS1619739740824","trial","","40","500","2324","images/stimuli/spore_stims/simple_11_A_a.gif","images/stimuli/spore_stims/simple_16_A_b.gif","forced_short","","9","simple_dissimilar","images/stimuli/spore_stims/simple_16_A_b.gif","","","","",""
"","null","html-keyboard-response","112","1221538","0.0-27.0-0.1","SS1619739740824","","","null","","","","","","<p><img src= images/blank.png width =""600"" height = ""600"" style=""position:fixed;top:50%; left:50%; transform: translate(-50%, -50%); border:5px solid black"">","","","","","","","",""
"","12512","sequential-stimulus-presentation-old","113","1234570","0.0-27.0-1.1","SS1619739740824","trial","","40","500","13012","images/stimuli/spore_stims/simple_11_A_a.gif","images/stimuli/spore_stims/simple_16_A_b.gif","forced_short","","9","simple_dissimilar","images/stimuli/spore_stims/simple_16_A_b.gif","","","","",""
"","null","html-keyboard-response","114","1235657","0.0-27.0-0.2","SS1619739740824","","","null","","","","","","<p><img src= images/blank.png width =""600"" height = ""600"" style=""position:fixed;top:50%; left:50%; transform: translate(-50%, -50%); border:5px solid black"">","","","","","","","",""
"","480","sequential-stimulus-presentation-old","115","1236660","0.0-27.0-1.2","SS1619739740824","trial","","40","500","980","images/stimuli/spore_stims/simple_11_A_a.gif","images/stimuli/spore_stims/simple_16_A_b.gif","forced_short","","9","simple_dissimilar","images/stimuli/spore_stims/simple_16_A_b.gif","","","","",""
"","null","html-keyboard-response","116","1237568","0.0-27.0-0.3","SS1619739740824","","","null","","","","","","<p><img src= images/blank.png width =""600"" height = ""600"" style=""position:fixed;top:50%; left:50%; transform: translate(-50%, -50%); border:5px solid black"">","","","","","","","",""
"","2567","sequential-stimulus-presentation-old","117","1240663","0.0-27.0-1.3","SS1619739740824","trial","","40","500","3067","images/stimuli/spore_stims/simple_11_A_a.gif","images/stimuli/spore_stims/simple_16_A_b.gif","forced_short","","9","simple_dissimilar","images/stimuli/spore_stims/simple_11_A_a.gif","","","","",""
"","null","html-keyboard-response","118","1241718","0.0-27.0-0.4","SS1619739740824","","","null","","","","","","<p><img src= images/blank.png width =""600"" height = ""600"" style=""position:fixed;top:50%; left:50%; transform: translate(-50%, -50%); border:5px solid black"">","","","","","","","",""
"","403","sequential-stimulus-presentation-old","119","1242640","0.0-27.0-1.4","SS1619739740824","trial","","40","500","903","images/stimuli/spore_stims/simple_11_A_a.gif","images/stimuli/spore_stims/simple_16_A_b.gif","forced_short","","9","simple_dissimilar","images/stimuli/spore_stims/simple_11_A_a.gif","","","","",""
"","3446","survey-multi-choice","120","1246098","0.0-28.0","SS1619739740824","math_question","","","","","","","","","","","","{""Q0"":""15""}","[0]","15","",""
"","null","html-keyboard-response","121","1247118","0.0-29.0-0.0","SS1619739740824","","","null","","","","","","<p><img src= images/blank.png width =""600"" height = ""600"" style=""position:fixed;top:50%; left:50%; transform: translate(-50%, -50%); border:5px solid black"">","","","","","","","",""
"","1181","sequential-stimulus-presentation-old","122","1263318","0.0-29.0-1.0","SS1619739740824","trial","","40","500","1681","images/stimuli/spore_stims/simple_11_A_b.gif","images/stimuli/spore_stims/simple_06_A_a.gif","forced_long","","10","simple_dissimilar","images/stimuli/spore_stims/simple_06_A_a.gif","","","","",""
"","null","html-keyboard-response","123","1264537","0.0-29.0-0.1","SS1619739740824","","","null","","","","","","<p><img src= images/blank.png width =""600"" height = ""600"" style=""position:fixed;top:50%; left:50%; transform: translate(-50%, -50%); border:5px solid black"">","","","","","","","",""
"","1616","sequential-stimulus-presentation-old","124","1266673","0.0-29.0-1.1","SS1619739740824","trial","","40","500","2116","images/stimuli/spore_stims/simple_11_A_b.gif","images/stimuli/spore_stims/simple_06_A_a.gif","forced_long","","10","simple_dissimilar","images/stimuli/spore_stims/simple_06_A_a.gif","","","","",""
"","null","html-keyboard-response","125","1267817","0.0-29.0-0.2","SS1619739740824","","","null","","","","","","<p><img src= images/blank.png width =""600"" height = ""600"" style=""position:fixed;top:50%; left:50%; transform: translate(-50%, -50%); border:5px solid black"">","","","","","","","",""
"","411","sequential-stimulus-presentation-old","126","1268750","0.0-29.0-1.2","SS1619739740824","trial","","40","500","911","images/stimuli/spore_stims/simple_11_A_b.gif","images/stimuli/spore_stims/simple_06_A_a.gif","forced_long","","10","simple_dissimilar","images/stimuli/spore_stims/simple_11_A_b.gif","","","","",""
"","null","html-keyboard-response","127","1269617","0.0-29.0-0.3","SS1619739740824","","","null","","","","","","<p><img src= images/blank.png width =""600"" height = ""600"" style=""position:fixed;top:50%; left:50%; transform: translate(-50%, -50%); border:5px solid black"">","","","","","","","",""
"","489","sequential-stimulus-presentation-old","128","1270626","0.0-29.0-1.3","SS1619739740824","trial","","40","500","989","images/stimuli/spore_stims/simple_11_A_b.gif","images/stimuli/spore_stims/simple_06_A_a.gif","forced_long","","10","simple_dissimilar","images/stimuli/spore_stims/simple_06_A_a.gif","","","","",""
"","2935","survey-multi-choice","129","1273569","0.0-30.0","SS1619739740824","math_question","","","","","","","","","","","","{""Q0"":""4""}","[0]","4","",""
"","null","html-keyboard-response","130","1274777","0.0-31.0-0.0","SS1619739740824","","","null","","","","","","<p><img src= images/blank.png width =""600"" height = ""600"" style=""position:fixed;top:50%; left:50%; transform: translate(-50%, -50%); border:5px solid black"">","","","","","","","",""
"","35739","sequential-stimulus-presentation-old","131","1311035","0.0-31.0-1.0","SS1619739740824","trial","","40","500","36239","images/stimuli/spore_stims/simple_05_A_a.gif","images/stimuli/spore_stims/simple_08_A_b.gif","self_paced","","11","simple_dissimilar","images/stimuli/spore_stims/simple_08_A_b.gif","","","","",""
"","null","html-keyboard-response","132","1312047","0.0-31.0-0.1","SS1619739740824","","","null","","","","","","<p><img src= images/blank.png width =""600"" height = ""600"" style=""position:fixed;top:50%; left:50%; transform: translate(-50%, -50%); border:5px solid black"">","","","","","","","",""
"","526","sequential-stimulus-presentation-old","133","1313093","0.0-31.0-1.1","SS1619739740824","trial","","40","500","1026","images/stimuli/spore_stims/simple_05_A_a.gif","images/stimuli/spore_stims/simple_08_A_b.gif","self_paced","","11","simple_dissimilar","images/stimuli/spore_stims/simple_08_A_b.gif","","","","",""
"","null","html-keyboard-response","134","1314095","0.0-31.0-0.2","SS1619739740824","","","null","","","","","","<p><img src= images/blank.png width =""600"" height = ""600"" style=""position:fixed;top:50%; left:50%; transform: translate(-50%, -50%); border:5px solid black"">","","","","","","","",""
"","287","sequential-stimulus-presentation-old","135","1314905","0.0-31.0-1.2","SS1619739740824","trial","","40","500","787","images/stimuli/spore_stims/simple_05_A_a.gif","images/stimuli/spore_stims/simple_08_A_b.gif","self_paced","","11","simple_dissimilar","images/stimuli/spore_stims/simple_08_A_b.gif","","","","",""
"","null","html-keyboard-response","136","1315798","0.0-31.0-0.3","SS1619739740824","","","null","","","","","","<p><img src= images/blank.png width =""600"" height = ""600"" style=""position:fixed;top:50%; left:50%; transform: translate(-50%, -50%); border:5px solid black"">","","","","","","","",""
"","668","sequential-stimulus-presentation-old","137","1316985","0.0-31.0-1.3","SS1619739740824","trial","","40","500","1168","images/stimuli/spore_stims/simple_05_A_a.gif","images/stimuli/spore_stims/simple_08_A_b.gif","self_paced","","11","simple_dissimilar","images/stimuli/spore_stims/simple_08_A_b.gif","","","","",""
"","null","html-keyboard-response","138","1318259","0.0-31.0-0.4","SS1619739740824","","","null","","","","","","<p><img src= images/blank.png width =""600"" height = ""600"" style=""position:fixed;top:50%; left:50%; transform: translate(-50%, -50%); border:5px solid black"">","","","","","","","",""
"","354","sequential-stimulus-presentation-old","139","1319142","0.0-31.0-1.4","SS1619739740824","trial","","40","500","854","images/stimuli/spore_stims/simple_05_A_a.gif","images/stimuli/spore_stims/simple_08_A_b.gif","self_paced","","11","simple_dissimilar","images/stimuli/spore_stims/simple_08_A_b.gif","","","","",""
"","null","html-keyboard-response","140","1320167","0.0-31.0-0.5","SS1619739740824","","","null","","","","","","<p><img src= images/blank.png width =""600"" height = ""600"" style=""position:fixed;top:50%; left:50%; transform: translate(-50%, -50%); border:5px solid black"">","","","","","","","",""
"","219","sequential-stimulus-presentation-old","141","1320906","0.0-31.0-1.5","SS1619739740824","trial","","40","500","719","images/stimuli/spore_stims/simple_05_A_a.gif","images/stimuli/spore_stims/simple_08_A_b.gif","self_paced","","11","simple_dissimilar","images/stimuli/spore_stims/simple_08_A_b.gif","","","","",""
"[{""page_index"":0,""viewing_time"":6331}]","6331","instructions","142","1327251","0.0-32.0","SS1619739740824","instructions","","","","","","","","","","","","","","","",""
"","10660","survey-likert","143","1337918","0.0-33.0","SS1619739740824","similarity_question","","","","","","","","","","","","{""Q0"":1}","[0]","","images/stimuli/spore_stims/complex_13_A_a.gif","images/stimuli/spore_stims/complex_20_A_b.gif"
"","3113","survey-likert","144","1341038","0.0-34.0","SS1619739740824","similarity_question","","","","","","","","","","","","{""Q0"":5}","[0]","","images/stimuli/spore_stims/simple_11_A_b.gif","images/stimuli/spore_stims/simple_06_A_a.gif"
"","3603","survey-likert","145","1344646","0.0-35.0","SS1619739740824","similarity_question","","","","","","","","","","","","{""Q0"":1}","[0]","","images/stimuli/spore_stims/complex_14_A_a.gif","images/stimuli/spore_stims/complex_15_A_b.gif"
"","4455","survey-likert","146","1349106","0.0-36.0","SS1619739740824","similarity_question","","","","","","","","","","","","{""Q0"":0}","[0]","","images/stimuli/spore_stims/complex_02_A_b.gif","images/stimuli/spore_stims/complex_17_A_a.gif"
"","2964","survey-likert","147","1352074","0.0-37.0","SS1619739740824","similarity_question","","","","","","","","","","","","{""Q0"":1}","[0]","","images/stimuli/spore_stims/complex_14_A_b.gif","images/stimuli/spore_stims/complex_08_A_a.gif"
"","4271","survey-likert","148","1356350","0.0-38.0","SS1619739740824","similarity_question","","","","","","","","","","","","{""Q0"":5}","[0]","","images/stimuli/spore_stims/simple_09_A_a.gif","images/stimuli/spore_stims/simple_01_A_b.gif"
"","4433","survey-likert","149","1360790","0.0-39.0","SS1619739740824","similarity_question","","","","","","","","","","","","{""Q0"":1}","[0]","","images/stimuli/spore_stims/complex_11_A_a.gif","images/stimuli/spore_stims/complex_10_A_b.gif"
"","2311","survey-likert","150","1363107","0.0-40.0","SS1619739740824","similarity_question","","","","","","","","","","","","{""Q0"":6}","[0]","","images/stimuli/spore_stims/simple_05_A_a.gif","images/stimuli/spore_stims/simple_08_A_b.gif"
"","3172","survey-likert","151","1366286","0.0-41.0","SS1619739740824","similarity_question","","","","","","","","","","","","{""Q0"":1}","[0]","","images/stimuli/spore_stims/complex_07_A_a.gif","images/stimuli/spore_stims/complex_18_A_b.gif"
"","2333","survey-likert","152","1368624","0.0-42.0","SS1619739740824","similarity_question","","","","","","","","","","","","{""Q0"":4}","[0]","","images/stimuli/spore_stims/simple_06_A_b.gif","images/stimuli/spore_stims/simple_15_A_a.gif"
"","2575","survey-likert","153","1371205","0.0-43.0","SS1619739740824","similarity_question","","","","","","","","","","","","{""Q0"":6}","[0]","","images/stimuli/spore_stims/simple_16_A_b.gif","images/stimuli/spore_stims/simple_11_A_a.gif"
"","2559","survey-likert","154","1373773","0.0-44.0","SS1619739740824","similarity_question","","","","","","","","","","","","{""Q0"":5}","[0]","","images/stimuli/spore_stims/simple_17_A_a.gif","images/stimuli/spore_stims/simple_03_A_b.gif"
"[{""page_index"":0,""viewing_time"":5906}]","5907","instructions","155","1379684","0.0-45.0","SS1619739740824","instructions","","","","","","","","","","","","","","","",""
"","8172","survey-likert","156","1387861","0.0-46.0","SS1619739740824","","","","","","","","","images/stimuli/spore_stims/complex_10_A_b.gif","","","","{""Q0"":4}","[0]","","",""
"","2939","survey-likert","157","1390805","0.0-47.0","SS1619739740824","","","","","","","","","images/stimuli/spore_stims/simple_06_A_b.gif","","","","{""Q0"":0}","[0]","","",""
"","1978","survey-likert","158","1392789","0.0-48.0","SS1619739740824","","","","","","","","","images/stimuli/spore_stims/complex_13_A_a.gif","","","","{""Q0"":4}","[0]","","",""
"","1995","survey-likert","159","1394789","0.0-49.0","SS1619739740824","","","","","","","","","images/stimuli/spore_stims/complex_14_A_a.gif","","","","{""Q0"":6}","[0]","","",""
"","2129","survey-likert","160","1396925","0.0-50.0","SS1619739740824","","","","","","","","","images/stimuli/spore_stims/simple_08_A_b.gif","","","","{""Q0"":0}","[0]","","",""
"","3842","survey-likert","161","1400774","0.0-51.0","SS1619739740824","","","","","","","","","images/stimuli/spore_stims/complex_02_A_b.gif","","","","{""Q0"":4}","[0]","","",""
"","2380","survey-likert","162","1403159","0.0-52.0","SS1619739740824","","","","","","","","","images/stimuli/spore_stims/simple_11_A_a.gif","","","","{""Q0"":2}","[0]","","",""
"","3320","survey-likert","163","1406484","0.0-53.0","SS1619739740824","","","","","","","","","images/stimuli/spore_stims/complex_07_A_a.gif","","","","{""Q0"":6}","[0]","","",""
"","2003","survey-likert","164","1408493","0.0-54.0","SS1619739740824","","","","","","","","","images/stimuli/spore_stims/simple_03_A_b.gif","","","","{""Q0"":1}","[0]","","",""
"","2627","survey-likert","165","1411125","0.0-55.0","SS1619739740824","","","","","","","","","images/stimuli/spore_stims/complex_14_A_b.gif","","","","{""Q0"":5}","[0]","","",""
"","3051","survey-likert","166","1414181","0.0-56.0","SS1619739740824","","","","","","","","","images/stimuli/spore_stims/simple_09_A_a.gif","","","","{""Q0"":0}","[0]","","",""
"","2265","survey-likert","167","1416452","0.0-57.0","SS1619739740824","","","","","","","","","images/stimuli/spore_stims/simple_06_A_a.gif","","","","{""Q0"":1}","[0]","","",""
"[{""page_index"":0,""viewing_time"":2770}]","2770","instructions","168","1419229","0.0-58.0","SS1619739740824","instructions","","","","","","","","","","","","","","","",""
"","4543","demog-age","169","1423782","0.0-59.0","SS1619739740824","","","","","","","","","","","","","{""age"":""26""}","","","",""
"","12204","demog-ethnic-US","170","1435997","0.0-60.0","SS1619739740824","","","","","","","","","","","","","{""ethnicity"":[""White""]}","[0]","","",""
"","10177","demog-gender-and-education","171","1446181","0.0-61.0","SS1619739740824","","","","","","","","","","","","","{""gender"":""Female"",""education"":""Bachelor's Degree""}","[0,1]","","",""
"","359924","survey-text","172","1806113","0.0-62.0","SS1619739740824","feedback","","","","","","","","","","","","{""Q0"":""You told, in the instructions, that we should press the down arrow key only after the creatures disappear, but you showed an example of what would be a short appearence and a long one. In my case, some creatures just didn't go away, their appearence was nothing like the example. So I ended up pressing the key after the time I was expecting from a long appearence based on your example. Also, I felt really bad seeing those creatures, I felt sick looking at them and I'm sorry. Thank you.""}","","","",""
"[{""page_index"":0,""viewing_time"":1585}]","1585","instructions","173","1807703","0.0-63.0","SS1619739740824","instructions","","","","","","","","","","","","","","","",""
