"view_history","rt","trial_type","trial_index","time_elapsed","internal_node_id","subject","stimulus_type","trial_stimulus","key_press","minimum_viewing_duration","trial_looking_time","block_deviant","block_background","exposure_type","stimulus","block_number","block_type","stimulus_displayed","responses","question_order","math_correct_answer","stimulus_left","stimulus_right"
"[{""page_index"":0,""viewing_time"":10092.999999999998}]","10092.999999999998","instructions","0","10095","0.0-0.0","SS1619740092344","","","","","","","","","","","","","","","","",""
"[{""page_index"":0,""viewing_time"":12195},{""page_index"":1,""viewing_time"":19382}]","31577","instructions","1","43676","0.0-1.0","SS1619740092344","instructions","","","","","","","","","","","","","","","",""
"","7561","sequential-stimulus-presentation-old","2","51742","0.0-2.0","SS1619740092344","","","40","500","8061","null","null","self_paced","","","","","","","","",""
"","5437","sequential-stimulus-presentation-old","3","57681","0.0-3.0","SS1619740092344","","","40","500","5937","null","null","self_paced","","","","","","","","",""
"[{""page_index"":0,""viewing_time"":15546.000000000015}]","15546.000000000015","instructions","4","73229","0.0-4.0","SS1619740092344","instructions","","","","","","","","","","","","","","","",""
"","1443.9999999999854","sequential-stimulus-presentation-old","5","89676","0.0-5.0","SS1619740092344","","","40","500","1943.9999999999854","null","null","forced_long","","","","","","","","",""
"","3028","sequential-stimulus-presentation-old","6","93209","0.0-6.0","SS1619740092344","","","40","500","3528","null","null","forced_long","","","","","","","","",""
"[{""page_index"":0,""viewing_time"":4543.000000000015}]","4543.000000000015","instructions","7","97754","0.0-7.0","SS1619740092344","instructions","","","","","","","","","","","","","","","",""
"[{""page_index"":0,""viewing_time"":9245.000000000015},{""page_index"":1,""viewing_time"":9967.999999999985},{""page_index"":2,""viewing_time"":5445},{""page_index"":3,""viewing_time"":1732},{""page_index"":4,""viewing_time"":1822}]","28213","instructions","8","125969","0.0-8.0","SS1619740092344","instructions","","","","","","","","","","","","","","","",""
"","null","html-keyboard-response","9","127252","0.0-9.0-0.0","SS1619740092344","","","null","","","","","","<p><img src= images/blank.png width =""600"" height = ""600"" style=""position:fixed;top:50%; left:50%; transform: translate(-50%, -50%); border:5px solid black"">","","","","","","","",""
"","599","sequential-stimulus-presentation-old","10","142855","0.0-9.0-1.0","SS1619740092344","trial","","40","500","1099","images/stimuli/spore_stims/complex_17_A_b.gif","images/stimuli/spore_stims/complex_09_A_a.gif","forced_long","","0","complex_dissimilar","images/stimuli/spore_stims/complex_09_A_a.gif","","","","",""
"","null","html-keyboard-response","11","143701","0.0-9.0-0.1","SS1619740092344","","","null","","","","","","<p><img src= images/blank.png width =""600"" height = ""600"" style=""position:fixed;top:50%; left:50%; transform: translate(-50%, -50%); border:5px solid black"">","","","","","","","",""
"","29340","sequential-stimulus-presentation-old","12","173545","0.0-9.0-1.1","SS1619740092344","trial","","40","500","29840","images/stimuli/spore_stims/complex_17_A_b.gif","images/stimuli/spore_stims/complex_09_A_a.gif","forced_long","","0","complex_dissimilar","images/stimuli/spore_stims/complex_09_A_a.gif","","","","",""
"","null","html-keyboard-response","13","174653","0.0-9.0-0.2","SS1619740092344","","","null","","","","","","<p><img src= images/blank.png width =""600"" height = ""600"" style=""position:fixed;top:50%; left:50%; transform: translate(-50%, -50%); border:5px solid black"">","","","","","","","",""
"","53534","sequential-stimulus-presentation-old","14","228693","0.0-9.0-1.2","SS1619740092344","trial","","40","500","54034","images/stimuli/spore_stims/complex_17_A_b.gif","images/stimuli/spore_stims/complex_09_A_a.gif","forced_long","","0","complex_dissimilar","images/stimuli/spore_stims/complex_17_A_b.gif","","","","",""
"","null","html-keyboard-response","15","229910","0.0-9.0-0.3","SS1619740092344","","","null","","","","","","<p><img src= images/blank.png width =""600"" height = ""600"" style=""position:fixed;top:50%; left:50%; transform: translate(-50%, -50%); border:5px solid black"">","","","","","","","",""
"","61692","sequential-stimulus-presentation-old","16","292109","0.0-9.0-1.3","SS1619740092344","trial","","40","500","62192","images/stimuli/spore_stims/complex_17_A_b.gif","images/stimuli/spore_stims/complex_09_A_a.gif","forced_long","","0","complex_dissimilar","images/stimuli/spore_stims/complex_09_A_a.gif","","","","",""
"","null","html-keyboard-response","17","293384","0.0-9.0-0.4","SS1619740092344","","","null","","","","","","<p><img src= images/blank.png width =""600"" height = ""600"" style=""position:fixed;top:50%; left:50%; transform: translate(-50%, -50%); border:5px solid black"">","","","","","","","",""
"","25311","sequential-stimulus-presentation-old","18","319199","0.0-9.0-1.4","SS1619740092344","trial","","40","500","25811","images/stimuli/spore_stims/complex_17_A_b.gif","images/stimuli/spore_stims/complex_09_A_a.gif","forced_long","","0","complex_dissimilar","images/stimuli/spore_stims/complex_17_A_b.gif","","","","",""
"","4547","survey-multi-choice","19","323748","0.0-10.0","SS1619740092344","math_question","","","","","","","","","","","","{""Q0"":""14""}","[0]","14","",""
"","null","html-keyboard-response","20","324989","0.0-11.0-0.0","SS1619740092344","","","null","","","","","","<p><img src= images/blank.png width =""600"" height = ""600"" style=""position:fixed;top:50%; left:50%; transform: translate(-50%, -50%); border:5px solid black"">","","","","","","","",""
"","18343","sequential-stimulus-presentation-old","21","343836","0.0-11.0-1.0","SS1619740092344","trial","","40","500","18843","images/stimuli/spore_stims/complex_10_A_a.gif","images/stimuli/spore_stims/complex_08_A_b.gif","self_paced","","1","complex_dissimilar","images/stimuli/spore_stims/complex_08_A_b.gif","","","","",""
"","null","html-keyboard-response","22","344750","0.0-11.0-0.1","SS1619740092344","","","null","","","","","","<p><img src= images/blank.png width =""600"" height = ""600"" style=""position:fixed;top:50%; left:50%; transform: translate(-50%, -50%); border:5px solid black"">","","","","","","","",""
"","8931.999999999942","sequential-stimulus-presentation-old","23","354186","0.0-11.0-1.1","SS1619740092344","trial","","40","500","9431.999999999942","images/stimuli/spore_stims/complex_10_A_a.gif","images/stimuli/spore_stims/complex_08_A_b.gif","self_paced","","1","complex_dissimilar","images/stimuli/spore_stims/complex_10_A_a.gif","","","","",""
"","null","html-keyboard-response","24","355094","0.0-11.0-0.2","SS1619740092344","","","null","","","","","","<p><img src= images/blank.png width =""600"" height = ""600"" style=""position:fixed;top:50%; left:50%; transform: translate(-50%, -50%); border:5px solid black"">","","","","","","","",""
"","10603.000000000058","sequential-stimulus-presentation-old","25","366201","0.0-11.0-1.2","SS1619740092344","trial","","40","500","11103.000000000058","images/stimuli/spore_stims/complex_10_A_a.gif","images/stimuli/spore_stims/complex_08_A_b.gif","self_paced","","1","complex_dissimilar","images/stimuli/spore_stims/complex_08_A_b.gif","","","","",""
"","null","html-keyboard-response","26","367223","0.0-11.0-0.3","SS1619740092344","","","null","","","","","","<p><img src= images/blank.png width =""600"" height = ""600"" style=""position:fixed;top:50%; left:50%; transform: translate(-50%, -50%); border:5px solid black"">","","","","","","","",""
"","11705.999999999942","sequential-stimulus-presentation-old","27","379431","0.0-11.0-1.3","SS1619740092344","trial","","40","500","12205.999999999942","images/stimuli/spore_stims/complex_10_A_a.gif","images/stimuli/spore_stims/complex_08_A_b.gif","self_paced","","1","complex_dissimilar","images/stimuli/spore_stims/complex_08_A_b.gif","","","","",""
"","null","html-keyboard-response","28","380579","0.0-11.0-0.4","SS1619740092344","","","null","","","","","","<p><img src= images/blank.png width =""600"" height = ""600"" style=""position:fixed;top:50%; left:50%; transform: translate(-50%, -50%); border:5px solid black"">","","","","","","","",""
"","12388","sequential-stimulus-presentation-old","29","393471","0.0-11.0-1.4","SS1619740092344","trial","","40","500","12888","images/stimuli/spore_stims/complex_10_A_a.gif","images/stimuli/spore_stims/complex_08_A_b.gif","self_paced","","1","complex_dissimilar","images/stimuli/spore_stims/complex_10_A_a.gif","","","","",""
"","5919.000000000058","survey-multi-choice","30","399392","0.0-12.0","SS1619740092344","math_question","","","","","","","","","","","","{""Q0"":""11""}","[0]","11","",""
"","null","html-keyboard-response","31","400305","0.0-13.0-0.0","SS1619740092344","","","null","","","","","","<p><img src= images/blank.png width =""600"" height = ""600"" style=""position:fixed;top:50%; left:50%; transform: translate(-50%, -50%); border:5px solid black"">","","","","","","","",""
"","6578","sequential-stimulus-presentation-old","32","407388","0.0-13.0-1.0","SS1619740092344","trial","","40","500","7078","images/stimuli/spore_stims/simple_11_A_b.gif","images/stimuli/spore_stims/simple_03_A_a.gif","self_paced","","2","simple_dissimilar","images/stimuli/spore_stims/simple_03_A_a.gif","","","","",""
"","null","html-keyboard-response","33","408261","0.0-13.0-0.1","SS1619740092344","","","null","","","","","","<p><img src= images/blank.png width =""600"" height = ""600"" style=""position:fixed;top:50%; left:50%; transform: translate(-50%, -50%); border:5px solid black"">","","","","","","","",""
"","9535","sequential-stimulus-presentation-old","34","418300","0.0-13.0-1.1","SS1619740092344","trial","","40","500","10035","images/stimuli/spore_stims/simple_11_A_b.gif","images/stimuli/spore_stims/simple_03_A_a.gif","self_paced","","2","simple_dissimilar","images/stimuli/spore_stims/simple_03_A_a.gif","","","","",""
"","null","html-keyboard-response","35","419230","0.0-13.0-0.2","SS1619740092344","","","null","","","","","","<p><img src= images/blank.png width =""600"" height = ""600"" style=""position:fixed;top:50%; left:50%; transform: translate(-50%, -50%); border:5px solid black"">","","","","","","","",""
"","10356.000000000058","sequential-stimulus-presentation-old","36","430090","0.0-13.0-1.2","SS1619740092344","trial","","40","500","10856.000000000058","images/stimuli/spore_stims/simple_11_A_b.gif","images/stimuli/spore_stims/simple_03_A_a.gif","self_paced","","2","simple_dissimilar","images/stimuli/spore_stims/simple_11_A_b.gif","","","","",""
"","null","html-keyboard-response","37","430933","0.0-13.0-0.3","SS1619740092344","","","null","","","","","","<p><img src= images/blank.png width =""600"" height = ""600"" style=""position:fixed;top:50%; left:50%; transform: translate(-50%, -50%); border:5px solid black"">","","","","","","","",""
"","9228","sequential-stimulus-presentation-old","38","440665","0.0-13.0-1.3","SS1619740092344","trial","","40","500","9728","images/stimuli/spore_stims/simple_11_A_b.gif","images/stimuli/spore_stims/simple_03_A_a.gif","self_paced","","2","simple_dissimilar","images/stimuli/spore_stims/simple_11_A_b.gif","","","","",""
"","null","html-keyboard-response","39","441597","0.0-13.0-0.4","SS1619740092344","","","null","","","","","","<p><img src= images/blank.png width =""600"" height = ""600"" style=""position:fixed;top:50%; left:50%; transform: translate(-50%, -50%); border:5px solid black"">","","","","","","","",""
"","8487","sequential-stimulus-presentation-old","40","450588","0.0-13.0-1.4","SS1619740092344","trial","","40","500","8987","images/stimuli/spore_stims/simple_11_A_b.gif","images/stimuli/spore_stims/simple_03_A_a.gif","self_paced","","2","simple_dissimilar","images/stimuli/spore_stims/simple_03_A_a.gif","","","","",""
"","3803","survey-multi-choice","41","454393","0.0-14.0","SS1619740092344","math_question","","","","","","","","","","","","{""Q0"":""10""}","[0]","10","",""
"","null","html-keyboard-response","42","455605","0.0-15.0-0.0","SS1619740092344","","","null","","","","","","<p><img src= images/blank.png width =""600"" height = ""600"" style=""position:fixed;top:50%; left:50%; transform: translate(-50%, -50%); border:5px solid black"">","","","","","","","",""
"","2039","sequential-stimulus-presentation-old","43","458148","0.0-15.0-1.0","SS1619740092344","trial","","40","500","2539","images/stimuli/spore_stims/simple_16_A_a.gif","images/stimuli/spore_stims/simple_05_A_b.gif","forced_short","","3","simple_dissimilar","images/stimuli/spore_stims/simple_05_A_b.gif","","","","",""
"","null","html-keyboard-response","44","459076","0.0-15.0-0.1","SS1619740092344","","","null","","","","","","<p><img src= images/blank.png width =""600"" height = ""600"" style=""position:fixed;top:50%; left:50%; transform: translate(-50%, -50%); border:5px solid black"">","","","","","","","",""
"","100962","sequential-stimulus-presentation-old","45","560546","0.0-15.0-1.1","SS1619740092344","trial","","40","500","101462","images/stimuli/spore_stims/simple_16_A_a.gif","images/stimuli/spore_stims/simple_05_A_b.gif","forced_short","","3","simple_dissimilar","images/stimuli/spore_stims/simple_16_A_a.gif","","","","",""
"","null","html-keyboard-response","46","561829","0.0-15.0-0.2","SS1619740092344","","","null","","","","","","<p><img src= images/blank.png width =""600"" height = ""600"" style=""position:fixed;top:50%; left:50%; transform: translate(-50%, -50%); border:5px solid black"">","","","","","","","",""
"","12601","sequential-stimulus-presentation-old","47","574934","0.0-15.0-1.2","SS1619740092344","trial","","40","500","13101","images/stimuli/spore_stims/simple_16_A_a.gif","images/stimuli/spore_stims/simple_05_A_b.gif","forced_short","","3","simple_dissimilar","images/stimuli/spore_stims/simple_05_A_b.gif","","","","",""
"","null","html-keyboard-response","48","576137","0.0-15.0-0.3","SS1619740092344","","","null","","","","","","<p><img src= images/blank.png width =""600"" height = ""600"" style=""position:fixed;top:50%; left:50%; transform: translate(-50%, -50%); border:5px solid black"">","","","","","","","",""
"","10846.999999999884","sequential-stimulus-presentation-old","49","587489","0.0-15.0-1.3","SS1619740092344","trial","","40","500","11346.999999999884","images/stimuli/spore_stims/simple_16_A_a.gif","images/stimuli/spore_stims/simple_05_A_b.gif","forced_short","","3","simple_dissimilar","images/stimuli/spore_stims/simple_05_A_b.gif","","","","",""
"","null","html-keyboard-response","50","588687","0.0-15.0-0.4","SS1619740092344","","","null","","","","","","<p><img src= images/blank.png width =""600"" height = ""600"" style=""position:fixed;top:50%; left:50%; transform: translate(-50%, -50%); border:5px solid black"">","","","","","","","",""
"","8175","sequential-stimulus-presentation-old","51","597366","0.0-15.0-1.4","SS1619740092344","trial","","40","500","8675","images/stimuli/spore_stims/simple_16_A_a.gif","images/stimuli/spore_stims/simple_05_A_b.gif","forced_short","","3","simple_dissimilar","images/stimuli/spore_stims/simple_05_A_b.gif","","","","",""
"","null","html-keyboard-response","52","598298","0.0-15.0-0.5","SS1619740092344","","","null","","","","","","<p><img src= images/blank.png width =""600"" height = ""600"" style=""position:fixed;top:50%; left:50%; transform: translate(-50%, -50%); border:5px solid black"">","","","","","","","",""
"","9387","sequential-stimulus-presentation-old","53","608189","0.0-15.0-1.5","SS1619740092344","trial","","40","500","9887","images/stimuli/spore_stims/simple_16_A_a.gif","images/stimuli/spore_stims/simple_05_A_b.gif","forced_short","","3","simple_dissimilar","images/stimuli/spore_stims/simple_05_A_b.gif","","","","",""
"","6109","survey-multi-choice","54","614300","0.0-16.0","SS1619740092344","math_question","","","","","","","","","","","","{""Q0"":""7""}","[0]","7","",""
"","null","html-keyboard-response","55","615280","0.0-17.0-0.0","SS1619740092344","","","null","","","","","","<p><img src= images/blank.png width =""600"" height = ""600"" style=""position:fixed;top:50%; left:50%; transform: translate(-50%, -50%); border:5px solid black"">","","","","","","","",""
"","1246","sequential-stimulus-presentation-old","56","617031","0.0-17.0-1.0","SS1619740092344","trial","","40","500","1746","images/stimuli/spore_stims/complex_03_A_b.gif","images/stimuli/spore_stims/complex_12_A_a.gif","forced_short","","4","complex_dissimilar","images/stimuli/spore_stims/complex_12_A_a.gif","","","","",""
"","null","html-keyboard-response","57","618308","0.0-17.0-0.1","SS1619740092344","","","null","","","","","","<p><img src= images/blank.png width =""600"" height = ""600"" style=""position:fixed;top:50%; left:50%; transform: translate(-50%, -50%); border:5px solid black"">","","","","","","","",""
"","7772","sequential-stimulus-presentation-old","58","626573","0.0-17.0-1.1","SS1619740092344","trial","","40","500","8272","images/stimuli/spore_stims/complex_03_A_b.gif","images/stimuli/spore_stims/complex_12_A_a.gif","forced_short","","4","complex_dissimilar","images/stimuli/spore_stims/complex_12_A_a.gif","","","","",""
"","null","html-keyboard-response","59","627493","0.0-17.0-0.2","SS1619740092344","","","null","","","","","","<p><img src= images/blank.png width =""600"" height = ""600"" style=""position:fixed;top:50%; left:50%; transform: translate(-50%, -50%); border:5px solid black"">","","","","","","","",""
"","9248","sequential-stimulus-presentation-old","60","637232","0.0-17.0-1.2","SS1619740092344","trial","","40","500","9748","images/stimuli/spore_stims/complex_03_A_b.gif","images/stimuli/spore_stims/complex_12_A_a.gif","forced_short","","4","complex_dissimilar","images/stimuli/spore_stims/complex_12_A_a.gif","","","","",""
"","null","html-keyboard-response","61","638101","0.0-17.0-0.3","SS1619740092344","","","null","","","","","","<p><img src= images/blank.png width =""600"" height = ""600"" style=""position:fixed;top:50%; left:50%; transform: translate(-50%, -50%); border:5px solid black"">","","","","","","","",""
"","8671.999999999884","sequential-stimulus-presentation-old","62","647272","0.0-17.0-1.3","SS1619740092344","trial","","40","500","9171.999999999884","images/stimuli/spore_stims/complex_03_A_b.gif","images/stimuli/spore_stims/complex_12_A_a.gif","forced_short","","4","complex_dissimilar","images/stimuli/spore_stims/complex_03_A_b.gif","","","","",""
"","null","html-keyboard-response","63","648527","0.0-17.0-0.4","SS1619740092344","","","null","","","","","","<p><img src= images/blank.png width =""600"" height = ""600"" style=""position:fixed;top:50%; left:50%; transform: translate(-50%, -50%); border:5px solid black"">","","","","","","","",""
"","6765.999999999884","sequential-stimulus-presentation-old","64","655795","0.0-17.0-1.4","SS1619740092344","trial","","40","500","7265.999999999884","images/stimuli/spore_stims/complex_03_A_b.gif","images/stimuli/spore_stims/complex_12_A_a.gif","forced_short","","4","complex_dissimilar","images/stimuli/spore_stims/complex_03_A_b.gif","","","","",""
"","4197","survey-multi-choice","65","659993","0.0-18.0","SS1619740092344","math_question","","","","","","","","","","","","{""Q0"":""7""}","[0]","7","",""
"","null","html-keyboard-response","66","661023","0.0-19.0-0.0","SS1619740092344","","","null","","","","","","<p><img src= images/blank.png width =""600"" height = ""600"" style=""position:fixed;top:50%; left:50%; transform: translate(-50%, -50%); border:5px solid black"">","","","","","","","",""
"","1141","sequential-stimulus-presentation-old","67","677166","0.0-19.0-1.0","SS1619740092344","trial","","40","500","1641","images/stimuli/spore_stims/simple_04_A_a.gif","images/stimuli/spore_stims/simple_17_A_b.gif","forced_long","","5","simple_dissimilar","images/stimuli/spore_stims/simple_17_A_b.gif","","","","",""
"","null","html-keyboard-response","68","678364","0.0-19.0-0.1","SS1619740092344","","","null","","","","","","<p><img src= images/blank.png width =""600"" height = ""600"" style=""position:fixed;top:50%; left:50%; transform: translate(-50%, -50%); border:5px solid black"">","","","","","","","",""
"","6600","sequential-stimulus-presentation-old","69","685468","0.0-19.0-1.1","SS1619740092344","trial","","40","500","7100","images/stimuli/spore_stims/simple_04_A_a.gif","images/stimuli/spore_stims/simple_17_A_b.gif","forced_long","","5","simple_dissimilar","images/stimuli/spore_stims/simple_17_A_b.gif","","","","",""
"","null","html-keyboard-response","70","686331","0.0-19.0-0.2","SS1619740092344","","","null","","","","","","<p><img src= images/blank.png width =""600"" height = ""600"" style=""position:fixed;top:50%; left:50%; transform: translate(-50%, -50%); border:5px solid black"">","","","","","","","",""
"","3290","sequential-stimulus-presentation-old","71","690125","0.0-19.0-1.2","SS1619740092344","trial","","40","500","3790","images/stimuli/spore_stims/simple_04_A_a.gif","images/stimuli/spore_stims/simple_17_A_b.gif","forced_long","","5","simple_dissimilar","images/stimuli/spore_stims/simple_04_A_a.gif","","","","",""
"","null","html-keyboard-response","72","691110","0.0-19.0-0.3","SS1619740092344","","","null","","","","","","<p><img src= images/blank.png width =""600"" height = ""600"" style=""position:fixed;top:50%; left:50%; transform: translate(-50%, -50%); border:5px solid black"">","","","","","","","",""
"","4811","sequential-stimulus-presentation-old","73","696425","0.0-19.0-1.3","SS1619740092344","trial","","40","500","5311","images/stimuli/spore_stims/simple_04_A_a.gif","images/stimuli/spore_stims/simple_17_A_b.gif","forced_long","","5","simple_dissimilar","images/stimuli/spore_stims/simple_17_A_b.gif","","","","",""
"","null","html-keyboard-response","74","697239","0.0-19.0-0.4","SS1619740092344","","","null","","","","","","<p><img src= images/blank.png width =""600"" height = ""600"" style=""position:fixed;top:50%; left:50%; transform: translate(-50%, -50%); border:5px solid black"">","","","","","","","",""
"","2630","sequential-stimulus-presentation-old","75","700374","0.0-19.0-1.4","SS1619740092344","trial","","40","500","3130","images/stimuli/spore_stims/simple_04_A_a.gif","images/stimuli/spore_stims/simple_17_A_b.gif","forced_long","","5","simple_dissimilar","images/stimuli/spore_stims/simple_04_A_a.gif","","","","",""
"","3330.9999999998836","survey-multi-choice","76","703707","0.0-20.0","SS1619740092344","math_question","","","","","","","","","","","","{""Q0"":""7""}","[0]","7","",""
"","null","html-keyboard-response","77","704903","0.0-21.0-0.0","SS1619740092344","","","null","","","","","","<p><img src= images/blank.png width =""600"" height = ""600"" style=""position:fixed;top:50%; left:50%; transform: translate(-50%, -50%); border:5px solid black"">","","","","","","","",""
"","963","sequential-stimulus-presentation-old","78","706370","0.0-21.0-1.0","SS1619740092344","trial","","40","500","1463","images/stimuli/spore_stims/complex_07_A_a.gif","images/stimuli/spore_stims/complex_11_A_b.gif","forced_short","","6","complex_dissimilar","images/stimuli/spore_stims/complex_11_A_b.gif","","","","",""
"","null","html-keyboard-response","79","707563","0.0-21.0-0.1","SS1619740092344","","","null","","","","","","<p><img src= images/blank.png width =""600"" height = ""600"" style=""position:fixed;top:50%; left:50%; transform: translate(-50%, -50%); border:5px solid black"">","","","","","","","",""
"","1611","sequential-stimulus-presentation-old","80","709677","0.0-21.0-1.1","SS1619740092344","trial","","40","500","2111","images/stimuli/spore_stims/complex_07_A_a.gif","images/stimuli/spore_stims/complex_11_A_b.gif","forced_short","","6","complex_dissimilar","images/stimuli/spore_stims/complex_11_A_b.gif","","","","",""
"","null","html-keyboard-response","81","710799","0.0-21.0-0.2","SS1619740092344","","","null","","","","","","<p><img src= images/blank.png width =""600"" height = ""600"" style=""position:fixed;top:50%; left:50%; transform: translate(-50%, -50%); border:5px solid black"">","","","","","","","",""
"","2908","sequential-stimulus-presentation-old","82","714211","0.0-21.0-1.2","SS1619740092344","trial","","40","500","3408","images/stimuli/spore_stims/complex_07_A_a.gif","images/stimuli/spore_stims/complex_11_A_b.gif","forced_short","","6","complex_dissimilar","images/stimuli/spore_stims/complex_11_A_b.gif","","","","",""
"","null","html-keyboard-response","83","715091","0.0-21.0-0.3","SS1619740092344","","","null","","","","","","<p><img src= images/blank.png width =""600"" height = ""600"" style=""position:fixed;top:50%; left:50%; transform: translate(-50%, -50%); border:5px solid black"">","","","","","","","",""
"","1855","sequential-stimulus-presentation-old","84","717451","0.0-21.0-1.3","SS1619740092344","trial","","40","500","2355","images/stimuli/spore_stims/complex_07_A_a.gif","images/stimuli/spore_stims/complex_11_A_b.gif","forced_short","","6","complex_dissimilar","images/stimuli/spore_stims/complex_11_A_b.gif","","","","",""
"","null","html-keyboard-response","85","718314","0.0-21.0-0.4","SS1619740092344","","","null","","","","","","<p><img src= images/blank.png width =""600"" height = ""600"" style=""position:fixed;top:50%; left:50%; transform: translate(-50%, -50%); border:5px solid black"">","","","","","","","",""
"","2164.9999999998836","sequential-stimulus-presentation-old","86","720983","0.0-21.0-1.4","SS1619740092344","trial","","40","500","2664.9999999998836","images/stimuli/spore_stims/complex_07_A_a.gif","images/stimuli/spore_stims/complex_11_A_b.gif","forced_short","","6","complex_dissimilar","images/stimuli/spore_stims/complex_11_A_b.gif","","","","",""
"","3455","survey-multi-choice","87","724440","0.0-22.0","SS1619740092344","math_question","","","","","","","","","","","","{""Q0"":""12""}","[0]","12","",""
"","null","html-keyboard-response","88","725631","0.0-23.0-0.0","SS1619740092344","","","null","","","","","","<p><img src= images/blank.png width =""600"" height = ""600"" style=""position:fixed;top:50%; left:50%; transform: translate(-50%, -50%); border:5px solid black"">","","","","","","","",""
"","3398","sequential-stimulus-presentation-old","89","729533","0.0-23.0-1.0","SS1619740092344","trial","","40","500","3898","images/stimuli/spore_stims/complex_04_A_b.gif","images/stimuli/spore_stims/complex_01_A_a.gif","self_paced","","7","complex_dissimilar","images/stimuli/spore_stims/complex_01_A_a.gif","","","","",""
"","null","html-keyboard-response","90","730521","0.0-23.0-0.1","SS1619740092344","","","null","","","","","","<p><img src= images/blank.png width =""600"" height = ""600"" style=""position:fixed;top:50%; left:50%; transform: translate(-50%, -50%); border:5px solid black"">","","","","","","","",""
"","2174","sequential-stimulus-presentation-old","91","733200","0.0-23.0-1.1","SS1619740092344","trial","","40","500","2674","images/stimuli/spore_stims/complex_04_A_b.gif","images/stimuli/spore_stims/complex_01_A_a.gif","self_paced","","7","complex_dissimilar","images/stimuli/spore_stims/complex_01_A_a.gif","","","","",""
"","null","html-keyboard-response","92","734244","0.0-23.0-0.2","SS1619740092344","","","null","","","","","","<p><img src= images/blank.png width =""600"" height = ""600"" style=""position:fixed;top:50%; left:50%; transform: translate(-50%, -50%); border:5px solid black"">","","","","","","","",""
"","2377.0000000001164","sequential-stimulus-presentation-old","93","737127","0.0-23.0-1.2","SS1619740092344","trial","","40","500","2877.0000000001164","images/stimuli/spore_stims/complex_04_A_b.gif","images/stimuli/spore_stims/complex_01_A_a.gif","self_paced","","7","complex_dissimilar","images/stimuli/spore_stims/complex_01_A_a.gif","","","","",""
"","null","html-keyboard-response","94","738054","0.0-23.0-0.3","SS1619740092344","","","null","","","","","","<p><img src= images/blank.png width =""600"" height = ""600"" style=""position:fixed;top:50%; left:50%; transform: translate(-50%, -50%); border:5px solid black"">","","","","","","","",""
"","2686","sequential-stimulus-presentation-old","95","741244","0.0-23.0-1.3","SS1619740092344","trial","","40","500","3186","images/stimuli/spore_stims/complex_04_A_b.gif","images/stimuli/spore_stims/complex_01_A_a.gif","self_paced","","7","complex_dissimilar","images/stimuli/spore_stims/complex_01_A_a.gif","","","","",""
"","3712.9999999998836","survey-multi-choice","96","744959","0.0-24.0","SS1619740092344","math_question","","","","","","","","","","","","{""Q0"":""12""}","[0]","12","",""
"","null","html-keyboard-response","97","746020","0.0-25.0-0.0","SS1619740092344","","","null","","","","","","<p><img src= images/blank.png width =""600"" height = ""600"" style=""position:fixed;top:50%; left:50%; transform: translate(-50%, -50%); border:5px solid black"">","","","","","","","",""
"","2167","sequential-stimulus-presentation-old","98","748691","0.0-25.0-1.0","SS1619740092344","trial","","40","500","2667","images/stimuli/spore_stims/simple_10_A_b.gif","images/stimuli/spore_stims/simple_17_A_a.gif","self_paced","","8","simple_dissimilar","images/stimuli/spore_stims/simple_17_A_a.gif","","","","",""
"","null","html-keyboard-response","99","749839","0.0-25.0-0.1","SS1619740092344","","","null","","","","","","<p><img src= images/blank.png width =""600"" height = ""600"" style=""position:fixed;top:50%; left:50%; transform: translate(-50%, -50%); border:5px solid black"">","","","","","","","",""
"","2893","sequential-stimulus-presentation-old","100","753236","0.0-25.0-1.1","SS1619740092344","trial","","40","500","3393","images/stimuli/spore_stims/simple_10_A_b.gif","images/stimuli/spore_stims/simple_17_A_a.gif","self_paced","","8","simple_dissimilar","images/stimuli/spore_stims/simple_17_A_a.gif","","","","",""
"","null","html-keyboard-response","101","754481","0.0-25.0-0.2","SS1619740092344","","","null","","","","","","<p><img src= images/blank.png width =""600"" height = ""600"" style=""position:fixed;top:50%; left:50%; transform: translate(-50%, -50%); border:5px solid black"">","","","","","","","",""
"","1895","sequential-stimulus-presentation-old","102","756881","0.0-25.0-1.2","SS1619740092344","trial","","40","500","2395","images/stimuli/spore_stims/simple_10_A_b.gif","images/stimuli/spore_stims/simple_17_A_a.gif","self_paced","","8","simple_dissimilar","images/stimuli/spore_stims/simple_17_A_a.gif","","","","",""
"","null","html-keyboard-response","103","757858","0.0-25.0-0.3","SS1619740092344","","","null","","","","","","<p><img src= images/blank.png width =""600"" height = ""600"" style=""position:fixed;top:50%; left:50%; transform: translate(-50%, -50%); border:5px solid black"">","","","","","","","",""
"","1691","sequential-stimulus-presentation-old","104","760054","0.0-25.0-1.3","SS1619740092344","trial","","40","500","2191","images/stimuli/spore_stims/simple_10_A_b.gif","images/stimuli/spore_stims/simple_17_A_a.gif","self_paced","","8","simple_dissimilar","images/stimuli/spore_stims/simple_10_A_b.gif","","","","",""
"","null","html-keyboard-response","105","761268","0.0-25.0-0.4","SS1619740092344","","","null","","","","","","<p><img src= images/blank.png width =""600"" height = ""600"" style=""position:fixed;top:50%; left:50%; transform: translate(-50%, -50%); border:5px solid black"">","","","","","","","",""
"","1116","sequential-stimulus-presentation-old","106","762889","0.0-25.0-1.4","SS1619740092344","trial","","40","500","1616","images/stimuli/spore_stims/simple_10_A_b.gif","images/stimuli/spore_stims/simple_17_A_a.gif","self_paced","","8","simple_dissimilar","images/stimuli/spore_stims/simple_10_A_b.gif","","","","",""
"","null","html-keyboard-response","107","763840","0.0-25.0-0.5","SS1619740092344","","","null","","","","","","<p><img src= images/blank.png width =""600"" height = ""600"" style=""position:fixed;top:50%; left:50%; transform: translate(-50%, -50%); border:5px solid black"">","","","","","","","",""
"","1761","sequential-stimulus-presentation-old","108","766106","0.0-25.0-1.5","SS1619740092344","trial","","40","500","2261","images/stimuli/spore_stims/simple_10_A_b.gif","images/stimuli/spore_stims/simple_17_A_a.gif","self_paced","","8","simple_dissimilar","images/stimuli/spore_stims/simple_17_A_a.gif","","","","",""
"","2723","survey-multi-choice","109","768831","0.0-26.0","SS1619740092344","math_question","","","","","","","","","","","","{""Q0"":""16""}","[0]","16","",""
"","null","html-keyboard-response","110","769994","0.0-27.0-0.0","SS1619740092344","","","null","","","","","","<p><img src= images/blank.png width =""600"" height = ""600"" style=""position:fixed;top:50%; left:50%; transform: translate(-50%, -50%); border:5px solid black"">","","","","","","","",""
"","2684","sequential-stimulus-presentation-old","111","787683","0.0-27.0-1.0","SS1619740092344","trial","","40","500","3184","images/stimuli/spore_stims/simple_09_A_a.gif","images/stimuli/spore_stims/simple_04_A_b.gif","forced_long","","9","simple_dissimilar","images/stimuli/spore_stims/simple_04_A_b.gif","","","","",""
"","null","html-keyboard-response","112","788666","0.0-27.0-0.1","SS1619740092344","","","null","","","","","","<p><img src= images/blank.png width =""600"" height = ""600"" style=""position:fixed;top:50%; left:50%; transform: translate(-50%, -50%); border:5px solid black"">","","","","","","","",""
"","1820","sequential-stimulus-presentation-old","113","790991","0.0-27.0-1.1","SS1619740092344","trial","","40","500","2320","images/stimuli/spore_stims/simple_09_A_a.gif","images/stimuli/spore_stims/simple_04_A_b.gif","forced_long","","9","simple_dissimilar","images/stimuli/spore_stims/simple_04_A_b.gif","","","","",""
"","null","html-keyboard-response","114","792180","0.0-27.0-0.2","SS1619740092344","","","null","","","","","","<p><img src= images/blank.png width =""600"" height = ""600"" style=""position:fixed;top:50%; left:50%; transform: translate(-50%, -50%); border:5px solid black"">","","","","","","","",""
"","1524","sequential-stimulus-presentation-old","115","794208","0.0-27.0-1.2","SS1619740092344","trial","","40","500","2024","images/stimuli/spore_stims/simple_09_A_a.gif","images/stimuli/spore_stims/simple_04_A_b.gif","forced_long","","9","simple_dissimilar","images/stimuli/spore_stims/simple_04_A_b.gif","","","","",""
"","null","html-keyboard-response","116","795036","0.0-27.0-0.3","SS1619740092344","","","null","","","","","","<p><img src= images/blank.png width =""600"" height = ""600"" style=""position:fixed;top:50%; left:50%; transform: translate(-50%, -50%); border:5px solid black"">","","","","","","","",""
"","2483","sequential-stimulus-presentation-old","117","798022","0.0-27.0-1.3","SS1619740092344","trial","","40","500","2983","images/stimuli/spore_stims/simple_09_A_a.gif","images/stimuli/spore_stims/simple_04_A_b.gif","forced_long","","9","simple_dissimilar","images/stimuli/spore_stims/simple_09_A_a.gif","","","","",""
"","null","html-keyboard-response","118","798928","0.0-27.0-0.4","SS1619740092344","","","null","","","","","","<p><img src= images/blank.png width =""600"" height = ""600"" style=""position:fixed;top:50%; left:50%; transform: translate(-50%, -50%); border:5px solid black"">","","","","","","","",""
"","861.0000000001164","sequential-stimulus-presentation-old","119","800296","0.0-27.0-1.4","SS1619740092344","trial","","40","500","1361.0000000001164","images/stimuli/spore_stims/simple_09_A_a.gif","images/stimuli/spore_stims/simple_04_A_b.gif","forced_long","","9","simple_dissimilar","images/stimuli/spore_stims/simple_04_A_b.gif","","","","",""
"","null","html-keyboard-response","120","801549","0.0-27.0-0.5","SS1619740092344","","","null","","","","","","<p><img src= images/blank.png width =""600"" height = ""600"" style=""position:fixed;top:50%; left:50%; transform: translate(-50%, -50%); border:5px solid black"">","","","","","","","",""
"","1210","sequential-stimulus-presentation-old","121","803265","0.0-27.0-1.5","SS1619740092344","trial","","40","500","1710","images/stimuli/spore_stims/simple_09_A_a.gif","images/stimuli/spore_stims/simple_04_A_b.gif","forced_long","","9","simple_dissimilar","images/stimuli/spore_stims/simple_09_A_a.gif","","","","",""
"","4456.000000000116","survey-multi-choice","122","807724","0.0-28.0","SS1619740092344","math_question","","","","","","","","","","","","{""Q0"":""16""}","[0]","16","",""
"","null","html-keyboard-response","123","808834","0.0-29.0-0.0","SS1619740092344","","","null","","","","","","<p><img src= images/blank.png width =""600"" height = ""600"" style=""position:fixed;top:50%; left:50%; transform: translate(-50%, -50%); border:5px solid black"">","","","","","","","",""
"","754.0000000001164","sequential-stimulus-presentation-old","124","824594","0.0-29.0-1.0","SS1619740092344","trial","","40","500","1254.0000000001164","images/stimuli/spore_stims/complex_03_A_a.gif","images/stimuli/spore_stims/complex_06_A_b.gif","forced_long","","10","complex_dissimilar","images/stimuli/spore_stims/complex_06_A_b.gif","","","","",""
"","null","html-keyboard-response","125","825487","0.0-29.0-0.1","SS1619740092344","","","null","","","","","","<p><img src= images/blank.png width =""600"" height = ""600"" style=""position:fixed;top:50%; left:50%; transform: translate(-50%, -50%); border:5px solid black"">","","","","","","","",""
"","1402.9999999998836","sequential-stimulus-presentation-old","126","827395","0.0-29.0-1.1","SS1619740092344","trial","","40","500","1902.9999999998836","images/stimuli/spore_stims/complex_03_A_a.gif","images/stimuli/spore_stims/complex_06_A_b.gif","forced_long","","10","complex_dissimilar","images/stimuli/spore_stims/complex_06_A_b.gif","","","","",""
"","null","html-keyboard-response","127","828507","0.0-29.0-0.2","SS1619740092344","","","null","","","","","","<p><img src= images/blank.png width =""600"" height = ""600"" style=""position:fixed;top:50%; left:50%; transform: translate(-50%, -50%); border:5px solid black"">","","","","","","","",""
"","1510","sequential-stimulus-presentation-old","128","830523","0.0-29.0-1.2","SS1619740092344","trial","","40","500","2010","images/stimuli/spore_stims/complex_03_A_a.gif","images/stimuli/spore_stims/complex_06_A_b.gif","forced_long","","10","complex_dissimilar","images/stimuli/spore_stims/complex_06_A_b.gif","","","","",""
"","null","html-keyboard-response","129","831509","0.0-29.0-0.3","SS1619740092344","","","null","","","","","","<p><img src= images/blank.png width =""600"" height = ""600"" style=""position:fixed;top:50%; left:50%; transform: translate(-50%, -50%); border:5px solid black"">","","","","","","","",""
"","218","sequential-stimulus-presentation-old","130","832233","0.0-29.0-1.3","SS1619740092344","trial","","40","500","718","images/stimuli/spore_stims/complex_03_A_a.gif","images/stimuli/spore_stims/complex_06_A_b.gif","forced_long","","10","complex_dissimilar","images/stimuli/spore_stims/complex_06_A_b.gif","","","","",""
"","null","html-keyboard-response","131","833533","0.0-29.0-0.4","SS1619740092344","","","null","","","","","","<p><img src= images/blank.png width =""600"" height = ""600"" style=""position:fixed;top:50%; left:50%; transform: translate(-50%, -50%); border:5px solid black"">","","","","","","","",""
"","1503.0000000001164","sequential-stimulus-presentation-old","132","835541","0.0-29.0-1.4","SS1619740092344","trial","","40","500","2003.0000000001164","images/stimuli/spore_stims/complex_03_A_a.gif","images/stimuli/spore_stims/complex_06_A_b.gif","forced_long","","10","complex_dissimilar","images/stimuli/spore_stims/complex_06_A_b.gif","","","","",""
"","3262.0000000001164","survey-multi-choice","133","838806","0.0-30.0","SS1619740092344","math_question","","","","","","","","","","","","{""Q0"":""10""}","[0]","10","",""
"","null","html-keyboard-response","134","839879","0.0-31.0-0.0","SS1619740092344","","","null","","","","","","<p><img src= images/blank.png width =""600"" height = ""600"" style=""position:fixed;top:50%; left:50%; transform: translate(-50%, -50%); border:5px solid black"">","","","","","","","",""
"","555.0000000001164","sequential-stimulus-presentation-old","135","840940","0.0-31.0-1.0","SS1619740092344","trial","","40","500","1055.0000000001164","images/stimuli/spore_stims/simple_09_A_b.gif","images/stimuli/spore_stims/simple_13_A_a.gif","forced_short","","11","simple_dissimilar","images/stimuli/spore_stims/simple_13_A_a.gif","","","","",""
"","null","html-keyboard-response","136","842128","0.0-31.0-0.1","SS1619740092344","","","null","","","","","","<p><img src= images/blank.png width =""600"" height = ""600"" style=""position:fixed;top:50%; left:50%; transform: translate(-50%, -50%); border:5px solid black"">","","","","","","","",""
"","2166","sequential-stimulus-presentation-old","137","844800","0.0-31.0-1.1","SS1619740092344","trial","","40","500","2666","images/stimuli/spore_stims/simple_09_A_b.gif","images/stimuli/spore_stims/simple_13_A_a.gif","forced_short","","11","simple_dissimilar","images/stimuli/spore_stims/simple_09_A_b.gif","","","","",""
"","null","html-keyboard-response","138","845821","0.0-31.0-0.2","SS1619740092344","","","null","","","","","","<p><img src= images/blank.png width =""600"" height = ""600"" style=""position:fixed;top:50%; left:50%; transform: translate(-50%, -50%); border:5px solid black"">","","","","","","","",""
"","1331","sequential-stimulus-presentation-old","139","847657","0.0-31.0-1.2","SS1619740092344","trial","","40","500","1831","images/stimuli/spore_stims/simple_09_A_b.gif","images/stimuli/spore_stims/simple_13_A_a.gif","forced_short","","11","simple_dissimilar","images/stimuli/spore_stims/simple_13_A_a.gif","","","","",""
"","null","html-keyboard-response","140","848766","0.0-31.0-0.3","SS1619740092344","","","null","","","","","","<p><img src= images/blank.png width =""600"" height = ""600"" style=""position:fixed;top:50%; left:50%; transform: translate(-50%, -50%); border:5px solid black"">","","","","","","","",""
"","2163.9999999998836","sequential-stimulus-presentation-old","141","851436","0.0-31.0-1.3","SS1619740092344","trial","","40","500","2663.9999999998836","images/stimuli/spore_stims/simple_09_A_b.gif","images/stimuli/spore_stims/simple_13_A_a.gif","forced_short","","11","simple_dissimilar","images/stimuli/spore_stims/simple_13_A_a.gif","","","","",""
"","null","html-keyboard-response","142","852607","0.0-31.0-0.4","SS1619740092344","","","null","","","","","","<p><img src= images/blank.png width =""600"" height = ""600"" style=""position:fixed;top:50%; left:50%; transform: translate(-50%, -50%); border:5px solid black"">","","","","","","","",""
"","1025","sequential-stimulus-presentation-old","143","854137","0.0-31.0-1.4","SS1619740092344","trial","","40","500","1525","images/stimuli/spore_stims/simple_09_A_b.gif","images/stimuli/spore_stims/simple_13_A_a.gif","forced_short","","11","simple_dissimilar","images/stimuli/spore_stims/simple_13_A_a.gif","","","","",""
"","null","html-keyboard-response","144","855407","0.0-31.0-0.5","SS1619740092344","","","null","","","","","","<p><img src= images/blank.png width =""600"" height = ""600"" style=""position:fixed;top:50%; left:50%; transform: translate(-50%, -50%); border:5px solid black"">","","","","","","","",""
"","1936.0000000001164","sequential-stimulus-presentation-old","145","857849","0.0-31.0-1.5","SS1619740092344","trial","","40","500","2436.0000000001164","images/stimuli/spore_stims/simple_09_A_b.gif","images/stimuli/spore_stims/simple_13_A_a.gif","forced_short","","11","simple_dissimilar","images/stimuli/spore_stims/simple_09_A_b.gif","","","","",""
"[{""page_index"":0,""viewing_time"":4541}]","4542","instructions","146","862395","0.0-32.0","SS1619740092344","instructions","","","","","","","","","","","","","","","",""
"","8393.000000000116","survey-likert","147","870791","0.0-33.0","SS1619740092344","similarity_question","","","","","","","","","","","","{""Q0"":4}","[0]","","images/stimuli/spore_stims/simple_04_A_b.gif","images/stimuli/spore_stims/simple_09_A_a.gif"
"","6214.999999999884","survey-likert","148","877012","0.0-34.0","SS1619740092344","similarity_question","","","","","","","","","","","","{""Q0"":4}","[0]","","images/stimuli/spore_stims/complex_01_A_a.gif","images/stimuli/spore_stims/complex_04_A_b.gif"
"","6135.999999999884","survey-likert","149","883154","0.0-35.0","SS1619740092344","similarity_question","","","","","","","","","","","","{""Q0"":4}","[0]","","images/stimuli/spore_stims/simple_17_A_a.gif","images/stimuli/spore_stims/simple_10_A_b.gif"
"","3459.0000000001164","survey-likert","150","886619","0.0-36.0","SS1619740092344","similarity_question","","","","","","","","","","","","{""Q0"":6}","[0]","","images/stimuli/spore_stims/simple_04_A_a.gif","images/stimuli/spore_stims/simple_17_A_b.gif"
"","4516","survey-likert","151","891141","0.0-37.0","SS1619740092344","similarity_question","","","","","","","","","","","","{""Q0"":1}","[0]","","images/stimuli/spore_stims/complex_06_A_b.gif","images/stimuli/spore_stims/complex_03_A_a.gif"
"","5056","survey-likert","152","896203","0.0-38.0","SS1619740092344","similarity_question","","","","","","","","","","","","{""Q0"":3}","[0]","","images/stimuli/spore_stims/complex_11_A_b.gif","images/stimuli/spore_stims/complex_07_A_a.gif"
"","3865","survey-likert","153","900074","0.0-39.0","SS1619740092344","similarity_question","","","","","","","","","","","","{""Q0"":4}","[0]","","images/stimuli/spore_stims/complex_10_A_a.gif","images/stimuli/spore_stims/complex_08_A_b.gif"
"","5022","survey-likert","154","905102","0.0-40.0","SS1619740092344","similarity_question","","","","","","","","","","","","{""Q0"":5}","[0]","","images/stimuli/spore_stims/simple_09_A_b.gif","images/stimuli/spore_stims/simple_13_A_a.gif"
"","9623","survey-likert","155","914731","0.0-41.0","SS1619740092344","similarity_question","","","","","","","","","","","","{""Q0"":2}","[0]","","images/stimuli/spore_stims/complex_03_A_b.gif","images/stimuli/spore_stims/complex_12_A_a.gif"
"","6148","survey-likert","156","920885","0.0-42.0","SS1619740092344","similarity_question","","","","","","","","","","","","{""Q0"":3}","[0]","","images/stimuli/spore_stims/complex_17_A_b.gif","images/stimuli/spore_stims/complex_09_A_a.gif"
"","9444","survey-likert","157","930336","0.0-43.0","SS1619740092344","similarity_question","","","","","","","","","","","","{""Q0"":3}","[0]","","images/stimuli/spore_stims/simple_11_A_b.gif","images/stimuli/spore_stims/simple_03_A_a.gif"
"","4539","survey-likert","158","934881","0.0-44.0","SS1619740092344","similarity_question","","","","","","","","","","","","{""Q0"":2}","[0]","","images/stimuli/spore_stims/simple_16_A_a.gif","images/stimuli/spore_stims/simple_05_A_b.gif"
"[{""page_index"":0,""viewing_time"":4741}]","4741","instructions","159","939626","0.0-45.0","SS1619740092344","instructions","","","","","","","","","","","","","","","",""
"","6860.999999999884","survey-likert","160","946490","0.0-46.0","SS1619740092344","","","","","","","","","images/stimuli/spore_stims/simple_13_A_a.gif","","","","{""Q0"":2}","[0]","","",""
"","3110.0000000001164","survey-likert","161","949605","0.0-47.0","SS1619740092344","","","","","","","","","images/stimuli/spore_stims/simple_03_A_a.gif","","","","{""Q0"":3}","[0]","","",""
"","5103","survey-likert","162","954714","0.0-48.0","SS1619740092344","","","","","","","","","images/stimuli/spore_stims/complex_03_A_b.gif","","","","{""Q0"":5}","[0]","","",""
"","3324","survey-likert","163","958044","0.0-49.0","SS1619740092344","","","","","","","","","images/stimuli/spore_stims/complex_11_A_b.gif","","","","{""Q0"":5}","[0]","","",""
"","4709","survey-likert","164","962758","0.0-50.0","SS1619740092344","","","","","","","","","images/stimuli/spore_stims/simple_16_A_a.gif","","","","{""Q0"":2}","[0]","","",""
"","3031","survey-likert","165","965794","0.0-51.0","SS1619740092344","","","","","","","","","images/stimuli/spore_stims/complex_06_A_b.gif","","","","{""Q0"":6}","[0]","","",""
"","3482","survey-likert","166","969282","0.0-52.0","SS1619740092344","","","","","","","","","images/stimuli/spore_stims/simple_04_A_a.gif","","","","{""Q0"":1}","[0]","","",""
"","2457","survey-likert","167","971745","0.0-53.0","SS1619740092344","","","","","","","","","images/stimuli/spore_stims/simple_17_A_a.gif","","","","{""Q0"":1}","[0]","","",""
"","4620","survey-likert","168","976370","0.0-54.0","SS1619740092344","","","","","","","","","images/stimuli/spore_stims/complex_10_A_a.gif","","","","{""Q0"":5}","[0]","","",""
"","3695","survey-likert","169","980071","0.0-55.0","SS1619740092344","","","","","","","","","images/stimuli/spore_stims/complex_17_A_b.gif","","","","{""Q0"":6}","[0]","","",""
"","3987","survey-likert","170","984063","0.0-56.0","SS1619740092344","","","","","","","","","images/stimuli/spore_stims/simple_09_A_a.gif","","","","{""Q0"":1}","[0]","","",""
"","3494","survey-likert","171","987563","0.0-57.0","SS1619740092344","","","","","","","","","images/stimuli/spore_stims/complex_01_A_a.gif","","","","{""Q0"":4}","[0]","","",""
"[{""page_index"":0,""viewing_time"":2289}]","2289","instructions","172","989857","0.0-58.0","SS1619740092344","instructions","","","","","","","","","","","","","","","",""
"","3042","demog-age","173","992906","0.0-59.0","SS1619740092344","","","","","","","","","","","","","{""age"":""26""}","","","",""
"","3924","demog-ethnic-US","174","996834","0.0-60.0","SS1619740092344","","","","","","","","","","","","","{""ethnicity"":[""Hispanic or Latino""]}","[0]","","",""
"","6361","demog-gender-and-education","175","1003201","0.0-61.0","SS1619740092344","","","","","","","","","","","","","{""gender"":""Male"",""education"":""Bachelor's Degree""}","[0,1]","","",""
"","22804.000000000116","survey-text","176","1026015","0.0-62.0","SS1619740092344","feedback","","","","","","","","","","","","{""Q0"":""Sometimes the animation wouldn't stop so this took me waaay longer than intended""}","","","",""
"[{""page_index"":0,""viewing_time"":1683}]","1683","instructions","177","1027700","0.0-63.0","SS1619740092344","instructions","","","","","","","","","","","","","","","",""
