"view_history","rt","trial_type","trial_index","time_elapsed","internal_node_id","subject","stimulus_type","trial_stimulus","key_press","minimum_viewing_duration","trial_looking_time","block_deviant","block_background","exposure_type","stimulus","block_number","block_type","stimulus_displayed","responses","question_order","math_correct_answer","stimulus_left","stimulus_right"
"[{""page_index"":0,""viewing_time"":3498.425000005227}]","3498.7350000010338","instructions","0","3500","0.0-0.0","SS1619739395520","","","","","","","","","","","","","","","","",""
"[{""page_index"":0,""viewing_time"":8754.304999994929},{""page_index"":1,""viewing_time"":5764.934999999241}]","14519.47499999369","instructions","1","20022","0.0-1.0","SS1619739395520","instructions","","","","","","","","","","","","","","","",""
"","4604.835000005551","sequential-stimulus-presentation-old","2","25130","0.0-2.0","SS1619739395520","","","40","500","5104.835000005551","null","null","self_paced","","","","","","","","",""
"","4762.995000004594","sequential-stimulus-presentation-old","3","30395","0.0-3.0","SS1619739395520","","","40","500","5262.995000004594","null","null","self_paced","","","","","","","","",""
"[{""page_index"":0,""viewing_time"":23735.590000003867}]","23735.820000001695","instructions","4","54132","0.0-4.0","SS1619739395520","instructions","","","","","","","","","","","","","","","",""
"","742.6400000040303","sequential-stimulus-presentation-old","5","69880","0.0-5.0","SS1619739395520","","","40","500","1242.6400000040303","null","null","forced_long","","","","","","","","",""
"","2254.25499999983","sequential-stimulus-presentation-old","6","72636","0.0-6.0","SS1619739395520","","","40","500","2754.25499999983","null","null","forced_long","","","","","","","","",""
"[{""page_index"":0,""viewing_time"":1232.1950000041397}]","1232.2899999999208","instructions","7","73869","0.0-7.0","SS1619739395520","instructions","","","","","","","","","","","","","","","",""
"[{""page_index"":0,""viewing_time"":5779.910000004747},{""page_index"":1,""viewing_time"":4041.0249999986263},{""page_index"":2,""viewing_time"":2906.3049999967916},{""page_index"":3,""viewing_time"":1252.5650000025053},{""page_index"":4,""viewing_time"":852.6199999978417}]","14832.570000005944","instructions","8","88703","0.0-8.0","SS1619739395520","instructions","","","","","","","","","","","","","","","",""
"","null","html-keyboard-response","9","89631","0.0-9.0-0.0","SS1619739395520","","","null","","","","","","<p><img src= images/blank.png width =""600"" height = ""600"" style=""position:fixed;top:50%; left:50%; transform: translate(-50%, -50%); border:5px solid black"">","","","","","","","",""
"","821.9650000028196","sequential-stimulus-presentation-old","10","105461","0.0-9.0-1.0","SS1619739395520","trial","","40","500","1321.9650000028196","images/stimuli/spore_stims/simple_16_A_b.gif","images/stimuli/spore_stims/simple_01_A_a.gif","forced_long","","0","simple_dissimilar","images/stimuli/spore_stims/simple_01_A_a.gif","","","","",""
"","null","html-keyboard-response","11","106540","0.0-9.0-0.1","SS1619739395520","","","null","","","","","","<p><img src= images/blank.png width =""600"" height = ""600"" style=""position:fixed;top:50%; left:50%; transform: translate(-50%, -50%); border:5px solid black"">","","","","","","","",""
"","1595.8499999978812","sequential-stimulus-presentation-old","12","108644","0.0-9.0-1.1","SS1619739395520","trial","","40","500","2095.8499999978812","images/stimuli/spore_stims/simple_16_A_b.gif","images/stimuli/spore_stims/simple_01_A_a.gif","forced_long","","0","simple_dissimilar","images/stimuli/spore_stims/simple_01_A_a.gif","","","","",""
"","null","html-keyboard-response","13","109673","0.0-9.0-0.2","SS1619739395520","","","null","","","","","","<p><img src= images/blank.png width =""600"" height = ""600"" style=""position:fixed;top:50%; left:50%; transform: translate(-50%, -50%); border:5px solid black"">","","","","","","","",""
"","1767.390000000887","sequential-stimulus-presentation-old","14","111945","0.0-9.0-1.2","SS1619739395520","trial","","40","500","2267.390000000887","images/stimuli/spore_stims/simple_16_A_b.gif","images/stimuli/spore_stims/simple_01_A_a.gif","forced_long","","0","simple_dissimilar","images/stimuli/spore_stims/simple_01_A_a.gif","","","","",""
"","null","html-keyboard-response","15","112749","0.0-9.0-0.3","SS1619739395520","","","null","","","","","","<p><img src= images/blank.png width =""600"" height = ""600"" style=""position:fixed;top:50%; left:50%; transform: translate(-50%, -50%); border:5px solid black"">","","","","","","","",""
"","2245.184999999765","sequential-stimulus-presentation-old","16","115499","0.0-9.0-1.3","SS1619739395520","trial","","40","500","2745.184999999765","images/stimuli/spore_stims/simple_16_A_b.gif","images/stimuli/spore_stims/simple_01_A_a.gif","forced_long","","0","simple_dissimilar","images/stimuli/spore_stims/simple_01_A_a.gif","","","","",""
"","null","html-keyboard-response","17","116641","0.0-9.0-0.4","SS1619739395520","","","null","","","","","","<p><img src= images/blank.png width =""600"" height = ""600"" style=""position:fixed;top:50%; left:50%; transform: translate(-50%, -50%); border:5px solid black"">","","","","","","","",""
"","790.0949999966542","sequential-stimulus-presentation-old","18","117935","0.0-9.0-1.4","SS1619739395520","trial","","40","500","1290.0949999966542","images/stimuli/spore_stims/simple_16_A_b.gif","images/stimuli/spore_stims/simple_01_A_a.gif","forced_long","","0","simple_dissimilar","images/stimuli/spore_stims/simple_01_A_a.gif","","","","",""
"","4295.879999997851","survey-multi-choice","19","122234","0.0-10.0","SS1619739395520","math_question","","","","","","","","","","","","{""Q0"":""10""}","[0]","10","",""
"","null","html-keyboard-response","20","123098","0.0-11.0-0.0","SS1619739395520","","","null","","","","","","<p><img src= images/blank.png width =""600"" height = ""600"" style=""position:fixed;top:50%; left:50%; transform: translate(-50%, -50%); border:5px solid black"">","","","","","","","",""
"","3593.249999998079","sequential-stimulus-presentation-old","21","127197","0.0-11.0-1.0","SS1619739395520","trial","","40","500","4093.249999998079","images/stimuli/spore_stims/complex_15_A_b.gif","images/stimuli/spore_stims/complex_12_A_a.gif","self_paced","","1","complex_dissimilar","images/stimuli/spore_stims/complex_12_A_a.gif","","","","",""
"","null","html-keyboard-response","22","128240","0.0-11.0-0.1","SS1619739395520","","","null","","","","","","<p><img src= images/blank.png width =""600"" height = ""600"" style=""position:fixed;top:50%; left:50%; transform: translate(-50%, -50%); border:5px solid black"">","","","","","","","",""
"","2705.324999995355","sequential-stimulus-presentation-old","23","131449","0.0-11.0-1.1","SS1619739395520","trial","","40","500","3205.324999995355","images/stimuli/spore_stims/complex_15_A_b.gif","images/stimuli/spore_stims/complex_12_A_a.gif","self_paced","","1","complex_dissimilar","images/stimuli/spore_stims/complex_12_A_a.gif","","","","",""
"","null","html-keyboard-response","24","132332","0.0-11.0-0.2","SS1619739395520","","","null","","","","","","<p><img src= images/blank.png width =""600"" height = ""600"" style=""position:fixed;top:50%; left:50%; transform: translate(-50%, -50%); border:5px solid black"">","","","","","","","",""
"","1772.6299999994808","sequential-stimulus-presentation-old","25","134609","0.0-11.0-1.2","SS1619739395520","trial","","40","500","2272.629999999481","images/stimuli/spore_stims/complex_15_A_b.gif","images/stimuli/spore_stims/complex_12_A_a.gif","self_paced","","1","complex_dissimilar","images/stimuli/spore_stims/complex_12_A_a.gif","","","","",""
"","null","html-keyboard-response","26","135854","0.0-11.0-0.3","SS1619739395520","","","null","","","","","","<p><img src= images/blank.png width =""600"" height = ""600"" style=""position:fixed;top:50%; left:50%; transform: translate(-50%, -50%); border:5px solid black"">","","","","","","","",""
"","4521.609999996144","sequential-stimulus-presentation-old","27","140879","0.0-11.0-1.3","SS1619739395520","trial","","40","500","5021.609999996144","images/stimuli/spore_stims/complex_15_A_b.gif","images/stimuli/spore_stims/complex_12_A_a.gif","self_paced","","1","complex_dissimilar","images/stimuli/spore_stims/complex_15_A_b.gif","","","","",""
"","2556.915000001027","survey-multi-choice","28","143438","0.0-12.0","SS1619739395520","math_question","","","","","","","","","","","","{""Q0"":""11""}","[0]","11","",""
"","null","html-keyboard-response","29","144460","0.0-13.0-0.0","SS1619739395520","","","null","","","","","","<p><img src= images/blank.png width =""600"" height = ""600"" style=""position:fixed;top:50%; left:50%; transform: translate(-50%, -50%); border:5px solid black"">","","","","","","","",""
"","2664.3350000013015","sequential-stimulus-presentation-old","30","147629","0.0-13.0-1.0","SS1619739395520","trial","","40","500","3164.3350000013015","images/stimuli/spore_stims/simple_14_A_a.gif","images/stimuli/spore_stims/simple_09_A_b.gif","self_paced","","2","simple_dissimilar","images/stimuli/spore_stims/simple_09_A_b.gif","","","","",""
"","null","html-keyboard-response","31","148642","0.0-13.0-0.1","SS1619739395520","","","null","","","","","","<p><img src= images/blank.png width =""600"" height = ""600"" style=""position:fixed;top:50%; left:50%; transform: translate(-50%, -50%); border:5px solid black"">","","","","","","","",""
"","1495.2900000062073","sequential-stimulus-presentation-old","32","150641","0.0-13.0-1.1","SS1619739395520","trial","","40","500","1995.2900000062073","images/stimuli/spore_stims/simple_14_A_a.gif","images/stimuli/spore_stims/simple_09_A_b.gif","self_paced","","2","simple_dissimilar","images/stimuli/spore_stims/simple_09_A_b.gif","","","","",""
"","null","html-keyboard-response","33","151624","0.0-13.0-0.2","SS1619739395520","","","null","","","","","","<p><img src= images/blank.png width =""600"" height = ""600"" style=""position:fixed;top:50%; left:50%; transform: translate(-50%, -50%); border:5px solid black"">","","","","","","","",""
"","1886.0599999970873","sequential-stimulus-presentation-old","34","154016","0.0-13.0-1.2","SS1619739395520","trial","","40","500","2386.0599999970873","images/stimuli/spore_stims/simple_14_A_a.gif","images/stimuli/spore_stims/simple_09_A_b.gif","self_paced","","2","simple_dissimilar","images/stimuli/spore_stims/simple_09_A_b.gif","","","","",""
"","null","html-keyboard-response","35","154931","0.0-13.0-0.3","SS1619739395520","","","null","","","","","","<p><img src= images/blank.png width =""600"" height = ""600"" style=""position:fixed;top:50%; left:50%; transform: translate(-50%, -50%); border:5px solid black"">","","","","","","","",""
"","600.5700000023353","sequential-stimulus-presentation-old","36","156040","0.0-13.0-1.3","SS1619739395520","trial","","40","500","1100.5700000023353","images/stimuli/spore_stims/simple_14_A_a.gif","images/stimuli/spore_stims/simple_09_A_b.gif","self_paced","","2","simple_dissimilar","images/stimuli/spore_stims/simple_09_A_b.gif","","","","",""
"","null","html-keyboard-response","37","157316","0.0-13.0-0.4","SS1619739395520","","","null","","","","","","<p><img src= images/blank.png width =""600"" height = ""600"" style=""position:fixed;top:50%; left:50%; transform: translate(-50%, -50%); border:5px solid black"">","","","","","","","",""
"","1493.0650000023888","sequential-stimulus-presentation-old","38","159315","0.0-13.0-1.4","SS1619739395520","trial","","40","500","1993.0650000023888","images/stimuli/spore_stims/simple_14_A_a.gif","images/stimuli/spore_stims/simple_09_A_b.gif","self_paced","","2","simple_dissimilar","images/stimuli/spore_stims/simple_09_A_b.gif","","","","",""
"","2179.2099999947823","survey-multi-choice","39","161496","0.0-14.0","SS1619739395520","math_question","","","","","","","","","","","","{""Q0"":""5""}","[0]","5","",""
"","null","html-keyboard-response","40","162304","0.0-15.0-0.0","SS1619739395520","","","null","","","","","","<p><img src= images/blank.png width =""600"" height = ""600"" style=""position:fixed;top:50%; left:50%; transform: translate(-50%, -50%); border:5px solid black"">","","","","","","","",""
"","2180.7300000000396","sequential-stimulus-presentation-old","41","164989","0.0-15.0-1.0","SS1619739395520","trial","","40","500","2680.7300000000396","images/stimuli/spore_stims/complex_10_A_a.gif","images/stimuli/spore_stims/complex_06_A_b.gif","self_paced","","3","complex_dissimilar","images/stimuli/spore_stims/complex_06_A_b.gif","","","","",""
"","null","html-keyboard-response","42","165823","0.0-15.0-0.1","SS1619739395520","","","null","","","","","","<p><img src= images/blank.png width =""600"" height = ""600"" style=""position:fixed;top:50%; left:50%; transform: translate(-50%, -50%); border:5px solid black"">","","","","","","","",""
"","39.88000000390457","sequential-stimulus-presentation-old","43","166367","0.0-15.0-1.1","SS1619739395520","trial","","40","500","539.8800000039046","images/stimuli/spore_stims/complex_10_A_a.gif","images/stimuli/spore_stims/complex_06_A_b.gif","self_paced","","3","complex_dissimilar","images/stimuli/spore_stims/complex_06_A_b.gif","","","","",""
"","null","html-keyboard-response","44","167503","0.0-15.0-0.2","SS1619739395520","","","null","","","","","","<p><img src= images/blank.png width =""600"" height = ""600"" style=""position:fixed;top:50%; left:50%; transform: translate(-50%, -50%); border:5px solid black"">","","","","","","","",""
"","397.7999999988242","sequential-stimulus-presentation-old","45","168404","0.0-15.0-1.2","SS1619739395520","trial","","40","500","897.7999999988242","images/stimuli/spore_stims/complex_10_A_a.gif","images/stimuli/spore_stims/complex_06_A_b.gif","self_paced","","3","complex_dissimilar","images/stimuli/spore_stims/complex_06_A_b.gif","","","","",""
"","null","html-keyboard-response","46","169639","0.0-15.0-0.3","SS1619739395520","","","null","","","","","","<p><img src= images/blank.png width =""600"" height = ""600"" style=""position:fixed;top:50%; left:50%; transform: translate(-50%, -50%); border:5px solid black"">","","","","","","","",""
"","254.39000000187661","sequential-stimulus-presentation-old","47","170399","0.0-15.0-1.3","SS1619739395520","trial","","40","500","754.3900000018766","images/stimuli/spore_stims/complex_10_A_a.gif","images/stimuli/spore_stims/complex_06_A_b.gif","self_paced","","3","complex_dissimilar","images/stimuli/spore_stims/complex_06_A_b.gif","","","","",""
"","null","html-keyboard-response","48","171537","0.0-15.0-0.4","SS1619739395520","","","null","","","","","","<p><img src= images/blank.png width =""600"" height = ""600"" style=""position:fixed;top:50%; left:50%; transform: translate(-50%, -50%); border:5px solid black"">","","","","","","","",""
"","566.5200000003097","sequential-stimulus-presentation-old","49","172608","0.0-15.0-1.4","SS1619739395520","trial","","40","500","1066.5200000003097","images/stimuli/spore_stims/complex_10_A_a.gif","images/stimuli/spore_stims/complex_06_A_b.gif","self_paced","","3","complex_dissimilar","images/stimuli/spore_stims/complex_10_A_a.gif","","","","",""
"","2180.704999998852","survey-multi-choice","50","174790","0.0-16.0","SS1619739395520","math_question","","","","","","","","","","","","{""Q0"":""12""}","[0]","12","",""
"","null","html-keyboard-response","51","175932","0.0-17.0-0.0","SS1619739395520","","","null","","","","","","<p><img src= images/blank.png width =""600"" height = ""600"" style=""position:fixed;top:50%; left:50%; transform: translate(-50%, -50%); border:5px solid black"">","","","","","","","",""
"","2484.3949999994948","sequential-stimulus-presentation-old","52","178922","0.0-17.0-1.0","SS1619739395520","trial","","40","500","2984.3949999994948","images/stimuli/spore_stims/complex_17_A_b.gif","images/stimuli/spore_stims/complex_03_A_a.gif","forced_short","","4","complex_dissimilar","images/stimuli/spore_stims/complex_03_A_a.gif","","","","",""
"","null","html-keyboard-response","53","179979","0.0-17.0-0.1","SS1619739395520","","","null","","","","","","<p><img src= images/blank.png width =""600"" height = ""600"" style=""position:fixed;top:50%; left:50%; transform: translate(-50%, -50%); border:5px solid black"">","","","","","","","",""
"","1641.5800000031595","sequential-stimulus-presentation-old","54","182126","0.0-17.0-1.1","SS1619739395520","trial","","40","500","2141.5800000031595","images/stimuli/spore_stims/complex_17_A_b.gif","images/stimuli/spore_stims/complex_03_A_a.gif","forced_short","","4","complex_dissimilar","images/stimuli/spore_stims/complex_03_A_a.gif","","","","",""
"","null","html-keyboard-response","55","182956","0.0-17.0-0.2","SS1619739395520","","","null","","","","","","<p><img src= images/blank.png width =""600"" height = ""600"" style=""position:fixed;top:50%; left:50%; transform: translate(-50%, -50%); border:5px solid black"">","","","","","","","",""
"","636.3649999984773","sequential-stimulus-presentation-old","56","184096","0.0-17.0-1.2","SS1619739395520","trial","","40","500","1136.3649999984773","images/stimuli/spore_stims/complex_17_A_b.gif","images/stimuli/spore_stims/complex_03_A_a.gif","forced_short","","4","complex_dissimilar","images/stimuli/spore_stims/complex_03_A_a.gif","","","","",""
"","null","html-keyboard-response","57","185138","0.0-17.0-0.3","SS1619739395520","","","null","","","","","","<p><img src= images/blank.png width =""600"" height = ""600"" style=""position:fixed;top:50%; left:50%; transform: translate(-50%, -50%); border:5px solid black"">","","","","","","","",""
"","793.7050000036834","sequential-stimulus-presentation-old","58","186436","0.0-17.0-1.3","SS1619739395520","trial","","40","500","1293.7050000036834","images/stimuli/spore_stims/complex_17_A_b.gif","images/stimuli/spore_stims/complex_03_A_a.gif","forced_short","","4","complex_dissimilar","images/stimuli/spore_stims/complex_17_A_b.gif","","","","",""
"","null","html-keyboard-response","59","187706","0.0-17.0-0.4","SS1619739395520","","","null","","","","","","<p><img src= images/blank.png width =""600"" height = ""600"" style=""position:fixed;top:50%; left:50%; transform: translate(-50%, -50%); border:5px solid black"">","","","","","","","",""
"","542.7449999988312","sequential-stimulus-presentation-old","60","188753","0.0-17.0-1.4","SS1619739395520","trial","","40","500","1042.7449999988312","images/stimuli/spore_stims/complex_17_A_b.gif","images/stimuli/spore_stims/complex_03_A_a.gif","forced_short","","4","complex_dissimilar","images/stimuli/spore_stims/complex_03_A_a.gif","","","","",""
"","null","html-keyboard-response","61","189823","0.0-17.0-0.5","SS1619739395520","","","null","","","","","","<p><img src= images/blank.png width =""600"" height = ""600"" style=""position:fixed;top:50%; left:50%; transform: translate(-50%, -50%); border:5px solid black"">","","","","","","","",""
"","946.444999994128","sequential-stimulus-presentation-old","62","191275","0.0-17.0-1.5","SS1619739395520","trial","","40","500","1446.444999994128","images/stimuli/spore_stims/complex_17_A_b.gif","images/stimuli/spore_stims/complex_03_A_a.gif","forced_short","","4","complex_dissimilar","images/stimuli/spore_stims/complex_03_A_a.gif","","","","",""
"","2406.940000000759","survey-multi-choice","63","193684","0.0-18.0","SS1619739395520","math_question","","","","","","","","","","","","{""Q0"":""6""}","[0]","6","",""
"","null","html-keyboard-response","64","194672","0.0-19.0-0.0","SS1619739395520","","","null","","","","","","<p><img src= images/blank.png width =""600"" height = ""600"" style=""position:fixed;top:50%; left:50%; transform: translate(-50%, -50%); border:5px solid black"">","","","","","","","",""
"","1524.9600000024657","sequential-stimulus-presentation-old","65","196702","0.0-19.0-1.0","SS1619739395520","trial","","40","500","2024.9600000024657","images/stimuli/spore_stims/simple_12_A_a.gif","images/stimuli/spore_stims/simple_05_A_b.gif","forced_short","","5","simple_dissimilar","images/stimuli/spore_stims/simple_05_A_b.gif","","","","",""
"","null","html-keyboard-response","66","197793","0.0-19.0-0.1","SS1619739395520","","","null","","","","","","<p><img src= images/blank.png width =""600"" height = ""600"" style=""position:fixed;top:50%; left:50%; transform: translate(-50%, -50%); border:5px solid black"">","","","","","","","",""
"","4738.56999999407","sequential-stimulus-presentation-old","67","203036","0.0-19.0-1.1","SS1619739395520","trial","","40","500","5238.56999999407","images/stimuli/spore_stims/simple_12_A_a.gif","images/stimuli/spore_stims/simple_05_A_b.gif","forced_short","","5","simple_dissimilar","images/stimuli/spore_stims/simple_05_A_b.gif","","","","",""
"","null","html-keyboard-response","68","203871","0.0-19.0-0.2","SS1619739395520","","","null","","","","","","<p><img src= images/blank.png width =""600"" height = ""600"" style=""position:fixed;top:50%; left:50%; transform: translate(-50%, -50%); border:5px solid black"">","","","","","","","",""
"","2957.6000000015483","sequential-stimulus-presentation-old","69","207333","0.0-19.0-1.2","SS1619739395520","trial","","40","500","3457.6000000015483","images/stimuli/spore_stims/simple_12_A_a.gif","images/stimuli/spore_stims/simple_05_A_b.gif","forced_short","","5","simple_dissimilar","images/stimuli/spore_stims/simple_12_A_a.gif","","","","",""
"","null","html-keyboard-response","70","208237","0.0-19.0-0.3","SS1619739395520","","","null","","","","","","<p><img src= images/blank.png width =""600"" height = ""600"" style=""position:fixed;top:50%; left:50%; transform: translate(-50%, -50%); border:5px solid black"">","","","","","","","",""
"","6968.839999994088","sequential-stimulus-presentation-old","71","215714","0.0-19.0-1.3","SS1619739395520","trial","","40","500","7468.839999994088","images/stimuli/spore_stims/simple_12_A_a.gif","images/stimuli/spore_stims/simple_05_A_b.gif","forced_short","","5","simple_dissimilar","images/stimuli/spore_stims/simple_05_A_b.gif","","","","",""
"","null","html-keyboard-response","72","216572","0.0-19.0-0.4","SS1619739395520","","","null","","","","","","<p><img src= images/blank.png width =""600"" height = ""600"" style=""position:fixed;top:50%; left:50%; transform: translate(-50%, -50%); border:5px solid black"">","","","","","","","",""
"","3140.9550000025774","sequential-stimulus-presentation-old","73","220221","0.0-19.0-1.4","SS1619739395520","trial","","40","500","3640.9550000025774","images/stimuli/spore_stims/simple_12_A_a.gif","images/stimuli/spore_stims/simple_05_A_b.gif","forced_short","","5","simple_dissimilar","images/stimuli/spore_stims/simple_12_A_a.gif","","","","",""
"","3183.9099999997416","survey-multi-choice","74","223407","0.0-20.0","SS1619739395520","math_question","","","","","","","","","","","","{""Q0"":""12""}","[0]","12","",""
"","null","html-keyboard-response","75","224653","0.0-21.0-0.0","SS1619739395520","","","null","","","","","","<p><img src= images/blank.png width =""600"" height = ""600"" style=""position:fixed;top:50%; left:50%; transform: translate(-50%, -50%); border:5px solid black"">","","","","","","","",""
"","3945.8100000047125","sequential-stimulus-presentation-old","76","243608","0.0-21.0-1.0","SS1619739395520","trial","","40","500","4445.8100000047125","images/stimuli/spore_stims/simple_19_A_b.gif","images/stimuli/spore_stims/simple_05_A_a.gif","forced_long","","6","simple_dissimilar","images/stimuli/spore_stims/simple_05_A_a.gif","","","","",""
"","null","html-keyboard-response","77","244869","0.0-21.0-0.1","SS1619739395520","","","null","","","","","","<p><img src= images/blank.png width =""600"" height = ""600"" style=""position:fixed;top:50%; left:50%; transform: translate(-50%, -50%); border:5px solid black"">","","","","","","","",""
"","2709.179999998014","sequential-stimulus-presentation-old","78","248084","0.0-21.0-1.1","SS1619739395520","trial","","40","500","3209.179999998014","images/stimuli/spore_stims/simple_19_A_b.gif","images/stimuli/spore_stims/simple_05_A_a.gif","forced_long","","6","simple_dissimilar","images/stimuli/spore_stims/simple_19_A_b.gif","","","","",""
"","null","html-keyboard-response","79","248943","0.0-21.0-0.2","SS1619739395520","","","null","","","","","","<p><img src= images/blank.png width =""600"" height = ""600"" style=""position:fixed;top:50%; left:50%; transform: translate(-50%, -50%); border:5px solid black"">","","","","","","","",""
"","2626.6000000032363","sequential-stimulus-presentation-old","80","252073","0.0-21.0-1.2","SS1619739395520","trial","","40","500","3126.6000000032363","images/stimuli/spore_stims/simple_19_A_b.gif","images/stimuli/spore_stims/simple_05_A_a.gif","forced_long","","6","simple_dissimilar","images/stimuli/spore_stims/simple_05_A_a.gif","","","","",""
"","null","html-keyboard-response","81","252979","0.0-21.0-0.3","SS1619739395520","","","null","","","","","","<p><img src= images/blank.png width =""600"" height = ""600"" style=""position:fixed;top:50%; left:50%; transform: translate(-50%, -50%); border:5px solid black"">","","","","","","","",""
"","4403.040000004694","sequential-stimulus-presentation-old","82","257886","0.0-21.0-1.3","SS1619739395520","trial","","40","500","4903.040000004694","images/stimuli/spore_stims/simple_19_A_b.gif","images/stimuli/spore_stims/simple_05_A_a.gif","forced_long","","6","simple_dissimilar","images/stimuli/spore_stims/simple_19_A_b.gif","","","","",""
"","null","html-keyboard-response","83","258704","0.0-21.0-0.4","SS1619739395520","","","null","","","","","","<p><img src= images/blank.png width =""600"" height = ""600"" style=""position:fixed;top:50%; left:50%; transform: translate(-50%, -50%); border:5px solid black"">","","","","","","","",""
"","3646.8000000022585","sequential-stimulus-presentation-old","84","262859","0.0-21.0-1.4","SS1619739395520","trial","","40","500","4146.8000000022585","images/stimuli/spore_stims/simple_19_A_b.gif","images/stimuli/spore_stims/simple_05_A_a.gif","forced_long","","6","simple_dissimilar","images/stimuli/spore_stims/simple_05_A_a.gif","","","","",""
"","null","html-keyboard-response","85","264151","0.0-21.0-0.5","SS1619739395520","","","null","","","","","","<p><img src= images/blank.png width =""600"" height = ""600"" style=""position:fixed;top:50%; left:50%; transform: translate(-50%, -50%); border:5px solid black"">","","","","","","","",""
"","1720.2400000023772","sequential-stimulus-presentation-old","86","266374","0.0-21.0-1.5","SS1619739395520","trial","","40","500","2220.240000002377","images/stimuli/spore_stims/simple_19_A_b.gif","images/stimuli/spore_stims/simple_05_A_a.gif","forced_long","","6","simple_dissimilar","images/stimuli/spore_stims/simple_05_A_a.gif","","","","",""
"","2187.3950000008335","survey-multi-choice","87","268564","0.0-22.0","SS1619739395520","math_question","","","","","","","","","","","","{""Q0"":""12""}","[0]","12","",""
"","null","html-keyboard-response","88","269381","0.0-23.0-0.0","SS1619739395520","","","null","","","","","","<p><img src= images/blank.png width =""600"" height = ""600"" style=""position:fixed;top:50%; left:50%; transform: translate(-50%, -50%); border:5px solid black"">","","","","","","","",""
"","1371.2499999965075","sequential-stimulus-presentation-old","89","271257","0.0-23.0-1.0","SS1619739395520","trial","","40","500","1871.2499999965075","images/stimuli/spore_stims/simple_18_A_b.gif","images/stimuli/spore_stims/simple_02_A_a.gif","self_paced","","7","simple_dissimilar","images/stimuli/spore_stims/simple_02_A_a.gif","","","","",""
"","null","html-keyboard-response","90","272128","0.0-23.0-0.1","SS1619739395520","","","null","","","","","","<p><img src= images/blank.png width =""600"" height = ""600"" style=""position:fixed;top:50%; left:50%; transform: translate(-50%, -50%); border:5px solid black"">","","","","","","","",""
"","1649.9899999980698","sequential-stimulus-presentation-old","91","274281","0.0-23.0-1.1","SS1619739395520","trial","","40","500","2149.98999999807","images/stimuli/spore_stims/simple_18_A_b.gif","images/stimuli/spore_stims/simple_02_A_a.gif","self_paced","","7","simple_dissimilar","images/stimuli/spore_stims/simple_18_A_b.gif","","","","",""
"","null","html-keyboard-response","92","275371","0.0-23.0-0.2","SS1619739395520","","","null","","","","","","<p><img src= images/blank.png width =""600"" height = ""600"" style=""position:fixed;top:50%; left:50%; transform: translate(-50%, -50%); border:5px solid black"">","","","","","","","",""
"","826.7849999974715","sequential-stimulus-presentation-old","93","276701","0.0-23.0-1.2","SS1619739395520","trial","","40","500","1326.7849999974715","images/stimuli/spore_stims/simple_18_A_b.gif","images/stimuli/spore_stims/simple_02_A_a.gif","self_paced","","7","simple_dissimilar","images/stimuli/spore_stims/simple_02_A_a.gif","","","","",""
"","null","html-keyboard-response","94","277979","0.0-23.0-0.3","SS1619739395520","","","null","","","","","","<p><img src= images/blank.png width =""600"" height = ""600"" style=""position:fixed;top:50%; left:50%; transform: translate(-50%, -50%); border:5px solid black"">","","","","","","","",""
"","1584.1100000034203","sequential-stimulus-presentation-old","95","280067","0.0-23.0-1.3","SS1619739395520","trial","","40","500","2084.1100000034203","images/stimuli/spore_stims/simple_18_A_b.gif","images/stimuli/spore_stims/simple_02_A_a.gif","self_paced","","7","simple_dissimilar","images/stimuli/spore_stims/simple_18_A_b.gif","","","","",""
"","null","html-keyboard-response","96","281088","0.0-23.0-0.4","SS1619739395520","","","null","","","","","","<p><img src= images/blank.png width =""600"" height = ""600"" style=""position:fixed;top:50%; left:50%; transform: translate(-50%, -50%); border:5px solid black"">","","","","","","","",""
"","654.1500000021188","sequential-stimulus-presentation-old","97","282248","0.0-23.0-1.4","SS1619739395520","trial","","40","500","1154.1500000021188","images/stimuli/spore_stims/simple_18_A_b.gif","images/stimuli/spore_stims/simple_02_A_a.gif","self_paced","","7","simple_dissimilar","images/stimuli/spore_stims/simple_02_A_a.gif","","","","",""
"","3033.419999999751","survey-multi-choice","98","285284","0.0-24.0","SS1619739395520","math_question","","","","","","","","","","","","{""Q0"":""13""}","[0]","13","",""
"","null","html-keyboard-response","99","286245","0.0-25.0-0.0","SS1619739395520","","","null","","","","","","<p><img src= images/blank.png width =""600"" height = ""600"" style=""position:fixed;top:50%; left:50%; transform: translate(-50%, -50%); border:5px solid black"">","","","","","","","",""
"","1277.7249999999185","sequential-stimulus-presentation-old","100","302529","0.0-25.0-1.0","SS1619739395520","trial","","40","500","1777.7249999999185","images/stimuli/spore_stims/complex_02_A_b.gif","images/stimuli/spore_stims/complex_18_A_a.gif","forced_long","","8","complex_dissimilar","images/stimuli/spore_stims/complex_18_A_a.gif","","","","",""
"","null","html-keyboard-response","101","303372","0.0-25.0-0.1","SS1619739395520","","","null","","","","","","<p><img src= images/blank.png width =""600"" height = ""600"" style=""position:fixed;top:50%; left:50%; transform: translate(-50%, -50%); border:5px solid black"">","","","","","","","",""
"","2367.695000000822","sequential-stimulus-presentation-old","102","306247","0.0-25.0-1.1","SS1619739395520","trial","","40","500","2867.695000000822","images/stimuli/spore_stims/complex_02_A_b.gif","images/stimuli/spore_stims/complex_18_A_a.gif","forced_long","","8","complex_dissimilar","images/stimuli/spore_stims/complex_18_A_a.gif","","","","",""
"","null","html-keyboard-response","103","307256","0.0-25.0-0.2","SS1619739395520","","","null","","","","","","<p><img src= images/blank.png width =""600"" height = ""600"" style=""position:fixed;top:50%; left:50%; transform: translate(-50%, -50%); border:5px solid black"">","","","","","","","",""
"","2936.8649999960326","sequential-stimulus-presentation-old","104","310700","0.0-25.0-1.2","SS1619739395520","trial","","40","500","3436.8649999960326","images/stimuli/spore_stims/complex_02_A_b.gif","images/stimuli/spore_stims/complex_18_A_a.gif","forced_long","","8","complex_dissimilar","images/stimuli/spore_stims/complex_18_A_a.gif","","","","",""
"","null","html-keyboard-response","105","311675","0.0-25.0-0.3","SS1619739395520","","","null","","","","","","<p><img src= images/blank.png width =""600"" height = ""600"" style=""position:fixed;top:50%; left:50%; transform: translate(-50%, -50%); border:5px solid black"">","","","","","","","",""
"","2424.7699999978067","sequential-stimulus-presentation-old","106","314607","0.0-25.0-1.3","SS1619739395520","trial","","40","500","2924.7699999978067","images/stimuli/spore_stims/complex_02_A_b.gif","images/stimuli/spore_stims/complex_18_A_a.gif","forced_long","","8","complex_dissimilar","images/stimuli/spore_stims/complex_18_A_a.gif","","","","",""
"","null","html-keyboard-response","107","315552","0.0-25.0-0.4","SS1619739395520","","","null","","","","","","<p><img src= images/blank.png width =""600"" height = ""600"" style=""position:fixed;top:50%; left:50%; transform: translate(-50%, -50%); border:5px solid black"">","","","","","","","",""
"","843.7249999988126","sequential-stimulus-presentation-old","108","316902","0.0-25.0-1.4","SS1619739395520","trial","","40","500","1343.7249999988126","images/stimuli/spore_stims/complex_02_A_b.gif","images/stimuli/spore_stims/complex_18_A_a.gif","forced_long","","8","complex_dissimilar","images/stimuli/spore_stims/complex_18_A_a.gif","","","","",""
"","null","html-keyboard-response","109","318202","0.0-25.0-0.5","SS1619739395520","","","null","","","","","","<p><img src= images/blank.png width =""600"" height = ""600"" style=""position:fixed;top:50%; left:50%; transform: translate(-50%, -50%); border:5px solid black"">","","","","","","","",""
"","679.5550000024377","sequential-stimulus-presentation-old","110","319390","0.0-25.0-1.5","SS1619739395520","trial","","40","500","1179.5550000024377","images/stimuli/spore_stims/complex_02_A_b.gif","images/stimuli/spore_stims/complex_18_A_a.gif","forced_long","","8","complex_dissimilar","images/stimuli/spore_stims/complex_18_A_a.gif","","","","",""
"","2585.159999995085","survey-multi-choice","111","321977","0.0-26.0","SS1619739395520","math_question","","","","","","","","","","","","{""Q0"":""11""}","[0]","11","",""
"","null","html-keyboard-response","112","322818","0.0-27.0-0.0","SS1619739395520","","","null","","","","","","<p><img src= images/blank.png width =""600"" height = ""600"" style=""position:fixed;top:50%; left:50%; transform: translate(-50%, -50%); border:5px solid black"">","","","","","","","",""
"","3652.9650000011316","sequential-stimulus-presentation-old","113","326978","0.0-27.0-1.0","SS1619739395520","trial","","40","500","4152.965000001132","images/stimuli/spore_stims/simple_15_A_a.gif","images/stimuli/spore_stims/simple_06_A_b.gif","forced_short","","9","simple_dissimilar","images/stimuli/spore_stims/simple_06_A_b.gif","","","","",""
"","null","html-keyboard-response","114","328069","0.0-27.0-0.1","SS1619739395520","","","null","","","","","","<p><img src= images/blank.png width =""600"" height = ""600"" style=""position:fixed;top:50%; left:50%; transform: translate(-50%, -50%); border:5px solid black"">","","","","","","","",""
"","431.4899999953923","sequential-stimulus-presentation-old","115","329007","0.0-27.0-1.1","SS1619739395520","trial","","40","500","931.4899999953923","images/stimuli/spore_stims/simple_15_A_a.gif","images/stimuli/spore_stims/simple_06_A_b.gif","forced_short","","9","simple_dissimilar","images/stimuli/spore_stims/simple_06_A_b.gif","","","","",""
"","null","html-keyboard-response","116","330300","0.0-27.0-0.2","SS1619739395520","","","null","","","","","","<p><img src= images/blank.png width =""600"" height = ""600"" style=""position:fixed;top:50%; left:50%; transform: translate(-50%, -50%); border:5px solid black"">","","","","","","","",""
"","723.5399999990477","sequential-stimulus-presentation-old","117","331529","0.0-27.0-1.2","SS1619739395520","trial","","40","500","1223.5399999990477","images/stimuli/spore_stims/simple_15_A_a.gif","images/stimuli/spore_stims/simple_06_A_b.gif","forced_short","","9","simple_dissimilar","images/stimuli/spore_stims/simple_06_A_b.gif","","","","",""
"","null","html-keyboard-response","118","332360","0.0-27.0-0.3","SS1619739395520","","","null","","","","","","<p><img src= images/blank.png width =""600"" height = ""600"" style=""position:fixed;top:50%; left:50%; transform: translate(-50%, -50%); border:5px solid black"">","","","","","","","",""
"","773.4400000044843","sequential-stimulus-presentation-old","119","333638","0.0-27.0-1.3","SS1619739395520","trial","","40","500","1273.4400000044843","images/stimuli/spore_stims/simple_15_A_a.gif","images/stimuli/spore_stims/simple_06_A_b.gif","forced_short","","9","simple_dissimilar","images/stimuli/spore_stims/simple_06_A_b.gif","","","","",""
"","4261.285000000498","survey-multi-choice","120","337902","0.0-28.0","SS1619739395520","math_question","","","","","","","","","","","","{""Q0"":""6""}","[0]","6","",""
"","null","html-keyboard-response","121","339131","0.0-29.0-0.0","SS1619739395520","","","null","","","","","","<p><img src= images/blank.png width =""600"" height = ""600"" style=""position:fixed;top:50%; left:50%; transform: translate(-50%, -50%); border:5px solid black"">","","","","","","","",""
"","1543.5400000060326","sequential-stimulus-presentation-old","122","341180","0.0-29.0-1.0","SS1619739395520","trial","","40","500","2043.5400000060326","images/stimuli/spore_stims/complex_03_A_b.gif","images/stimuli/spore_stims/complex_15_A_a.gif","forced_short","","10","complex_dissimilar","images/stimuli/spore_stims/complex_15_A_a.gif","","","","",""
"","null","html-keyboard-response","123","342048","0.0-29.0-0.1","SS1619739395520","","","null","","","","","","<p><img src= images/blank.png width =""600"" height = ""600"" style=""position:fixed;top:50%; left:50%; transform: translate(-50%, -50%); border:5px solid black"">","","","","","","","",""
"","278.2299999962561","sequential-stimulus-presentation-old","124","342832","0.0-29.0-1.1","SS1619739395520","trial","","40","500","778.2299999962561","images/stimuli/spore_stims/complex_03_A_b.gif","images/stimuli/spore_stims/complex_15_A_a.gif","forced_short","","10","complex_dissimilar","images/stimuli/spore_stims/complex_15_A_a.gif","","","","",""
"","null","html-keyboard-response","125","343703","0.0-29.0-0.2","SS1619739395520","","","null","","","","","","<p><img src= images/blank.png width =""600"" height = ""600"" style=""position:fixed;top:50%; left:50%; transform: translate(-50%, -50%); border:5px solid black"">","","","","","","","",""
"","3808.440000000701","sequential-stimulus-presentation-old","126","348019","0.0-29.0-1.2","SS1619739395520","trial","","40","500","4308.440000000701","images/stimuli/spore_stims/complex_03_A_b.gif","images/stimuli/spore_stims/complex_15_A_a.gif","forced_short","","10","complex_dissimilar","images/stimuli/spore_stims/complex_15_A_a.gif","","","","",""
"","null","html-keyboard-response","127","349280","0.0-29.0-0.3","SS1619739395520","","","null","","","","","","<p><img src= images/blank.png width =""600"" height = ""600"" style=""position:fixed;top:50%; left:50%; transform: translate(-50%, -50%); border:5px solid black"">","","","","","","","",""
"","653.4350000001723","sequential-stimulus-presentation-old","128","350437","0.0-29.0-1.3","SS1619739395520","trial","","40","500","1153.4350000001723","images/stimuli/spore_stims/complex_03_A_b.gif","images/stimuli/spore_stims/complex_15_A_a.gif","forced_short","","10","complex_dissimilar","images/stimuli/spore_stims/complex_15_A_a.gif","","","","",""
"","null","html-keyboard-response","129","351534","0.0-29.0-0.4","SS1619739395520","","","null","","","","","","<p><img src= images/blank.png width =""600"" height = ""600"" style=""position:fixed;top:50%; left:50%; transform: translate(-50%, -50%); border:5px solid black"">","","","","","","","",""
"","1991.0099999979138","sequential-stimulus-presentation-old","130","354029","0.0-29.0-1.4","SS1619739395520","trial","","40","500","2491.009999997914","images/stimuli/spore_stims/complex_03_A_b.gif","images/stimuli/spore_stims/complex_15_A_a.gif","forced_short","","10","complex_dissimilar","images/stimuli/spore_stims/complex_03_A_b.gif","","","","",""
"","null","html-keyboard-response","131","355109","0.0-29.0-0.5","SS1619739395520","","","null","","","","","","<p><img src= images/blank.png width =""600"" height = ""600"" style=""position:fixed;top:50%; left:50%; transform: translate(-50%, -50%); border:5px solid black"">","","","","","","","",""
"","798.5750000007101","sequential-stimulus-presentation-old","132","356414","0.0-29.0-1.5","SS1619739395520","trial","","40","500","1298.5750000007101","images/stimuli/spore_stims/complex_03_A_b.gif","images/stimuli/spore_stims/complex_15_A_a.gif","forced_short","","10","complex_dissimilar","images/stimuli/spore_stims/complex_03_A_b.gif","","","","",""
"","4120.450000002165","survey-multi-choice","133","360538","0.0-30.0","SS1619739395520","math_question","","","","","","","","","","","","{""Q0"":""12""}","[0]","12","",""
"","null","html-keyboard-response","134","361650","0.0-31.0-0.0","SS1619739395520","","","null","","","","","","<p><img src= images/blank.png width =""600"" height = ""600"" style=""position:fixed;top:50%; left:50%; transform: translate(-50%, -50%); border:5px solid black"">","","","","","","","",""
"","710.4299999991781","sequential-stimulus-presentation-old","135","377366","0.0-31.0-1.0","SS1619739395520","trial","","40","500","1210.429999999178","images/stimuli/spore_stims/complex_17_A_a.gif","images/stimuli/spore_stims/complex_09_A_b.gif","forced_long","","11","complex_dissimilar","images/stimuli/spore_stims/complex_09_A_b.gif","","","","",""
"","null","html-keyboard-response","136","378620","0.0-31.0-0.1","SS1619739395520","","","null","","","","","","<p><img src= images/blank.png width =""600"" height = ""600"" style=""position:fixed;top:50%; left:50%; transform: translate(-50%, -50%); border:5px solid black"">","","","","","","","",""
"","594.1800000000512","sequential-stimulus-presentation-old","137","379720","0.0-31.0-1.1","SS1619739395520","trial","","40","500","1094.1800000000512","images/stimuli/spore_stims/complex_17_A_a.gif","images/stimuli/spore_stims/complex_09_A_b.gif","forced_long","","11","complex_dissimilar","images/stimuli/spore_stims/complex_17_A_a.gif","","","","",""
"","null","html-keyboard-response","138","380614","0.0-31.0-0.2","SS1619739395520","","","null","","","","","","<p><img src= images/blank.png width =""600"" height = ""600"" style=""position:fixed;top:50%; left:50%; transform: translate(-50%, -50%); border:5px solid black"">","","","","","","","",""
"","2033.8650000048801","sequential-stimulus-presentation-old","139","383152","0.0-31.0-1.2","SS1619739395520","trial","","40","500","2533.86500000488","images/stimuli/spore_stims/complex_17_A_a.gif","images/stimuli/spore_stims/complex_09_A_b.gif","forced_long","","11","complex_dissimilar","images/stimuli/spore_stims/complex_09_A_b.gif","","","","",""
"","null","html-keyboard-response","140","384329","0.0-31.0-0.3","SS1619739395520","","","null","","","","","","<p><img src= images/blank.png width =""600"" height = ""600"" style=""position:fixed;top:50%; left:50%; transform: translate(-50%, -50%); border:5px solid black"">","","","","","","","",""
"","2495.309999998426","sequential-stimulus-presentation-old","141","387330","0.0-31.0-1.3","SS1619739395520","trial","","40","500","2995.309999998426","images/stimuli/spore_stims/complex_17_A_a.gif","images/stimuli/spore_stims/complex_09_A_b.gif","forced_long","","11","complex_dissimilar","images/stimuli/spore_stims/complex_17_A_a.gif","","","","",""
"[{""page_index"":0,""viewing_time"":5468.079999998736}]","5468.199999995704","instructions","142","392801","0.0-32.0","SS1619739395520","instructions","","","","","","","","","","","","","","","",""
"","5983.655000003637","survey-likert","143","398788","0.0-33.0","SS1619739395520","similarity_question","","","","","","","","","","","","{""Q0"":1}","[0]","","images/stimuli/spore_stims/complex_06_A_b.gif","images/stimuli/spore_stims/complex_10_A_a.gif"
"","5294.305000003078","survey-likert","144","404092","0.0-34.0","SS1619739395520","similarity_question","","","","","","","","","","","","{""Q0"":1}","[0]","","images/stimuli/spore_stims/complex_18_A_a.gif","images/stimuli/spore_stims/complex_02_A_b.gif"
"","4493.320000001404","survey-likert","145","408593","0.0-35.0","SS1619739395520","similarity_question","","","","","","","","","","","","{""Q0"":4}","[0]","","images/stimuli/spore_stims/simple_19_A_b.gif","images/stimuli/spore_stims/simple_05_A_a.gif"
"","5139.024999996764","survey-likert","146","413739","0.0-36.0","SS1619739395520","similarity_question","","","","","","","","","","","","{""Q0"":2}","[0]","","images/stimuli/spore_stims/complex_12_A_a.gif","images/stimuli/spore_stims/complex_15_A_b.gif"
"","4168.255000004137","survey-likert","147","417916","0.0-37.0","SS1619739395520","similarity_question","","","","","","","","","","","","{""Q0"":1}","[0]","","images/stimuli/spore_stims/complex_17_A_b.gif","images/stimuli/spore_stims/complex_03_A_a.gif"
"","3555.775000000722","survey-likert","148","421481","0.0-38.0","SS1619739395520","similarity_question","","","","","","","","","","","","{""Q0"":1}","[0]","","images/stimuli/spore_stims/complex_15_A_a.gif","images/stimuli/spore_stims/complex_03_A_b.gif"
"","4904.609999997774","survey-likert","149","426393","0.0-39.0","SS1619739395520","similarity_question","","","","","","","","","","","","{""Q0"":4}","[0]","","images/stimuli/spore_stims/simple_18_A_b.gif","images/stimuli/spore_stims/simple_02_A_a.gif"
"","3340.969999997469","survey-likert","150","429741","0.0-40.0","SS1619739395520","similarity_question","","","","","","","","","","","","{""Q0"":4}","[0]","","images/stimuli/spore_stims/simple_01_A_a.gif","images/stimuli/spore_stims/simple_16_A_b.gif"
"","5802.114999998594","survey-likert","151","435552","0.0-41.0","SS1619739395520","similarity_question","","","","","","","","","","","","{""Q0"":3}","[0]","","images/stimuli/spore_stims/complex_09_A_b.gif","images/stimuli/spore_stims/complex_17_A_a.gif"
"","3721.590000001015","survey-likert","152","439280","0.0-42.0","SS1619739395520","similarity_question","","","","","","","","","","","","{""Q0"":5}","[0]","","images/stimuli/spore_stims/simple_05_A_b.gif","images/stimuli/spore_stims/simple_12_A_a.gif"
"","3128.3350000012433","survey-likert","153","442415","0.0-43.0","SS1619739395520","similarity_question","","","","","","","","","","","","{""Q0"":5}","[0]","","images/stimuli/spore_stims/simple_09_A_b.gif","images/stimuli/spore_stims/simple_14_A_a.gif"
"","2663.94500000024","survey-likert","154","445087","0.0-44.0","SS1619739395520","similarity_question","","","","","","","","","","","","{""Q0"":5}","[0]","","images/stimuli/spore_stims/simple_06_A_b.gif","images/stimuli/spore_stims/simple_15_A_a.gif"
"[{""page_index"":0,""viewing_time"":4151.819999999134}]","4151.974999993399","instructions","155","449246","0.0-45.0","SS1619739395520","instructions","","","","","","","","","","","","","","","",""
"","6107.814999995753","survey-likert","156","455357","0.0-46.0","SS1619739395520","","","","","","","","","images/stimuli/spore_stims/complex_10_A_a.gif","","","","{""Q0"":5}","[0]","","",""
"","2841.8000000019674","survey-likert","157","458206","0.0-47.0","SS1619739395520","","","","","","","","","images/stimuli/spore_stims/complex_15_A_b.gif","","","","{""Q0"":5}","[0]","","",""
"","2714.560000000347","survey-likert","158","460928","0.0-48.0","SS1619739395520","","","","","","","","","images/stimuli/spore_stims/simple_02_A_a.gif","","","","{""Q0"":0}","[0]","","",""
"","5907.229999997071","survey-likert","159","466844","0.0-49.0","SS1619739395520","","","","","","","","","images/stimuli/spore_stims/complex_02_A_b.gif","","","","{""Q0"":5}","[0]","","",""
"","2776.640000003681","survey-likert","160","469627","0.0-50.0","SS1619739395520","","","","","","","","","images/stimuli/spore_stims/complex_03_A_a.gif","","","","{""Q0"":4}","[0]","","",""
"","2593.7550000016927","survey-likert","161","472227","0.0-51.0","SS1619739395520","","","","","","","","","images/stimuli/spore_stims/simple_16_A_b.gif","","","","{""Q0"":2}","[0]","","",""
"","2589.205000003858","survey-likert","162","474822","0.0-52.0","SS1619739395520","","","","","","","","","images/stimuli/spore_stims/simple_14_A_a.gif","","","","{""Q0"":2}","[0]","","",""
"","3566.4900000047055","survey-likert","163","478397","0.0-53.0","SS1619739395520","","","","","","","","","images/stimuli/spore_stims/simple_06_A_b.gif","","","","{""Q0"":0}","[0]","","",""
"","2813.7449999994715","survey-likert","164","481220","0.0-54.0","SS1619739395520","","","","","","","","","images/stimuli/spore_stims/complex_03_A_b.gif","","","","{""Q0"":4}","[0]","","",""
"","2584.8299999997835","survey-likert","165","483812","0.0-55.0","SS1619739395520","","","","","","","","","images/stimuli/spore_stims/complex_09_A_b.gif","","","","{""Q0"":5}","[0]","","",""
"","2755.3700000062236","survey-likert","166","486575","0.0-56.0","SS1619739395520","","","","","","","","","images/stimuli/spore_stims/simple_05_A_a.gif","","","","{""Q0"":0}","[0]","","",""
"","2972.66999999556","survey-likert","167","489556","0.0-57.0","SS1619739395520","","","","","","","","","images/stimuli/spore_stims/simple_05_A_b.gif","","","","{""Q0"":0}","[0]","","",""
"[{""page_index"":0,""viewing_time"":3322.6900000008754}]","3322.8949999975157","instructions","168","492885","0.0-58.0","SS1619739395520","instructions","","","","","","","","","","","","","","","",""
"","3499.439999999595","demog-age","169","496390","0.0-59.0","SS1619739395520","","","","","","","","","","","","","{""age"":""28""}","","","",""
"","3329.809999995632","demog-ethnic-US","170","499725","0.0-60.0","SS1619739395520","","","","","","","","","","","","","{""ethnicity"":[""Asian""]}","[0]","","",""
"","5441.630000001169","demog-gender-and-education","171","505174","0.0-61.0","SS1619739395520","","","","","","","","","","","","","{""gender"":""Female"",""education"":""Doctorate/Professional degree""}","[0,1]","","",""
"","6092.984999995679","survey-text","172","511275","0.0-62.0","SS1619739395520","feedback","","","","","","","","","","","","{""Q0"":""no""}","","","",""
"[{""page_index"":0,""viewing_time"":2083.3500000007916}]","2083.5250000018277","instructions","173","513362","0.0-63.0","SS1619739395520","instructions","","","","","","","","","","","","","","","",""
"[{""page_index"":0,""viewing_time"":14546.725000000151}]","14546.86500000389","instructions","174","527911","0.0-64.0","SS1619739395520","","","","","","","","","","","","","","","","",""
