"view_history","rt","trial_type","trial_index","time_elapsed","internal_node_id","subject","stimulus_type","trial_stimulus","key_press","minimum_viewing_duration","trial_looking_time","block_deviant","block_background","exposure_type","stimulus","block_number","block_type","stimulus_displayed","responses","question_order","math_correct_answer","stimulus_left","stimulus_right"
"[{""page_index"":0,""viewing_time"":31045.255000004545}]","31045.920000004116","instructions","0","31049","0.0-0.0","SS1619739820932","","","","","","","","","","","","","","","","",""
"[{""page_index"":0,""viewing_time"":11139.245000027586},{""page_index"":1,""viewing_time"":13642.909999995027}]","24782.37500000978","instructions","1","57835","0.0-1.0","SS1619739820932","instructions","","","","","","","","","","","","","","","",""
"","6068.129999970552","sequential-stimulus-presentation-old","2","64408","0.0-2.0","SS1619739820932","","","40","500","6568.129999970552","null","null","self_paced","","","","","","","","",""
"","6702.3099999642","sequential-stimulus-presentation-old","3","71614","0.0-3.0","SS1619739820932","","","40","500","7202.3099999642","null","null","self_paced","","","","","","","","",""
"[{""page_index"":0,""viewing_time"":19964.02000001399}]","19964.240000001155","instructions","4","91580","0.0-4.0","SS1619739820932","instructions","","","","","","","","","","","","","","","",""
"","822.1299999859184","sequential-stimulus-presentation-old","5","107421","0.0-5.0","SS1619739820932","","","40","500","1322.1299999859184","null","null","forced_long","","","","","","","","",""
"","2101.159999961965","sequential-stimulus-presentation-old","6","110037","0.0-6.0","SS1619739820932","","","40","500","2601.159999961965","null","null","forced_long","","","","","","","","",""
"[{""page_index"":0,""viewing_time"":3195.494999992661}]","3195.6999999820255","instructions","7","113234","0.0-7.0","SS1619739820932","instructions","","","","","","","","","","","","","","","",""
"[{""page_index"":0,""viewing_time"":12122.774999996182},{""page_index"":1,""viewing_time"":11623.120000003837},{""page_index"":2,""viewing_time"":6208.020000020042},{""page_index"":3,""viewing_time"":1168.854999996256},{""page_index"":4,""viewing_time"":821.0349999717437}]","31944.015000015497","instructions","8","145179","0.0-8.0","SS1619739820932","instructions","","","","","","","","","","","","","","","",""
"","null","html-keyboard-response","9","146408","0.0-9.0-0.0","SS1619739820932","","","null","","","","","","<p><img src= images/blank.png width =""600"" height = ""600"" style=""position:fixed;top:50%; left:50%; transform: translate(-50%, -50%); border:5px solid black"">","","","","","","","",""
"","876.300000003539","sequential-stimulus-presentation-old","10","162292","0.0-9.0-1.0","SS1619739820932","trial","","40","500","1376.300000003539","images/stimuli/spore_stims/simple_20_A_a.gif","images/stimuli/spore_stims/simple_11_A_b.gif","forced_long","","0","simple_dissimilar","images/stimuli/spore_stims/simple_11_A_b.gif","","","","",""
"","null","html-keyboard-response","11","163486","0.0-9.0-0.1","SS1619739820932","","","null","","","","","","<p><img src= images/blank.png width =""600"" height = ""600"" style=""position:fixed;top:50%; left:50%; transform: translate(-50%, -50%); border:5px solid black"">","","","","","","","",""
"","28236.544999992475","sequential-stimulus-presentation-old","12","192229","0.0-9.0-1.1","SS1619739820932","trial","","40","500","28736.544999992475","images/stimuli/spore_stims/simple_20_A_a.gif","images/stimuli/spore_stims/simple_11_A_b.gif","forced_long","","0","simple_dissimilar","images/stimuli/spore_stims/simple_20_A_a.gif","","","","",""
"","null","html-keyboard-response","13","193357","0.0-9.0-0.2","SS1619739820932","","","null","","","","","","<p><img src= images/blank.png width =""600"" height = ""600"" style=""position:fixed;top:50%; left:50%; transform: translate(-50%, -50%); border:5px solid black"">","","","","","","","",""
"","6404.305000032764","sequential-stimulus-presentation-old","14","200268","0.0-9.0-1.2","SS1619739820932","trial","","40","500","6904.305000032764","images/stimuli/spore_stims/simple_20_A_a.gif","images/stimuli/spore_stims/simple_11_A_b.gif","forced_long","","0","simple_dissimilar","images/stimuli/spore_stims/simple_11_A_b.gif","","","","",""
"","null","html-keyboard-response","15","201533","0.0-9.0-0.3","SS1619739820932","","","null","","","","","","<p><img src= images/blank.png width =""600"" height = ""600"" style=""position:fixed;top:50%; left:50%; transform: translate(-50%, -50%); border:5px solid black"">","","","","","","","",""
"","8933.424999995623","sequential-stimulus-presentation-old","16","210973","0.0-9.0-1.3","SS1619739820932","trial","","40","500","9433.424999995623","images/stimuli/spore_stims/simple_20_A_a.gif","images/stimuli/spore_stims/simple_11_A_b.gif","forced_long","","0","simple_dissimilar","images/stimuli/spore_stims/simple_11_A_b.gif","","","","",""
"","4341.469999984838","survey-multi-choice","17","215321","0.0-10.0","SS1619739820932","math_question","","","","","","","","","","","","{""Q0"":""13""}","[0]","13","",""
"","null","html-keyboard-response","18","216189","0.0-11.0-0.0","SS1619739820932","","","null","","","","","","<p><img src= images/blank.png width =""600"" height = ""600"" style=""position:fixed;top:50%; left:50%; transform: translate(-50%, -50%); border:5px solid black"">","","","","","","","",""
"","876.5499999863096","sequential-stimulus-presentation-old","19","232077","0.0-11.0-1.0","SS1619739820932","trial","","40","500","1376.5499999863096","images/stimuli/spore_stims/simple_01_A_b.gif","images/stimuli/spore_stims/simple_10_A_a.gif","forced_long","","1","simple_dissimilar","images/stimuli/spore_stims/simple_10_A_a.gif","","","","",""
"","null","html-keyboard-response","20","232989","0.0-11.0-0.1","SS1619739820932","","","null","","","","","","<p><img src= images/blank.png width =""600"" height = ""600"" style=""position:fixed;top:50%; left:50%; transform: translate(-50%, -50%); border:5px solid black"">","","","","","","","",""
"","8785.684999951627","sequential-stimulus-presentation-old","21","242286","0.0-11.0-1.1","SS1619739820932","trial","","40","500","9285.684999951627","images/stimuli/spore_stims/simple_01_A_b.gif","images/stimuli/spore_stims/simple_10_A_a.gif","forced_long","","1","simple_dissimilar","images/stimuli/spore_stims/simple_10_A_a.gif","","","","",""
"","null","html-keyboard-response","22","243487","0.0-11.0-0.2","SS1619739820932","","","null","","","","","","<p><img src= images/blank.png width =""600"" height = ""600"" style=""position:fixed;top:50%; left:50%; transform: translate(-50%, -50%); border:5px solid black"">","","","","","","","",""
"","4499.004999990575","sequential-stimulus-presentation-old","23","248493","0.0-11.0-1.2","SS1619739820932","trial","","40","500","4999.004999990575","images/stimuli/spore_stims/simple_01_A_b.gif","images/stimuli/spore_stims/simple_10_A_a.gif","forced_long","","1","simple_dissimilar","images/stimuli/spore_stims/simple_10_A_a.gif","","","","",""
"","null","html-keyboard-response","24","249326","0.0-11.0-0.3","SS1619739820932","","","null","","","","","","<p><img src= images/blank.png width =""600"" height = ""600"" style=""position:fixed;top:50%; left:50%; transform: translate(-50%, -50%); border:5px solid black"">","","","","","","","",""
"","5204.744999995455","sequential-stimulus-presentation-old","25","255037","0.0-11.0-1.3","SS1619739820932","trial","","40","500","5704.744999995455","images/stimuli/spore_stims/simple_01_A_b.gif","images/stimuli/spore_stims/simple_10_A_a.gif","forced_long","","1","simple_dissimilar","images/stimuli/spore_stims/simple_01_A_b.gif","","","","",""
"","null","html-keyboard-response","26","255898","0.0-11.0-0.4","SS1619739820932","","","null","","","","","","<p><img src= images/blank.png width =""600"" height = ""600"" style=""position:fixed;top:50%; left:50%; transform: translate(-50%, -50%); border:5px solid black"">","","","","","","","",""
"","4327.554999967106","sequential-stimulus-presentation-old","27","260733","0.0-11.0-1.4","SS1619739820932","trial","","40","500","4827.554999967106","images/stimuli/spore_stims/simple_01_A_b.gif","images/stimuli/spore_stims/simple_10_A_a.gif","forced_long","","1","simple_dissimilar","images/stimuli/spore_stims/simple_10_A_a.gif","","","","",""
"","null","html-keyboard-response","28","261606","0.0-11.0-0.5","SS1619739820932","","","null","","","","","","<p><img src= images/blank.png width =""600"" height = ""600"" style=""position:fixed;top:50%; left:50%; transform: translate(-50%, -50%); border:5px solid black"">","","","","","","","",""
"","2819.550000014715","sequential-stimulus-presentation-old","29","264933","0.0-11.0-1.5","SS1619739820932","trial","","40","500","3319.550000014715","images/stimuli/spore_stims/simple_01_A_b.gif","images/stimuli/spore_stims/simple_10_A_a.gif","forced_long","","1","simple_dissimilar","images/stimuli/spore_stims/simple_01_A_b.gif","","","","",""
"","4778.840000042692","survey-multi-choice","30","269716","0.0-12.0","SS1619739820932","math_question","","","","","","","","","","","","{""Q0"":""16""}","[0]","16","",""
"","null","html-keyboard-response","31","270918","0.0-13.0-0.0","SS1619739820932","","","null","","","","","","<p><img src= images/blank.png width =""600"" height = ""600"" style=""position:fixed;top:50%; left:50%; transform: translate(-50%, -50%); border:5px solid black"">","","","","","","","",""
"","6158.504999999423","sequential-stimulus-presentation-old","32","277589","0.0-13.0-1.0","SS1619739820932","trial","","40","500","6658.504999999423","images/stimuli/spore_stims/complex_14_A_b.gif","images/stimuli/spore_stims/complex_13_A_a.gif","self_paced","","2","complex_dissimilar","images/stimuli/spore_stims/complex_13_A_a.gif","","","","",""
"","null","html-keyboard-response","33","278451","0.0-13.0-0.1","SS1619739820932","","","null","","","","","","<p><img src= images/blank.png width =""600"" height = ""600"" style=""position:fixed;top:50%; left:50%; transform: translate(-50%, -50%); border:5px solid black"">","","","","","","","",""
"","11854.109999956563","sequential-stimulus-presentation-old","34","290812","0.0-13.0-1.1","SS1619739820932","trial","","40","500","12354.109999956563","images/stimuli/spore_stims/complex_14_A_b.gif","images/stimuli/spore_stims/complex_13_A_a.gif","self_paced","","2","complex_dissimilar","images/stimuli/spore_stims/complex_13_A_a.gif","","","","",""
"","null","html-keyboard-response","35","291950","0.0-13.0-0.2","SS1619739820932","","","null","","","","","","<p><img src= images/blank.png width =""600"" height = ""600"" style=""position:fixed;top:50%; left:50%; transform: translate(-50%, -50%); border:5px solid black"">","","","","","","","",""
"","2881.050000025425","sequential-stimulus-presentation-old","36","295340","0.0-13.0-1.2","SS1619739820932","trial","","40","500","3381.050000025425","images/stimuli/spore_stims/complex_14_A_b.gif","images/stimuli/spore_stims/complex_13_A_a.gif","self_paced","","2","complex_dissimilar","images/stimuli/spore_stims/complex_13_A_a.gif","","","","",""
"","null","html-keyboard-response","37","296485","0.0-13.0-0.3","SS1619739820932","","","null","","","","","","<p><img src= images/blank.png width =""600"" height = ""600"" style=""position:fixed;top:50%; left:50%; transform: translate(-50%, -50%); border:5px solid black"">","","","","","","","",""
"","3627.0999999833293","sequential-stimulus-presentation-old","38","300620","0.0-13.0-1.3","SS1619739820932","trial","","40","500","4127.099999983329","images/stimuli/spore_stims/complex_14_A_b.gif","images/stimuli/spore_stims/complex_13_A_a.gif","self_paced","","2","complex_dissimilar","images/stimuli/spore_stims/complex_13_A_a.gif","","","","",""
"","null","html-keyboard-response","39","301661","0.0-13.0-0.4","SS1619739820932","","","null","","","","","","<p><img src= images/blank.png width =""600"" height = ""600"" style=""position:fixed;top:50%; left:50%; transform: translate(-50%, -50%); border:5px solid black"">","","","","","","","",""
"","3564.7449999814853","sequential-stimulus-presentation-old","40","305732","0.0-13.0-1.4","SS1619739820932","trial","","40","500","4064.7449999814853","images/stimuli/spore_stims/complex_14_A_b.gif","images/stimuli/spore_stims/complex_13_A_a.gif","self_paced","","2","complex_dissimilar","images/stimuli/spore_stims/complex_13_A_a.gif","","","","",""
"","3241.6799999773502","survey-multi-choice","41","308979","0.0-14.0","SS1619739820932","math_question","","","","","","","","","","","","{""Q0"":""7""}","[0]","7","",""
"","null","html-keyboard-response","42","310210","0.0-15.0-0.0","SS1619739820932","","","null","","","","","","<p><img src= images/blank.png width =""600"" height = ""600"" style=""position:fixed;top:50%; left:50%; transform: translate(-50%, -50%); border:5px solid black"">","","","","","","","",""
"","10155.655000009574","sequential-stimulus-presentation-old","43","320876","0.0-15.0-1.0","SS1619739820932","trial","","40","500","10655.655000009574","images/stimuli/spore_stims/simple_05_A_a.gif","images/stimuli/spore_stims/simple_09_A_b.gif","self_paced","","3","simple_dissimilar","images/stimuli/spore_stims/simple_09_A_b.gif","","","","",""
"","null","html-keyboard-response","44","321945","0.0-15.0-0.1","SS1619739820932","","","null","","","","","","<p><img src= images/blank.png width =""600"" height = ""600"" style=""position:fixed;top:50%; left:50%; transform: translate(-50%, -50%); border:5px solid black"">","","","","","","","",""
"","8947.285000002012","sequential-stimulus-presentation-old","45","331404","0.0-15.0-1.1","SS1619739820932","trial","","40","500","9447.285000002012","images/stimuli/spore_stims/simple_05_A_a.gif","images/stimuli/spore_stims/simple_09_A_b.gif","self_paced","","3","simple_dissimilar","images/stimuli/spore_stims/simple_09_A_b.gif","","","","",""
"","null","html-keyboard-response","46","332557","0.0-15.0-0.2","SS1619739820932","","","null","","","","","","<p><img src= images/blank.png width =""600"" height = ""600"" style=""position:fixed;top:50%; left:50%; transform: translate(-50%, -50%); border:5px solid black"">","","","","","","","",""
"","5627.550000033807","sequential-stimulus-presentation-old","47","338692","0.0-15.0-1.2","SS1619739820932","trial","","40","500","6127.550000033807","images/stimuli/spore_stims/simple_05_A_a.gif","images/stimuli/spore_stims/simple_09_A_b.gif","self_paced","","3","simple_dissimilar","images/stimuli/spore_stims/simple_05_A_a.gif","","","","",""
"","null","html-keyboard-response","48","339965","0.0-15.0-0.3","SS1619739820932","","","null","","","","","","<p><img src= images/blank.png width =""600"" height = ""600"" style=""position:fixed;top:50%; left:50%; transform: translate(-50%, -50%); border:5px solid black"">","","","","","","","",""
"","3805.255000013858","sequential-stimulus-presentation-old","49","344278","0.0-15.0-1.3","SS1619739820932","trial","","40","500","4305.255000013858","images/stimuli/spore_stims/simple_05_A_a.gif","images/stimuli/spore_stims/simple_09_A_b.gif","self_paced","","3","simple_dissimilar","images/stimuli/spore_stims/simple_05_A_a.gif","","","","",""
"","null","html-keyboard-response","50","345162","0.0-15.0-0.4","SS1619739820932","","","null","","","","","","<p><img src= images/blank.png width =""600"" height = ""600"" style=""position:fixed;top:50%; left:50%; transform: translate(-50%, -50%); border:5px solid black"">","","","","","","","",""
"","6830.469999986235","sequential-stimulus-presentation-old","51","352500","0.0-15.0-1.4","SS1619739820932","trial","","40","500","7330.469999986235","images/stimuli/spore_stims/simple_05_A_a.gif","images/stimuli/spore_stims/simple_09_A_b.gif","self_paced","","3","simple_dissimilar","images/stimuli/spore_stims/simple_09_A_b.gif","","","","",""
"","3621.999999973923","survey-multi-choice","52","356127","0.0-16.0","SS1619739820932","math_question","","","","","","","","","","","","{""Q0"":""14""}","[0]","14","",""
"","null","html-keyboard-response","53","357053","0.0-17.0-0.0","SS1619739820932","","","null","","","","","","<p><img src= images/blank.png width =""600"" height = ""600"" style=""position:fixed;top:50%; left:50%; transform: translate(-50%, -50%); border:5px solid black"">","","","","","","","",""
"","8119.845000037458","sequential-stimulus-presentation-old","54","380180","0.0-17.0-1.0","SS1619739820932","trial","","40","500","8619.845000037458","images/stimuli/spore_stims/complex_01_A_a.gif","images/stimuli/spore_stims/complex_09_A_b.gif","forced_long","","4","complex_dissimilar","images/stimuli/spore_stims/complex_09_A_b.gif","","","","",""
"","null","html-keyboard-response","55","381478","0.0-17.0-0.1","SS1619739820932","","","null","","","","","","<p><img src= images/blank.png width =""600"" height = ""600"" style=""position:fixed;top:50%; left:50%; transform: translate(-50%, -50%); border:5px solid black"">","","","","","","","",""
"","7296.440000005532","sequential-stimulus-presentation-old","56","389284","0.0-17.0-1.1","SS1619739820932","trial","","40","500","7796.440000005532","images/stimuli/spore_stims/complex_01_A_a.gif","images/stimuli/spore_stims/complex_09_A_b.gif","forced_long","","4","complex_dissimilar","images/stimuli/spore_stims/complex_09_A_b.gif","","","","",""
"","null","html-keyboard-response","57","390519","0.0-17.0-0.2","SS1619739820932","","","null","","","","","","<p><img src= images/blank.png width =""600"" height = ""600"" style=""position:fixed;top:50%; left:50%; transform: translate(-50%, -50%); border:5px solid black"">","","","","","","","",""
"","6385.705000022426","sequential-stimulus-presentation-old","58","397413","0.0-17.0-1.2","SS1619739820932","trial","","40","500","6885.705000022426","images/stimuli/spore_stims/complex_01_A_a.gif","images/stimuli/spore_stims/complex_09_A_b.gif","forced_long","","4","complex_dissimilar","images/stimuli/spore_stims/complex_01_A_a.gif","","","","",""
"","null","html-keyboard-response","59","398615","0.0-17.0-0.3","SS1619739820932","","","null","","","","","","<p><img src= images/blank.png width =""600"" height = ""600"" style=""position:fixed;top:50%; left:50%; transform: translate(-50%, -50%); border:5px solid black"">","","","","","","","",""
"","5095.314999984112","sequential-stimulus-presentation-old","60","404220","0.0-17.0-1.3","SS1619739820932","trial","","40","500","5595.314999984112","images/stimuli/spore_stims/complex_01_A_a.gif","images/stimuli/spore_stims/complex_09_A_b.gif","forced_long","","4","complex_dissimilar","images/stimuli/spore_stims/complex_09_A_b.gif","","","","",""
"","null","html-keyboard-response","61","405228","0.0-17.0-0.4","SS1619739820932","","","null","","","","","","<p><img src= images/blank.png width =""600"" height = ""600"" style=""position:fixed;top:50%; left:50%; transform: translate(-50%, -50%); border:5px solid black"">","","","","","","","",""
"","2500.1699999556877","sequential-stimulus-presentation-old","62","408235","0.0-17.0-1.4","SS1619739820932","trial","","40","500","3000.1699999556877","images/stimuli/spore_stims/complex_01_A_a.gif","images/stimuli/spore_stims/complex_09_A_b.gif","forced_long","","4","complex_dissimilar","images/stimuli/spore_stims/complex_01_A_a.gif","","","","",""
"","3757.664999982808","survey-multi-choice","63","411996","0.0-18.0","SS1619739820932","math_question","","","","","","","","","","","","{""Q0"":""13""}","[0]","13","",""
"","null","html-keyboard-response","64","413213","0.0-19.0-0.0","SS1619739820932","","","null","","","","","","<p><img src= images/blank.png width =""600"" height = ""600"" style=""position:fixed;top:50%; left:50%; transform: translate(-50%, -50%); border:5px solid black"">","","","","","","","",""
"","1754.6699999948032","sequential-stimulus-presentation-old","65","415476","0.0-19.0-1.0","SS1619739820932","trial","","40","500","2254.669999994803","images/stimuli/spore_stims/complex_10_A_a.gif","images/stimuli/spore_stims/complex_04_A_b.gif","forced_short","","5","complex_dissimilar","images/stimuli/spore_stims/complex_04_A_b.gif","","","","",""
"","null","html-keyboard-response","66","416631","0.0-19.0-0.1","SS1619739820932","","","null","","","","","","<p><img src= images/blank.png width =""600"" height = ""600"" style=""position:fixed;top:50%; left:50%; transform: translate(-50%, -50%); border:5px solid black"">","","","","","","","",""
"","3986.849999986589","sequential-stimulus-presentation-old","67","421132","0.0-19.0-1.1","SS1619739820932","trial","","40","500","4486.849999986589","images/stimuli/spore_stims/complex_10_A_a.gif","images/stimuli/spore_stims/complex_04_A_b.gif","forced_short","","5","complex_dissimilar","images/stimuli/spore_stims/complex_04_A_b.gif","","","","",""
"","null","html-keyboard-response","68","422241","0.0-19.0-0.2","SS1619739820932","","","null","","","","","","<p><img src= images/blank.png width =""600"" height = ""600"" style=""position:fixed;top:50%; left:50%; transform: translate(-50%, -50%); border:5px solid black"">","","","","","","","",""
"","21323.40000005206","sequential-stimulus-presentation-old","69","444076","0.0-19.0-1.2","SS1619739820932","trial","","40","500","21823.40000005206","images/stimuli/spore_stims/complex_10_A_a.gif","images/stimuli/spore_stims/complex_04_A_b.gif","forced_short","","5","complex_dissimilar","images/stimuli/spore_stims/complex_10_A_a.gif","","","","",""
"","null","html-keyboard-response","70","444918","0.0-19.0-0.3","SS1619739820932","","","null","","","","","","<p><img src= images/blank.png width =""600"" height = ""600"" style=""position:fixed;top:50%; left:50%; transform: translate(-50%, -50%); border:5px solid black"">","","","","","","","",""
"","4834.939999971539","sequential-stimulus-presentation-old","71","450260","0.0-19.0-1.3","SS1619739820932","trial","","40","500","5334.939999971539","images/stimuli/spore_stims/complex_10_A_a.gif","images/stimuli/spore_stims/complex_04_A_b.gif","forced_short","","5","complex_dissimilar","images/stimuli/spore_stims/complex_04_A_b.gif","","","","",""
"","null","html-keyboard-response","72","451196","0.0-19.0-0.4","SS1619739820932","","","null","","","","","","<p><img src= images/blank.png width =""600"" height = ""600"" style=""position:fixed;top:50%; left:50%; transform: translate(-50%, -50%); border:5px solid black"">","","","","","","","",""
"","4559.229999955278","sequential-stimulus-presentation-old","73","456268","0.0-19.0-1.4","SS1619739820932","trial","","40","500","5059.229999955278","images/stimuli/spore_stims/complex_10_A_a.gif","images/stimuli/spore_stims/complex_04_A_b.gif","forced_short","","5","complex_dissimilar","images/stimuli/spore_stims/complex_04_A_b.gif","","","","",""
"","3697.2999999998137","survey-multi-choice","74","459970","0.0-20.0","SS1619739820932","math_question","","","","","","","","","","","","{""Q0"":""9""}","[0]","9","",""
"","null","html-keyboard-response","75","460862","0.0-21.0-0.0","SS1619739820932","","","null","","","","","","<p><img src= images/blank.png width =""600"" height = ""600"" style=""position:fixed;top:50%; left:50%; transform: translate(-50%, -50%); border:5px solid black"">","","","","","","","",""
"","1789.5150000113063","sequential-stimulus-presentation-old","76","477660","0.0-21.0-1.0","SS1619739820932","trial","","40","500","2289.5150000113063","images/stimuli/spore_stims/complex_19_A_b.gif","images/stimuli/spore_stims/complex_12_A_a.gif","forced_long","","6","complex_dissimilar","images/stimuli/spore_stims/complex_12_A_a.gif","","","","",""
"","null","html-keyboard-response","77","478668","0.0-21.0-0.1","SS1619739820932","","","null","","","","","","<p><img src= images/blank.png width =""600"" height = ""600"" style=""position:fixed;top:50%; left:50%; transform: translate(-50%, -50%); border:5px solid black"">","","","","","","","",""
"","6002.429999993183","sequential-stimulus-presentation-old","78","485180","0.0-21.0-1.1","SS1619739820932","trial","","40","500","6502.429999993183","images/stimuli/spore_stims/complex_19_A_b.gif","images/stimuli/spore_stims/complex_12_A_a.gif","forced_long","","6","complex_dissimilar","images/stimuli/spore_stims/complex_12_A_a.gif","","","","",""
"","null","html-keyboard-response","79","486488","0.0-21.0-0.2","SS1619739820932","","","null","","","","","","<p><img src= images/blank.png width =""600"" height = ""600"" style=""position:fixed;top:50%; left:50%; transform: translate(-50%, -50%); border:5px solid black"">","","","","","","","",""
"","5911.915000004228","sequential-stimulus-presentation-old","80","492925","0.0-21.0-1.2","SS1619739820932","trial","","40","500","6411.915000004228","images/stimuli/spore_stims/complex_19_A_b.gif","images/stimuli/spore_stims/complex_12_A_a.gif","forced_long","","6","complex_dissimilar","images/stimuli/spore_stims/complex_12_A_a.gif","","","","",""
"","null","html-keyboard-response","81","494104","0.0-21.0-0.3","SS1619739820932","","","null","","","","","","<p><img src= images/blank.png width =""600"" height = ""600"" style=""position:fixed;top:50%; left:50%; transform: translate(-50%, -50%); border:5px solid black"">","","","","","","","",""
"","3641.24999998603","sequential-stimulus-presentation-old","82","498252","0.0-21.0-1.3","SS1619739820932","trial","","40","500","4141.24999998603","images/stimuli/spore_stims/complex_19_A_b.gif","images/stimuli/spore_stims/complex_12_A_a.gif","forced_long","","6","complex_dissimilar","images/stimuli/spore_stims/complex_12_A_a.gif","","","","",""
"","3303.0399999697693","survey-multi-choice","83","501560","0.0-22.0","SS1619739820932","math_question","","","","","","","","","","","","{""Q0"":""17""}","[0]","17","",""
"","null","html-keyboard-response","84","502449","0.0-23.0-0.0","SS1619739820932","","","null","","","","","","<p><img src= images/blank.png width =""600"" height = ""600"" style=""position:fixed;top:50%; left:50%; transform: translate(-50%, -50%); border:5px solid black"">","","","","","","","",""
"","6277.040000015404","sequential-stimulus-presentation-old","85","509245","0.0-23.0-1.0","SS1619739820932","trial","","40","500","6777.040000015404","images/stimuli/spore_stims/simple_02_A_b.gif","images/stimuli/spore_stims/simple_04_A_a.gif","self_paced","","7","simple_dissimilar","images/stimuli/spore_stims/simple_04_A_a.gif","","","","",""
"","null","html-keyboard-response","86","510191","0.0-23.0-0.1","SS1619739820932","","","null","","","","","","<p><img src= images/blank.png width =""600"" height = ""600"" style=""position:fixed;top:50%; left:50%; transform: translate(-50%, -50%); border:5px solid black"">","","","","","","","",""
"","6232.435000012629","sequential-stimulus-presentation-old","87","516932","0.0-23.0-1.1","SS1619739820932","trial","","40","500","6732.435000012629","images/stimuli/spore_stims/simple_02_A_b.gif","images/stimuli/spore_stims/simple_04_A_a.gif","self_paced","","7","simple_dissimilar","images/stimuli/spore_stims/simple_04_A_a.gif","","","","",""
"","null","html-keyboard-response","88","517920","0.0-23.0-0.2","SS1619739820932","","","null","","","","","","<p><img src= images/blank.png width =""600"" height = ""600"" style=""position:fixed;top:50%; left:50%; transform: translate(-50%, -50%); border:5px solid black"">","","","","","","","",""
"","5863.185000023805","sequential-stimulus-presentation-old","89","524292","0.0-23.0-1.2","SS1619739820932","trial","","40","500","6363.185000023805","images/stimuli/spore_stims/simple_02_A_b.gif","images/stimuli/spore_stims/simple_04_A_a.gif","self_paced","","7","simple_dissimilar","images/stimuli/spore_stims/simple_04_A_a.gif","","","","",""
"","null","html-keyboard-response","90","525585","0.0-23.0-0.3","SS1619739820932","","","null","","","","","","<p><img src= images/blank.png width =""600"" height = ""600"" style=""position:fixed;top:50%; left:50%; transform: translate(-50%, -50%); border:5px solid black"">","","","","","","","",""
"","4302.484999992885","sequential-stimulus-presentation-old","91","530396","0.0-23.0-1.3","SS1619739820932","trial","","40","500","4802.484999992885","images/stimuli/spore_stims/simple_02_A_b.gif","images/stimuli/spore_stims/simple_04_A_a.gif","self_paced","","7","simple_dissimilar","images/stimuli/spore_stims/simple_04_A_a.gif","","","","",""
"","null","html-keyboard-response","92","531667","0.0-23.0-0.4","SS1619739820932","","","null","","","","","","<p><img src= images/blank.png width =""600"" height = ""600"" style=""position:fixed;top:50%; left:50%; transform: translate(-50%, -50%); border:5px solid black"">","","","","","","","",""
"","4197.954999981448","sequential-stimulus-presentation-old","93","536372","0.0-23.0-1.4","SS1619739820932","trial","","40","500","4697.954999981448","images/stimuli/spore_stims/simple_02_A_b.gif","images/stimuli/spore_stims/simple_04_A_a.gif","self_paced","","7","simple_dissimilar","images/stimuli/spore_stims/simple_04_A_a.gif","","","","",""
"","null","html-keyboard-response","94","537482","0.0-23.0-0.5","SS1619739820932","","","null","","","","","","<p><img src= images/blank.png width =""600"" height = ""600"" style=""position:fixed;top:50%; left:50%; transform: translate(-50%, -50%); border:5px solid black"">","","","","","","","",""
"","4300.080000015441","sequential-stimulus-presentation-old","95","542292","0.0-23.0-1.5","SS1619739820932","trial","","40","500","4800.080000015441","images/stimuli/spore_stims/simple_02_A_b.gif","images/stimuli/spore_stims/simple_04_A_a.gif","self_paced","","7","simple_dissimilar","images/stimuli/spore_stims/simple_04_A_a.gif","","","","",""
"","3367.740000016056","survey-multi-choice","96","545666","0.0-24.0","SS1619739820932","math_question","","","","","","","","","","","","{""Q0"":""5""}","[0]","5","",""
"","null","html-keyboard-response","97","546909","0.0-25.0-0.0","SS1619739820932","","","null","","","","","","<p><img src= images/blank.png width =""600"" height = ""600"" style=""position:fixed;top:50%; left:50%; transform: translate(-50%, -50%); border:5px solid black"">","","","","","","","",""
"","2249.290000007022","sequential-stimulus-presentation-old","98","549668","0.0-25.0-1.0","SS1619739820932","trial","","40","500","2749.290000007022","images/stimuli/spore_stims/simple_08_A_a.gif","images/stimuli/spore_stims/simple_05_A_b.gif","forced_short","","8","simple_dissimilar","images/stimuli/spore_stims/simple_05_A_b.gif","","","","",""
"","null","html-keyboard-response","99","550761","0.0-25.0-0.1","SS1619739820932","","","null","","","","","","<p><img src= images/blank.png width =""600"" height = ""600"" style=""position:fixed;top:50%; left:50%; transform: translate(-50%, -50%); border:5px solid black"">","","","","","","","",""
"","5624.115000013262","sequential-stimulus-presentation-old","100","556900","0.0-25.0-1.1","SS1619739820932","trial","","40","500","6124.115000013262","images/stimuli/spore_stims/simple_08_A_a.gif","images/stimuli/spore_stims/simple_05_A_b.gif","forced_short","","8","simple_dissimilar","images/stimuli/spore_stims/simple_05_A_b.gif","","","","",""
"","null","html-keyboard-response","101","557845","0.0-25.0-0.2","SS1619739820932","","","null","","","","","","<p><img src= images/blank.png width =""600"" height = ""600"" style=""position:fixed;top:50%; left:50%; transform: translate(-50%, -50%); border:5px solid black"">","","","","","","","",""
"","3362.1649999986403","sequential-stimulus-presentation-old","102","561715","0.0-25.0-1.2","SS1619739820932","trial","","40","500","3862.1649999986403","images/stimuli/spore_stims/simple_08_A_a.gif","images/stimuli/spore_stims/simple_05_A_b.gif","forced_short","","8","simple_dissimilar","images/stimuli/spore_stims/simple_05_A_b.gif","","","","",""
"","null","html-keyboard-response","103","562799","0.0-25.0-0.3","SS1619739820932","","","null","","","","","","<p><img src= images/blank.png width =""600"" height = ""600"" style=""position:fixed;top:50%; left:50%; transform: translate(-50%, -50%); border:5px solid black"">","","","","","","","",""
"","5561.270000005607","sequential-stimulus-presentation-old","104","568868","0.0-25.0-1.3","SS1619739820932","trial","","40","500","6061.270000005607","images/stimuli/spore_stims/simple_08_A_a.gif","images/stimuli/spore_stims/simple_05_A_b.gif","forced_short","","8","simple_dissimilar","images/stimuli/spore_stims/simple_08_A_a.gif","","","","",""
"","null","html-keyboard-response","105","570034","0.0-25.0-0.4","SS1619739820932","","","null","","","","","","<p><img src= images/blank.png width =""600"" height = ""600"" style=""position:fixed;top:50%; left:50%; transform: translate(-50%, -50%); border:5px solid black"">","","","","","","","",""
"","7604.249999974854","sequential-stimulus-presentation-old","106","578147","0.0-25.0-1.4","SS1619739820932","trial","","40","500","8104.249999974854","images/stimuli/spore_stims/simple_08_A_a.gif","images/stimuli/spore_stims/simple_05_A_b.gif","forced_short","","8","simple_dissimilar","images/stimuli/spore_stims/simple_05_A_b.gif","","","","",""
"","3447.305000037886","survey-multi-choice","107","581601","0.0-26.0","SS1619739820932","math_question","","","","","","","","","","","","{""Q0"":""16""}","[0]","16","",""
"","null","html-keyboard-response","108","582453","0.0-27.0-0.0","SS1619739820932","","","null","","","","","","<p><img src= images/blank.png width =""600"" height = ""600"" style=""position:fixed;top:50%; left:50%; transform: translate(-50%, -50%); border:5px solid black"">","","","","","","","",""
"","1633.2150000380352","sequential-stimulus-presentation-old","109","584596","0.0-27.0-1.0","SS1619739820932","trial","","40","500","2133.215000038035","images/stimuli/spore_stims/complex_15_A_a.gif","images/stimuli/spore_stims/complex_03_A_b.gif","forced_short","","9","complex_dissimilar","images/stimuli/spore_stims/complex_03_A_b.gif","","","","",""
"","null","html-keyboard-response","110","585683","0.0-27.0-0.1","SS1619739820932","","","null","","","","","","<p><img src= images/blank.png width =""600"" height = ""600"" style=""position:fixed;top:50%; left:50%; transform: translate(-50%, -50%); border:5px solid black"">","","","","","","","",""
"","3995.085000002291","sequential-stimulus-presentation-old","111","590188","0.0-27.0-1.1","SS1619739820932","trial","","40","500","4495.085000002291","images/stimuli/spore_stims/complex_15_A_a.gif","images/stimuli/spore_stims/complex_03_A_b.gif","forced_short","","9","complex_dissimilar","images/stimuli/spore_stims/complex_03_A_b.gif","","","","",""
"","null","html-keyboard-response","112","591216","0.0-27.0-0.2","SS1619739820932","","","null","","","","","","<p><img src= images/blank.png width =""600"" height = ""600"" style=""position:fixed;top:50%; left:50%; transform: translate(-50%, -50%); border:5px solid black"">","","","","","","","",""
"","19087.525000039022","sequential-stimulus-presentation-old","113","610812","0.0-27.0-1.2","SS1619739820932","trial","","40","500","19587.525000039022","images/stimuli/spore_stims/complex_15_A_a.gif","images/stimuli/spore_stims/complex_03_A_b.gif","forced_short","","9","complex_dissimilar","images/stimuli/spore_stims/complex_03_A_b.gif","","","","",""
"","null","html-keyboard-response","114","611845","0.0-27.0-0.3","SS1619739820932","","","null","","","","","","<p><img src= images/blank.png width =""600"" height = ""600"" style=""position:fixed;top:50%; left:50%; transform: translate(-50%, -50%); border:5px solid black"">","","","","","","","",""
"","2874.8649999615736","sequential-stimulus-presentation-old","115","615230","0.0-27.0-1.3","SS1619739820932","trial","","40","500","3374.8649999615736","images/stimuli/spore_stims/complex_15_A_a.gif","images/stimuli/spore_stims/complex_03_A_b.gif","forced_short","","9","complex_dissimilar","images/stimuli/spore_stims/complex_03_A_b.gif","","","","",""
"","null","html-keyboard-response","116","616208","0.0-27.0-0.4","SS1619739820932","","","null","","","","","","<p><img src= images/blank.png width =""600"" height = ""600"" style=""position:fixed;top:50%; left:50%; transform: translate(-50%, -50%); border:5px solid black"">","","","","","","","",""
"","2669.7600000188686","sequential-stimulus-presentation-old","117","619388","0.0-27.0-1.4","SS1619739820932","trial","","40","500","3169.7600000188686","images/stimuli/spore_stims/complex_15_A_a.gif","images/stimuli/spore_stims/complex_03_A_b.gif","forced_short","","9","complex_dissimilar","images/stimuli/spore_stims/complex_03_A_b.gif","","","","",""
"","null","html-keyboard-response","118","620487","0.0-27.0-0.5","SS1619739820932","","","null","","","","","","<p><img src= images/blank.png width =""600"" height = ""600"" style=""position:fixed;top:50%; left:50%; transform: translate(-50%, -50%); border:5px solid black"">","","","","","","","",""
"","3672.2549999831244","sequential-stimulus-presentation-old","119","624668","0.0-27.0-1.5","SS1619739820932","trial","","40","500","4172.254999983124","images/stimuli/spore_stims/complex_15_A_a.gif","images/stimuli/spore_stims/complex_03_A_b.gif","forced_short","","9","complex_dissimilar","images/stimuli/spore_stims/complex_03_A_b.gif","","","","",""
"","2633.8099999702536","survey-multi-choice","120","627309","0.0-28.0","SS1619739820932","math_question","","","","","","","","","","","","{""Q0"":""8""}","[0]","8","",""
"","null","html-keyboard-response","121","628176","0.0-29.0-0.0","SS1619739820932","","","null","","","","","","<p><img src= images/blank.png width =""600"" height = ""600"" style=""position:fixed;top:50%; left:50%; transform: translate(-50%, -50%); border:5px solid black"">","","","","","","","",""
"","3441.835000005085","sequential-stimulus-presentation-old","122","632740","0.0-29.0-1.0","SS1619739820932","trial","","40","500","3941.835000005085","images/stimuli/spore_stims/complex_02_A_b.gif","images/stimuli/spore_stims/complex_17_A_a.gif","self_paced","","10","complex_dissimilar","images/stimuli/spore_stims/complex_17_A_a.gif","","","","",""
"","null","html-keyboard-response","123","633768","0.0-29.0-0.1","SS1619739820932","","","null","","","","","","<p><img src= images/blank.png width =""600"" height = ""600"" style=""position:fixed;top:50%; left:50%; transform: translate(-50%, -50%); border:5px solid black"">","","","","","","","",""
"","3399.0350000094622","sequential-stimulus-presentation-old","124","637677","0.0-29.0-1.1","SS1619739820932","trial","","40","500","3899.0350000094622","images/stimuli/spore_stims/complex_02_A_b.gif","images/stimuli/spore_stims/complex_17_A_a.gif","self_paced","","10","complex_dissimilar","images/stimuli/spore_stims/complex_17_A_a.gif","","","","",""
"","null","html-keyboard-response","125","638650","0.0-29.0-0.2","SS1619739820932","","","null","","","","","","<p><img src= images/blank.png width =""600"" height = ""600"" style=""position:fixed;top:50%; left:50%; transform: translate(-50%, -50%); border:5px solid black"">","","","","","","","",""
"","3365.97000004258","sequential-stimulus-presentation-old","126","642532","0.0-29.0-1.2","SS1619739820932","trial","","40","500","3865.97000004258","images/stimuli/spore_stims/complex_02_A_b.gif","images/stimuli/spore_stims/complex_17_A_a.gif","self_paced","","10","complex_dissimilar","images/stimuli/spore_stims/complex_17_A_a.gif","","","","",""
"","null","html-keyboard-response","127","643543","0.0-29.0-0.3","SS1619739820932","","","null","","","","","","<p><img src= images/blank.png width =""600"" height = ""600"" style=""position:fixed;top:50%; left:50%; transform: translate(-50%, -50%); border:5px solid black"">","","","","","","","",""
"","6798.805000027642","sequential-stimulus-presentation-old","128","650852","0.0-29.0-1.3","SS1619739820932","trial","","40","500","7298.805000027642","images/stimuli/spore_stims/complex_02_A_b.gif","images/stimuli/spore_stims/complex_17_A_a.gif","self_paced","","10","complex_dissimilar","images/stimuli/spore_stims/complex_02_A_b.gif","","","","",""
"","null","html-keyboard-response","129","651950","0.0-29.0-0.4","SS1619739820932","","","null","","","","","","<p><img src= images/blank.png width =""600"" height = ""600"" style=""position:fixed;top:50%; left:50%; transform: translate(-50%, -50%); border:5px solid black"">","","","","","","","",""
"","3167.459999967832","sequential-stimulus-presentation-old","130","655628","0.0-29.0-1.4","SS1619739820932","trial","","40","500","3667.459999967832","images/stimuli/spore_stims/complex_02_A_b.gif","images/stimuli/spore_stims/complex_17_A_a.gif","self_paced","","10","complex_dissimilar","images/stimuli/spore_stims/complex_02_A_b.gif","","","","",""
"","null","html-keyboard-response","131","656646","0.0-29.0-0.5","SS1619739820932","","","null","","","","","","<p><img src= images/blank.png width =""600"" height = ""600"" style=""position:fixed;top:50%; left:50%; transform: translate(-50%, -50%); border:5px solid black"">","","","","","","","",""
"","14423.489999957383","sequential-stimulus-presentation-old","132","671580","0.0-29.0-1.5","SS1619739820932","trial","","40","500","14923.489999957383","images/stimuli/spore_stims/complex_02_A_b.gif","images/stimuli/spore_stims/complex_17_A_a.gif","self_paced","","10","complex_dissimilar","images/stimuli/spore_stims/complex_17_A_a.gif","","","","",""
"","2472.5849999813363","survey-multi-choice","133","674060","0.0-30.0","SS1619739820932","math_question","","","","","","","","","","","","{""Q0"":""4""}","[0]","4","",""
"","null","html-keyboard-response","134","674933","0.0-31.0-0.0","SS1619739820932","","","null","","","","","","<p><img src= images/blank.png width =""600"" height = ""600"" style=""position:fixed;top:50%; left:50%; transform: translate(-50%, -50%); border:5px solid black"">","","","","","","","",""
"","2842.0599999953993","sequential-stimulus-presentation-old","135","678284","0.0-31.0-1.0","SS1619739820932","trial","","40","500","3342.0599999953993","images/stimuli/spore_stims/simple_13_A_b.gif","images/stimuli/spore_stims/simple_07_A_a.gif","forced_short","","11","simple_dissimilar","images/stimuli/spore_stims/simple_07_A_a.gif","","","","",""
"","null","html-keyboard-response","136","679559","0.0-31.0-0.1","SS1619739820932","","","null","","","","","","<p><img src= images/blank.png width =""600"" height = ""600"" style=""position:fixed;top:50%; left:50%; transform: translate(-50%, -50%); border:5px solid black"">","","","","","","","",""
"","6263.455000007525","sequential-stimulus-presentation-old","137","686332","0.0-31.0-1.1","SS1619739820932","trial","","40","500","6763.455000007525","images/stimuli/spore_stims/simple_13_A_b.gif","images/stimuli/spore_stims/simple_07_A_a.gif","forced_short","","11","simple_dissimilar","images/stimuli/spore_stims/simple_07_A_a.gif","","","","",""
"","null","html-keyboard-response","138","687258","0.0-31.0-0.2","SS1619739820932","","","null","","","","","","<p><img src= images/blank.png width =""600"" height = ""600"" style=""position:fixed;top:50%; left:50%; transform: translate(-50%, -50%); border:5px solid black"">","","","","","","","",""
"","3747.815000009723","sequential-stimulus-presentation-old","139","691516","0.0-31.0-1.2","SS1619739820932","trial","","40","500","4247.815000009723","images/stimuli/spore_stims/simple_13_A_b.gif","images/stimuli/spore_stims/simple_07_A_a.gif","forced_short","","11","simple_dissimilar","images/stimuli/spore_stims/simple_07_A_a.gif","","","","",""
"","null","html-keyboard-response","140","692724","0.0-31.0-0.3","SS1619739820932","","","null","","","","","","<p><img src= images/blank.png width =""600"" height = ""600"" style=""position:fixed;top:50%; left:50%; transform: translate(-50%, -50%); border:5px solid black"">","","","","","","","",""
"","3545.655000023544","sequential-stimulus-presentation-old","141","696780","0.0-31.0-1.3","SS1619739820932","trial","","40","500","4045.655000023544","images/stimuli/spore_stims/simple_13_A_b.gif","images/stimuli/spore_stims/simple_07_A_a.gif","forced_short","","11","simple_dissimilar","images/stimuli/spore_stims/simple_07_A_a.gif","","","","",""
"[{""page_index"":0,""viewing_time"":6117.680000024848}]","6117.910000029951","instructions","142","702905","0.0-32.0","SS1619739820932","instructions","","","","","","","","","","","","","","","",""
"","6870.885000040289","survey-likert","143","709780","0.0-33.0","SS1619739820932","similarity_question","","","","","","","","","","","","{""Q0"":4}","[0]","","images/stimuli/spore_stims/simple_04_A_a.gif","images/stimuli/spore_stims/simple_02_A_b.gif"
"","4320.644999970682","survey-likert","144","714104","0.0-34.0","SS1619739820932","similarity_question","","","","","","","","","","","","{""Q0"":3}","[0]","","images/stimuli/spore_stims/simple_09_A_b.gif","images/stimuli/spore_stims/simple_05_A_a.gif"
"","4763.525000016671","survey-likert","145","718870","0.0-35.0","SS1619739820932","similarity_question","","","","","","","","","","","","{""Q0"":2}","[0]","","images/stimuli/spore_stims/simple_07_A_a.gif","images/stimuli/spore_stims/simple_13_A_b.gif"
"","4600.135000015143","survey-likert","146","723474","0.0-36.0","SS1619739820932","similarity_question","","","","","","","","","","","","{""Q0"":1}","[0]","","images/stimuli/spore_stims/complex_02_A_b.gif","images/stimuli/spore_stims/complex_17_A_a.gif"
"","10236.919999995735","survey-likert","147","733714","0.0-37.0","SS1619739820932","similarity_question","","","","","","","","","","","","{""Q0"":2}","[0]","","images/stimuli/spore_stims/complex_10_A_a.gif","images/stimuli/spore_stims/complex_04_A_b.gif"
"","3812.5449999934062","survey-likert","148","737530","0.0-38.0","SS1619739820932","similarity_question","","","","","","","","","","","","{""Q0"":0}","[0]","","images/stimuli/spore_stims/complex_15_A_a.gif","images/stimuli/spore_stims/complex_03_A_b.gif"
"","4704.909999971278","survey-likert","149","742238","0.0-39.0","SS1619739820932","similarity_question","","","","","","","","","","","","{""Q0"":1}","[0]","","images/stimuli/spore_stims/complex_09_A_b.gif","images/stimuli/spore_stims/complex_01_A_a.gif"
"","4300.445000000764","survey-likert","150","746541","0.0-40.0","SS1619739820932","similarity_question","","","","","","","","","","","","{""Q0"":0}","[0]","","images/stimuli/spore_stims/complex_14_A_b.gif","images/stimuli/spore_stims/complex_13_A_a.gif"
"","3041.7649999726564","survey-likert","151","749586","0.0-41.0","SS1619739820932","similarity_question","","","","","","","","","","","","{""Q0"":5}","[0]","","images/stimuli/spore_stims/simple_01_A_b.gif","images/stimuli/spore_stims/simple_10_A_a.gif"
"","4724.8799999943","survey-likert","152","754314","0.0-42.0","SS1619739820932","similarity_question","","","","","","","","","","","","{""Q0"":6}","[0]","","images/stimuli/spore_stims/simple_05_A_b.gif","images/stimuli/spore_stims/simple_08_A_a.gif"
"","9930.389999994077","survey-likert","153","764248","0.0-43.0","SS1619739820932","similarity_question","","","","","","","","","","","","{""Q0"":1}","[0]","","images/stimuli/spore_stims/complex_19_A_b.gif","images/stimuli/spore_stims/complex_12_A_a.gif"
"","3146.884999994654","survey-likert","154","767398","0.0-44.0","SS1619739820932","similarity_question","","","","","","","","","","","","{""Q0"":4}","[0]","","images/stimuli/spore_stims/simple_20_A_a.gif","images/stimuli/spore_stims/simple_11_A_b.gif"
"[{""page_index"":0,""viewing_time"":3326.999999990221}]","3327.244999993127","instructions","155","770728","0.0-45.0","SS1619739820932","instructions","","","","","","","","","","","","","","","",""
"","7587.185000011232","survey-likert","156","778318","0.0-46.0","SS1619739820932","","","","","","","","","images/stimuli/spore_stims/simple_08_A_a.gif","","","","{""Q0"":0}","[0]","","",""
"","1652.0000000018626","survey-likert","157","779973","0.0-47.0","SS1619739820932","","","","","","","","","images/stimuli/spore_stims/simple_07_A_a.gif","","","","{""Q0"":1}","[0]","","",""
"","3462.7699999837205","survey-likert","158","783439","0.0-48.0","SS1619739820932","","","","","","","","","images/stimuli/spore_stims/complex_19_A_b.gif","","","","{""Q0"":6}","[0]","","",""
"","3103.479999990668","survey-likert","159","786546","0.0-49.0","SS1619739820932","","","","","","","","","images/stimuli/spore_stims/complex_01_A_a.gif","","","","{""Q0"":5}","[0]","","",""
"","3390.9850000054576","survey-likert","160","789940","0.0-50.0","SS1619739820932","","","","","","","","","images/stimuli/spore_stims/simple_04_A_a.gif","","","","{""Q0"":1}","[0]","","",""
"","4118.5849999892525","survey-likert","161","794062","0.0-51.0","SS1619739820932","","","","","","","","","images/stimuli/spore_stims/simple_09_A_b.gif","","","","{""Q0"":2}","[0]","","",""
"","8798.69000002509","survey-likert","162","802864","0.0-52.0","SS1619739820932","","","","","","","","","images/stimuli/spore_stims/complex_14_A_b.gif","","","","{""Q0"":6}","[0]","","",""
"","3876.7450000159442","survey-likert","163","806744","0.0-53.0","SS1619739820932","","","","","","","","","images/stimuli/spore_stims/simple_01_A_b.gif","","","","{""Q0"":1}","[0]","","",""
"","1967.594999994617","survey-likert","164","808715","0.0-54.0","SS1619739820932","","","","","","","","","images/stimuli/spore_stims/complex_04_A_b.gif","","","","{""Q0"":5}","[0]","","",""
"","2159.0000000433065","survey-likert","165","810877","0.0-55.0","SS1619739820932","","","","","","","","","images/stimuli/spore_stims/complex_15_A_a.gif","","","","{""Q0"":5}","[0]","","",""
"","2951.070000010077","survey-likert","166","813832","0.0-56.0","SS1619739820932","","","","","","","","","images/stimuli/spore_stims/complex_17_A_a.gif","","","","{""Q0"":5}","[0]","","",""
"","4496.095000009518","survey-likert","167","818331","0.0-57.0","SS1619739820932","","","","","","","","","images/stimuli/spore_stims/simple_11_A_b.gif","","","","{""Q0"":1}","[0]","","",""
"[{""page_index"":0,""viewing_time"":2290.934999997262}]","2291.1500000045635","instructions","168","820625","0.0-58.0","SS1619739820932","instructions","","","","","","","","","","","","","","","",""
"","3269.51499999268","demog-age","169","823898","0.0-59.0","SS1619739820932","","","","","","","","","","","","","{""age"":""23""}","","","",""
"","7179.914999986067","demog-ethnic-US","170","831083","0.0-60.0","SS1619739820932","","","","","","","","","","","","","{""ethnicity"":[""White""]}","[0]","","",""
"","39383.71999998344","demog-gender-and-education","171","870471","0.0-61.0","SS1619739820932","","","","","","","","","","","","","{""gender"":""Male"",""education"":""Associate Degree/Technical certification""}","[0,1]","","",""
"","11499.580000003334","survey-text","172","881974","0.0-62.0","SS1619739820932","feedback","","","","","","","","","","","","{""Q0"":""no""}","","","",""
"[{""page_index"":0,""viewing_time"":1173.975000041537}]","1174.2350000422448","instructions","173","883151","0.0-63.0","SS1619739820932","instructions","","","","","","","","","","","","","","","",""
