"view_history","rt","trial_type","trial_index","time_elapsed","internal_node_id","subject","stimulus_type","trial_stimulus","key_press","minimum_viewing_duration","trial_looking_time","block_deviant","block_background","exposure_type","stimulus","block_number","block_type","stimulus_displayed","responses","question_order","math_correct_answer","stimulus_left","stimulus_right"
"[{""page_index"":0,""viewing_time"":24225.77000000456}]","24226.270000013756","instructions","0","24227","0.0-0.0","SS1619739916640","","","","","","","","","","","","","","","","",""
"[{""page_index"":0,""viewing_time"":1212.440000002971},{""page_index"":1,""viewing_time"":6328.0850000010105}]","7541.049999999814","instructions","1","34435","0.0-1.0","SS1619739916640","instructions","","","","","","","","","","","","","","","",""
"","5961.504999999306","sequential-stimulus-presentation-old","2","40900","0.0-2.0","SS1619739916640","","","40","500","6461.504999999306","null","null","self_paced","","","","","","","","",""
"","2864.2999999865424","sequential-stimulus-presentation-old","3","44268","0.0-3.0","SS1619739916640","","","40","500","3364.2999999865424","null","null","self_paced","","","","","","","","",""
"[{""page_index"":0,""viewing_time"":305705.60499999556}]","305705.94999998866","instructions","4","349979","0.0-4.0","SS1619739916640","instructions","","","","","","","","","","","","","","","",""
"","445.7249999977648","sequential-stimulus-presentation-old","5","365427","0.0-5.0","SS1619739916640","","","40","500","945.7249999977648","null","null","forced_long","","","","","","","","",""
"","12367.540000006557","sequential-stimulus-presentation-old","6","378299","0.0-6.0","SS1619739916640","","","40","500","12867.540000006557","null","null","forced_long","","","","","","","","",""
"[{""page_index"":0,""viewing_time"":3046.2600000028033}]","3046.5150000090944","instructions","7","381347","0.0-7.0","SS1619739916640","instructions","","","","","","","","","","","","","","","",""
"[{""page_index"":0,""viewing_time"":606.7349999939324},{""page_index"":1,""viewing_time"":1791.9899999978952},{""page_index"":2,""viewing_time"":5495.965000009164},{""page_index"":3,""viewing_time"":2144.029999995837},{""page_index"":4,""viewing_time"":1007.9850000038277}]","11046.944999994594","instructions","8","392394","0.0-8.0","SS1619739916640","instructions","","","","","","","","","","","","","","","",""
"","null","html-keyboard-response","9","393414","0.0-9.0-0.0","SS1619739916640","","","null","","","","","","<p><img src= images/blank.png width =""600"" height = ""600"" style=""position:fixed;top:50%; left:50%; transform: translate(-50%, -50%); border:5px solid black"">","","","","","","","",""
"","459.419999999227","sequential-stimulus-presentation-old","10","394386","0.0-9.0-1.0","SS1619739916640","trial","","40","500","959.419999999227","images/stimuli/spore_stims/complex_02_A_b.gif","images/stimuli/spore_stims/complex_05_A_a.gif","forced_short","","0","complex_dissimilar","images/stimuli/spore_stims/complex_05_A_a.gif","","","","",""
"","null","html-keyboard-response","11","395499","0.0-9.0-0.1","SS1619739916640","","","null","","","","","","<p><img src= images/blank.png width =""600"" height = ""600"" style=""position:fixed;top:50%; left:50%; transform: translate(-50%, -50%); border:5px solid black"">","","","","","","","",""
"","15248.569999996107","sequential-stimulus-presentation-old","12","411258","0.0-9.0-1.1","SS1619739916640","trial","","40","500","15748.569999996107","images/stimuli/spore_stims/complex_02_A_b.gif","images/stimuli/spore_stims/complex_05_A_a.gif","forced_short","","0","complex_dissimilar","images/stimuli/spore_stims/complex_05_A_a.gif","","","","",""
"","null","html-keyboard-response","13","412340","0.0-9.0-0.2","SS1619739916640","","","null","","","","","","<p><img src= images/blank.png width =""600"" height = ""600"" style=""position:fixed;top:50%; left:50%; transform: translate(-50%, -50%); border:5px solid black"">","","","","","","","",""
"","1732.1499999961816","sequential-stimulus-presentation-old","14","414578","0.0-9.0-1.2","SS1619739916640","trial","","40","500","2232.1499999961816","images/stimuli/spore_stims/complex_02_A_b.gif","images/stimuli/spore_stims/complex_05_A_a.gif","forced_short","","0","complex_dissimilar","images/stimuli/spore_stims/complex_05_A_a.gif","","","","",""
"","null","html-keyboard-response","15","415693","0.0-9.0-0.3","SS1619739916640","","","null","","","","","","<p><img src= images/blank.png width =""600"" height = ""600"" style=""position:fixed;top:50%; left:50%; transform: translate(-50%, -50%); border:5px solid black"">","","","","","","","",""
"","1010.630000004312","sequential-stimulus-presentation-old","16","417210","0.0-9.0-1.3","SS1619739916640","trial","","40","500","1510.630000004312","images/stimuli/spore_stims/complex_02_A_b.gif","images/stimuli/spore_stims/complex_05_A_a.gif","forced_short","","0","complex_dissimilar","images/stimuli/spore_stims/complex_05_A_a.gif","","","","",""
"","null","html-keyboard-response","17","418031","0.0-9.0-0.4","SS1619739916640","","","null","","","","","","<p><img src= images/blank.png width =""600"" height = ""600"" style=""position:fixed;top:50%; left:50%; transform: translate(-50%, -50%); border:5px solid black"">","","","","","","","",""
"","1566.7649999959394","sequential-stimulus-presentation-old","18","420106","0.0-9.0-1.4","SS1619739916640","trial","","40","500","2066.7649999959394","images/stimuli/spore_stims/complex_02_A_b.gif","images/stimuli/spore_stims/complex_05_A_a.gif","forced_short","","0","complex_dissimilar","images/stimuli/spore_stims/complex_05_A_a.gif","","","","",""
"","4563.349999996717","survey-multi-choice","19","424674","0.0-10.0","SS1619739916640","math_question","","","","","","","","","","","","{""Q0"":""5""}","[0]","5","",""
"","null","html-keyboard-response","20","425932","0.0-11.0-0.0","SS1619739916640","","","null","","","","","","<p><img src= images/blank.png width =""600"" height = ""600"" style=""position:fixed;top:50%; left:50%; transform: translate(-50%, -50%); border:5px solid black"">","","","","","","","",""
"","1921.0599999933038","sequential-stimulus-presentation-old","21","442858","0.0-11.0-1.0","SS1619739916640","trial","","40","500","2421.059999993304","images/stimuli/spore_stims/complex_16_A_b.gif","images/stimuli/spore_stims/complex_02_A_a.gif","forced_long","","1","complex_dissimilar","images/stimuli/spore_stims/complex_02_A_a.gif","","","","",""
"","null","html-keyboard-response","22","444154","0.0-11.0-0.1","SS1619739916640","","","null","","","","","","<p><img src= images/blank.png width =""600"" height = ""600"" style=""position:fixed;top:50%; left:50%; transform: translate(-50%, -50%); border:5px solid black"">","","","","","","","",""
"","13025.659999999334","sequential-stimulus-presentation-old","23","457683","0.0-11.0-1.1","SS1619739916640","trial","","40","500","13525.659999999334","images/stimuli/spore_stims/complex_16_A_b.gif","images/stimuli/spore_stims/complex_02_A_a.gif","forced_long","","1","complex_dissimilar","images/stimuli/spore_stims/complex_16_A_b.gif","","","","",""
"","null","html-keyboard-response","24","458601","0.0-11.0-0.2","SS1619739916640","","","null","","","","","","<p><img src= images/blank.png width =""600"" height = ""600"" style=""position:fixed;top:50%; left:50%; transform: translate(-50%, -50%); border:5px solid black"">","","","","","","","",""
"","1205.455000002985","sequential-stimulus-presentation-old","25","460315","0.0-11.0-1.2","SS1619739916640","trial","","40","500","1705.455000002985","images/stimuli/spore_stims/complex_16_A_b.gif","images/stimuli/spore_stims/complex_02_A_a.gif","forced_long","","1","complex_dissimilar","images/stimuli/spore_stims/complex_02_A_a.gif","","","","",""
"","null","html-keyboard-response","26","461590","0.0-11.0-0.3","SS1619739916640","","","null","","","","","","<p><img src= images/blank.png width =""600"" height = ""600"" style=""position:fixed;top:50%; left:50%; transform: translate(-50%, -50%); border:5px solid black"">","","","","","","","",""
"","786.8600000074366","sequential-stimulus-presentation-old","27","462882","0.0-11.0-1.3","SS1619739916640","trial","","40","500","1286.8600000074366","images/stimuli/spore_stims/complex_16_A_b.gif","images/stimuli/spore_stims/complex_02_A_a.gif","forced_long","","1","complex_dissimilar","images/stimuli/spore_stims/complex_02_A_a.gif","","","","",""
"","null","html-keyboard-response","28","464019","0.0-11.0-0.4","SS1619739916640","","","null","","","","","","<p><img src= images/blank.png width =""600"" height = ""600"" style=""position:fixed;top:50%; left:50%; transform: translate(-50%, -50%); border:5px solid black"">","","","","","","","",""
"","375.4450000124052","sequential-stimulus-presentation-old","29","464906","0.0-11.0-1.4","SS1619739916640","trial","","40","500","875.4450000124052","images/stimuli/spore_stims/complex_16_A_b.gif","images/stimuli/spore_stims/complex_02_A_a.gif","forced_long","","1","complex_dissimilar","images/stimuli/spore_stims/complex_16_A_b.gif","","","","",""
"","3367.354999994859","survey-multi-choice","30","468275","0.0-12.0","SS1619739916640","math_question","","","","","","","","","","","","{""Q0"":""9""}","[0]","9","",""
"","null","html-keyboard-response","31","469159","0.0-13.0-0.0","SS1619739916640","","","null","","","","","","<p><img src= images/blank.png width =""600"" height = ""600"" style=""position:fixed;top:50%; left:50%; transform: translate(-50%, -50%); border:5px solid black"">","","","","","","","",""
"","1105.295000001206","sequential-stimulus-presentation-old","32","485266","0.0-13.0-1.0","SS1619739916640","trial","","40","500","1605.295000001206","images/stimuli/spore_stims/simple_03_A_a.gif","images/stimuli/spore_stims/simple_07_A_b.gif","forced_long","","2","simple_dissimilar","images/stimuli/spore_stims/simple_07_A_b.gif","","","","",""
"","null","html-keyboard-response","33","486108","0.0-13.0-0.1","SS1619739916640","","","null","","","","","","<p><img src= images/blank.png width =""600"" height = ""600"" style=""position:fixed;top:50%; left:50%; transform: translate(-50%, -50%); border:5px solid black"">","","","","","","","",""
"","264.2199999972945","sequential-stimulus-presentation-old","34","486874","0.0-13.0-1.1","SS1619739916640","trial","","40","500","764.2199999972945","images/stimuli/spore_stims/simple_03_A_a.gif","images/stimuli/spore_stims/simple_07_A_b.gif","forced_long","","2","simple_dissimilar","images/stimuli/spore_stims/simple_07_A_b.gif","","","","",""
"","null","html-keyboard-response","35","487718","0.0-13.0-0.2","SS1619739916640","","","null","","","","","","<p><img src= images/blank.png width =""600"" height = ""600"" style=""position:fixed;top:50%; left:50%; transform: translate(-50%, -50%); border:5px solid black"">","","","","","","","",""
"","405.3799999965122","sequential-stimulus-presentation-old","36","488626","0.0-13.0-1.2","SS1619739916640","trial","","40","500","905.3799999965122","images/stimuli/spore_stims/simple_03_A_a.gif","images/stimuli/spore_stims/simple_07_A_b.gif","forced_long","","2","simple_dissimilar","images/stimuli/spore_stims/simple_03_A_a.gif","","","","",""
"","null","html-keyboard-response","37","489834","0.0-13.0-0.3","SS1619739916640","","","null","","","","","","<p><img src= images/blank.png width =""600"" height = ""600"" style=""position:fixed;top:50%; left:50%; transform: translate(-50%, -50%); border:5px solid black"">","","","","","","","",""
"","57.950000002165325","sequential-stimulus-presentation-old","38","490395","0.0-13.0-1.3","SS1619739916640","trial","","40","500","557.9500000021653","images/stimuli/spore_stims/simple_03_A_a.gif","images/stimuli/spore_stims/simple_07_A_b.gif","forced_long","","2","simple_dissimilar","images/stimuli/spore_stims/simple_07_A_b.gif","","","","",""
"","null","html-keyboard-response","39","491393","0.0-13.0-0.4","SS1619739916640","","","null","","","","","","<p><img src= images/blank.png width =""600"" height = ""600"" style=""position:fixed;top:50%; left:50%; transform: translate(-50%, -50%); border:5px solid black"">","","","","","","","",""
"","5194.644999995944","sequential-stimulus-presentation-old","40","497091","0.0-13.0-1.4","SS1619739916640","trial","","40","500","5694.644999995944","images/stimuli/spore_stims/simple_03_A_a.gif","images/stimuli/spore_stims/simple_07_A_b.gif","forced_long","","2","simple_dissimilar","images/stimuli/spore_stims/simple_03_A_a.gif","","","","",""
"","3550.570000006701","survey-multi-choice","41","500643","0.0-14.0","SS1619739916640","math_question","","","","","","","","","","","","{""Q0"":""11""}","[0]","11","",""
"","null","html-keyboard-response","42","502192","0.0-15.0-0.0","SS1619739916640","","","null","","","","","","<p><img src= images/blank.png width =""600"" height = ""600"" style=""position:fixed;top:50%; left:50%; transform: translate(-50%, -50%); border:5px solid black"">","","","","","","","",""
"","203219.6399999957","sequential-stimulus-presentation-old","43","706450","0.0-15.0-1.0","SS1619739916640","trial","","40","500","203719.6399999957","images/stimuli/spore_stims/complex_04_A_b.gif","images/stimuli/spore_stims/complex_08_A_a.gif","self_paced","","3","complex_dissimilar","images/stimuli/spore_stims/complex_08_A_a.gif","","","","",""
"","null","html-keyboard-response","44","707385","0.0-15.0-0.1","SS1619739916640","","","null","","","","","","<p><img src= images/blank.png width =""600"" height = ""600"" style=""position:fixed;top:50%; left:50%; transform: translate(-50%, -50%); border:5px solid black"">","","","","","","","",""
"","232.56999999284744","sequential-stimulus-presentation-old","45","708122","0.0-15.0-1.1","SS1619739916640","trial","","40","500","732.5699999928474","images/stimuli/spore_stims/complex_04_A_b.gif","images/stimuli/spore_stims/complex_08_A_a.gif","self_paced","","3","complex_dissimilar","images/stimuli/spore_stims/complex_08_A_a.gif","","","","",""
"","null","html-keyboard-response","46","709106","0.0-15.0-0.2","SS1619739916640","","","null","","","","","","<p><img src= images/blank.png width =""600"" height = ""600"" style=""position:fixed;top:50%; left:50%; transform: translate(-50%, -50%); border:5px solid black"">","","","","","","","",""
"","452406.69499999774","sequential-stimulus-presentation-old","47","1162016","0.0-15.0-1.2","SS1619739916640","trial","","40","500","452906.69499999774","images/stimuli/spore_stims/complex_04_A_b.gif","images/stimuli/spore_stims/complex_08_A_a.gif","self_paced","","3","complex_dissimilar","images/stimuli/spore_stims/complex_08_A_a.gif","","","","",""
"","null","html-keyboard-response","48","1163021","0.0-15.0-0.3","SS1619739916640","","","null","","","","","","<p><img src= images/blank.png width =""600"" height = ""600"" style=""position:fixed;top:50%; left:50%; transform: translate(-50%, -50%); border:5px solid black"">","","","","","","","",""
"","356.4550000010058","sequential-stimulus-presentation-old","49","1163881","0.0-15.0-1.3","SS1619739916640","trial","","40","500","856.4550000010058","images/stimuli/spore_stims/complex_04_A_b.gif","images/stimuli/spore_stims/complex_08_A_a.gif","self_paced","","3","complex_dissimilar","images/stimuli/spore_stims/complex_08_A_a.gif","","","","",""
"","null","html-keyboard-response","50","1165128","0.0-15.0-0.4","SS1619739916640","","","null","","","","","","<p><img src= images/blank.png width =""600"" height = ""600"" style=""position:fixed;top:50%; left:50%; transform: translate(-50%, -50%); border:5px solid black"">","","","","","","","",""
"","184.60500000207685","sequential-stimulus-presentation-old","51","1165817","0.0-15.0-1.4","SS1619739916640","trial","","40","500","684.6050000020768","images/stimuli/spore_stims/complex_04_A_b.gif","images/stimuli/spore_stims/complex_08_A_a.gif","self_paced","","3","complex_dissimilar","images/stimuli/spore_stims/complex_08_A_a.gif","","","","",""
"","null","html-keyboard-response","52","1166778","0.0-15.0-0.5","SS1619739916640","","","null","","","","","","<p><img src= images/blank.png width =""600"" height = ""600"" style=""position:fixed;top:50%; left:50%; transform: translate(-50%, -50%); border:5px solid black"">","","","","","","","",""
"","10.544999997597188","sequential-stimulus-presentation-old","53","1167297","0.0-15.0-1.5","SS1619739916640","trial","","40","500","510.5449999975972","images/stimuli/spore_stims/complex_04_A_b.gif","images/stimuli/spore_stims/complex_08_A_a.gif","self_paced","","3","complex_dissimilar","images/stimuli/spore_stims/complex_08_A_a.gif","","","","",""
"","5292.890000011306","survey-multi-choice","54","1172593","0.0-16.0","SS1619739916640","math_question","","","","","","","","","","","","{""Q0"":""10""}","[0]","10","",""
"","null","html-keyboard-response","55","1173577","0.0-17.0-0.0","SS1619739916640","","","null","","","","","","<p><img src= images/blank.png width =""600"" height = ""600"" style=""position:fixed;top:50%; left:50%; transform: translate(-50%, -50%); border:5px solid black"">","","","","","","","",""
"","2378.0549999936484","sequential-stimulus-presentation-old","56","1176560","0.0-17.0-1.0","SS1619739916640","trial","","40","500","2878.0549999936484","images/stimuli/spore_stims/simple_14_A_b.gif","images/stimuli/spore_stims/simple_13_A_a.gif","self_paced","","4","simple_dissimilar","images/stimuli/spore_stims/simple_13_A_a.gif","","","","",""
"","null","html-keyboard-response","57","1177712","0.0-17.0-0.1","SS1619739916640","","","null","","","","","","<p><img src= images/blank.png width =""600"" height = ""600"" style=""position:fixed;top:50%; left:50%; transform: translate(-50%, -50%); border:5px solid black"">","","","","","","","",""
"","6214.559999993071","sequential-stimulus-presentation-old","58","1184440","0.0-17.0-1.1","SS1619739916640","trial","","40","500","6714.559999993071","images/stimuli/spore_stims/simple_14_A_b.gif","images/stimuli/spore_stims/simple_13_A_a.gif","self_paced","","4","simple_dissimilar","images/stimuli/spore_stims/simple_13_A_a.gif","","","","",""
"","null","html-keyboard-response","59","1185589","0.0-17.0-0.2","SS1619739916640","","","null","","","","","","<p><img src= images/blank.png width =""600"" height = ""600"" style=""position:fixed;top:50%; left:50%; transform: translate(-50%, -50%); border:5px solid black"">","","","","","","","",""
"","161.64000000571832","sequential-stimulus-presentation-old","60","1186256","0.0-17.0-1.2","SS1619739916640","trial","","40","500","661.6400000057183","images/stimuli/spore_stims/simple_14_A_b.gif","images/stimuli/spore_stims/simple_13_A_a.gif","self_paced","","4","simple_dissimilar","images/stimuli/spore_stims/simple_13_A_a.gif","","","","",""
"","null","html-keyboard-response","61","1187252","0.0-17.0-0.3","SS1619739916640","","","null","","","","","","<p><img src= images/blank.png width =""600"" height = ""600"" style=""position:fixed;top:50%; left:50%; transform: translate(-50%, -50%); border:5px solid black"">","","","","","","","",""
"","44635.20499999868","sequential-stimulus-presentation-old","62","1232393","0.0-17.0-1.3","SS1619739916640","trial","","40","500","45135.20499999868","images/stimuli/spore_stims/simple_14_A_b.gif","images/stimuli/spore_stims/simple_13_A_a.gif","self_paced","","4","simple_dissimilar","images/stimuli/spore_stims/simple_13_A_a.gif","","","","",""
"","null","html-keyboard-response","63","1233468","0.0-17.0-0.4","SS1619739916640","","","null","","","","","","<p><img src= images/blank.png width =""600"" height = ""600"" style=""position:fixed;top:50%; left:50%; transform: translate(-50%, -50%); border:5px solid black"">","","","","","","","",""
"","150.89000000455417","sequential-stimulus-presentation-old","64","1234121","0.0-17.0-1.4","SS1619739916640","trial","","40","500","650.8900000045542","images/stimuli/spore_stims/simple_14_A_b.gif","images/stimuli/spore_stims/simple_13_A_a.gif","self_paced","","4","simple_dissimilar","images/stimuli/spore_stims/simple_13_A_a.gif","","","","",""
"","null","html-keyboard-response","65","1236178","0.0-17.0-0.5","SS1619739916640","","","null","","","","","","<p><img src= images/blank.png width =""600"" height = ""600"" style=""position:fixed;top:50%; left:50%; transform: translate(-50%, -50%); border:5px solid black"">","","","","","","","",""
"","22064.790000003763","sequential-stimulus-presentation-old","66","1259257","0.0-17.0-1.5","SS1619739916640","trial","","40","500","22564.790000003763","images/stimuli/spore_stims/simple_14_A_b.gif","images/stimuli/spore_stims/simple_13_A_a.gif","self_paced","","4","simple_dissimilar","images/stimuli/spore_stims/simple_13_A_a.gif","","","","",""
"","3110.245000003604","survey-multi-choice","67","1262370","0.0-18.0","SS1619739916640","math_question","","","","","","","","","","","","{""Q0"":""11""}","[0]","11","",""
"","null","html-keyboard-response","68","1264184","0.0-19.0-0.0","SS1619739916640","","","null","","","","","","<p><img src= images/blank.png width =""600"" height = ""600"" style=""position:fixed;top:50%; left:50%; transform: translate(-50%, -50%); border:5px solid black"">","","","","","","","",""
"","4818.254999991041","sequential-stimulus-presentation-old","69","1270009","0.0-19.0-1.0","SS1619739916640","trial","","40","500","5318.254999991041","images/stimuli/spore_stims/simple_03_A_b.gif","images/stimuli/spore_stims/simple_16_A_a.gif","self_paced","","5","simple_dissimilar","images/stimuli/spore_stims/simple_16_A_a.gif","","","","",""
"","null","html-keyboard-response","70","1271131","0.0-19.0-0.1","SS1619739916640","","","null","","","","","","<p><img src= images/blank.png width =""600"" height = ""600"" style=""position:fixed;top:50%; left:50%; transform: translate(-50%, -50%); border:5px solid black"">","","","","","","","",""
"","15387.195000003092","sequential-stimulus-presentation-old","71","1287569","0.0-19.0-1.1","SS1619739916640","trial","","40","500","15887.195000003092","images/stimuli/spore_stims/simple_03_A_b.gif","images/stimuli/spore_stims/simple_16_A_a.gif","self_paced","","5","simple_dissimilar","images/stimuli/spore_stims/simple_16_A_a.gif","","","","",""
"","null","html-keyboard-response","72","1288507","0.0-19.0-0.2","SS1619739916640","","","null","","","","","","<p><img src= images/blank.png width =""600"" height = ""600"" style=""position:fixed;top:50%; left:50%; transform: translate(-50%, -50%); border:5px solid black"">","","","","","","","",""
"","206.73499999963678","sequential-stimulus-presentation-old","73","1289217","0.0-19.0-1.2","SS1619739916640","trial","","40","500","706.7349999996368","images/stimuli/spore_stims/simple_03_A_b.gif","images/stimuli/spore_stims/simple_16_A_a.gif","self_paced","","5","simple_dissimilar","images/stimuli/spore_stims/simple_16_A_a.gif","","","","",""
"","null","html-keyboard-response","74","1290063","0.0-19.0-0.3","SS1619739916640","","","null","","","","","","<p><img src= images/blank.png width =""600"" height = ""600"" style=""position:fixed;top:50%; left:50%; transform: translate(-50%, -50%); border:5px solid black"">","","","","","","","",""
"","316.2349999912549","sequential-stimulus-presentation-old","75","1290882","0.0-19.0-1.3","SS1619739916640","trial","","40","500","816.2349999912549","images/stimuli/spore_stims/simple_03_A_b.gif","images/stimuli/spore_stims/simple_16_A_a.gif","self_paced","","5","simple_dissimilar","images/stimuli/spore_stims/simple_16_A_a.gif","","","","",""
"","null","html-keyboard-response","76","1291998","0.0-19.0-0.4","SS1619739916640","","","null","","","","","","<p><img src= images/blank.png width =""600"" height = ""600"" style=""position:fixed;top:50%; left:50%; transform: translate(-50%, -50%); border:5px solid black"">","","","","","","","",""
"","300.10500000207685","sequential-stimulus-presentation-old","77","1292801","0.0-19.0-1.4","SS1619739916640","trial","","40","500","800.1050000020768","images/stimuli/spore_stims/simple_03_A_b.gif","images/stimuli/spore_stims/simple_16_A_a.gif","self_paced","","5","simple_dissimilar","images/stimuli/spore_stims/simple_16_A_a.gif","","","","",""
"","null","html-keyboard-response","78","1293818","0.0-19.0-0.5","SS1619739916640","","","null","","","","","","<p><img src= images/blank.png width =""600"" height = ""600"" style=""position:fixed;top:50%; left:50%; transform: translate(-50%, -50%); border:5px solid black"">","","","","","","","",""
"","143.02499999757856","sequential-stimulus-presentation-old","79","1294465","0.0-19.0-1.5","SS1619739916640","trial","","40","500","643.0249999975786","images/stimuli/spore_stims/simple_03_A_b.gif","images/stimuli/spore_stims/simple_16_A_a.gif","self_paced","","5","simple_dissimilar","images/stimuli/spore_stims/simple_16_A_a.gif","","","","",""
"","3326.6450000084005","survey-multi-choice","80","1297793","0.0-20.0","SS1619739916640","math_question","","","","","","","","","","","","{""Q0"":""10""}","[0]","10","",""
"","null","html-keyboard-response","81","1299186","0.0-21.0-0.0","SS1619739916640","","","null","","","","","","<p><img src= images/blank.png width =""600"" height = ""600"" style=""position:fixed;top:50%; left:50%; transform: translate(-50%, -50%); border:5px solid black"">","","","","","","","",""
"","101253.72500000219","sequential-stimulus-presentation-old","82","1401465","0.0-21.0-1.0","SS1619739916640","trial","","40","500","101753.72500000219","images/stimuli/spore_stims/simple_08_A_a.gif","images/stimuli/spore_stims/simple_11_A_b.gif","forced_short","","6","simple_dissimilar","images/stimuli/spore_stims/simple_11_A_b.gif","","","","",""
"","null","html-keyboard-response","83","1403180","0.0-21.0-0.1","SS1619739916640","","","null","","","","","","<p><img src= images/blank.png width =""600"" height = ""600"" style=""position:fixed;top:50%; left:50%; transform: translate(-50%, -50%); border:5px solid black"">","","","","","","","",""
"","5908.84999999241","sequential-stimulus-presentation-old","84","1409592","0.0-21.0-1.1","SS1619739916640","trial","","40","500","6408.84999999241","images/stimuli/spore_stims/simple_08_A_a.gif","images/stimuli/spore_stims/simple_11_A_b.gif","forced_short","","6","simple_dissimilar","images/stimuli/spore_stims/simple_11_A_b.gif","","","","",""
"","null","html-keyboard-response","85","1411192","0.0-21.0-0.2","SS1619739916640","","","null","","","","","","<p><img src= images/blank.png width =""600"" height = ""600"" style=""position:fixed;top:50%; left:50%; transform: translate(-50%, -50%); border:5px solid black"">","","","","","","","",""
"","22100.34499999904","sequential-stimulus-presentation-old","86","1434281","0.0-21.0-1.2","SS1619739916640","trial","","40","500","22600.34499999904","images/stimuli/spore_stims/simple_08_A_a.gif","images/stimuli/spore_stims/simple_11_A_b.gif","forced_short","","6","simple_dissimilar","images/stimuli/spore_stims/simple_11_A_b.gif","","","","",""
"","null","html-keyboard-response","87","1435357","0.0-21.0-0.3","SS1619739916640","","","null","","","","","","<p><img src= images/blank.png width =""600"" height = ""600"" style=""position:fixed;top:50%; left:50%; transform: translate(-50%, -50%); border:5px solid black"">","","","","","","","",""
"","1.6449999965261668","sequential-stimulus-presentation-old","88","1435872","0.0-21.0-1.3","SS1619739916640","trial","","40","500","501.64499999652617","images/stimuli/spore_stims/simple_08_A_a.gif","images/stimuli/spore_stims/simple_11_A_b.gif","forced_short","","6","simple_dissimilar","images/stimuli/spore_stims/simple_08_A_a.gif","","","","",""
"","3750.4300000001676","survey-multi-choice","89","1439625","0.0-22.0","SS1619739916640","math_question","","","","","","","","","","","","{""Q0"":""11""}","[0]","11","",""
"","null","html-keyboard-response","90","1441194","0.0-23.0-0.0","SS1619739916640","","","null","","","","","","<p><img src= images/blank.png width =""600"" height = ""600"" style=""position:fixed;top:50%; left:50%; transform: translate(-50%, -50%); border:5px solid black"">","","","","","","","",""
"","885.1699999938719","sequential-stimulus-presentation-old","91","1443040","0.0-23.0-1.0","SS1619739916640","trial","","40","500","1385.169999993872","images/stimuli/spore_stims/complex_05_A_b.gif","images/stimuli/spore_stims/complex_16_A_a.gif","forced_short","","7","complex_dissimilar","images/stimuli/spore_stims/complex_16_A_a.gif","","","","",""
"","null","html-keyboard-response","92","1444319","0.0-23.0-0.1","SS1619739916640","","","null","","","","","","<p><img src= images/blank.png width =""600"" height = ""600"" style=""position:fixed;top:50%; left:50%; transform: translate(-50%, -50%); border:5px solid black"">","","","","","","","",""
"","227.01000000233762","sequential-stimulus-presentation-old","93","1445049","0.0-23.0-1.1","SS1619739916640","trial","","40","500","727.0100000023376","images/stimuli/spore_stims/complex_05_A_b.gif","images/stimuli/spore_stims/complex_16_A_a.gif","forced_short","","7","complex_dissimilar","images/stimuli/spore_stims/complex_16_A_a.gif","","","","",""
"","null","html-keyboard-response","94","1446185","0.0-23.0-0.2","SS1619739916640","","","null","","","","","","<p><img src= images/blank.png width =""600"" height = ""600"" style=""position:fixed;top:50%; left:50%; transform: translate(-50%, -50%); border:5px solid black"">","","","","","","","",""
"","23423.07499999879","sequential-stimulus-presentation-old","95","1470608","0.0-23.0-1.2","SS1619739916640","trial","","40","500","23923.07499999879","images/stimuli/spore_stims/complex_05_A_b.gif","images/stimuli/spore_stims/complex_16_A_a.gif","forced_short","","7","complex_dissimilar","images/stimuli/spore_stims/complex_16_A_a.gif","","","","",""
"","null","html-keyboard-response","96","1471898","0.0-23.0-0.3","SS1619739916640","","","null","","","","","","<p><img src= images/blank.png width =""600"" height = ""600"" style=""position:fixed;top:50%; left:50%; transform: translate(-50%, -50%); border:5px solid black"">","","","","","","","",""
"","167.47000000043772","sequential-stimulus-presentation-old","97","1472568","0.0-23.0-1.3","SS1619739916640","trial","","40","500","667.4700000004377","images/stimuli/spore_stims/complex_05_A_b.gif","images/stimuli/spore_stims/complex_16_A_a.gif","forced_short","","7","complex_dissimilar","images/stimuli/spore_stims/complex_16_A_a.gif","","","","",""
"","null","html-keyboard-response","98","1474186","0.0-23.0-0.4","SS1619739916640","","","null","","","","","","<p><img src= images/blank.png width =""600"" height = ""600"" style=""position:fixed;top:50%; left:50%; transform: translate(-50%, -50%); border:5px solid black"">","","","","","","","",""
"","4214.489999998361","sequential-stimulus-presentation-old","99","1479416","0.0-23.0-1.4","SS1619739916640","trial","","40","500","4714.489999998361","images/stimuli/spore_stims/complex_05_A_b.gif","images/stimuli/spore_stims/complex_16_A_a.gif","forced_short","","7","complex_dissimilar","images/stimuli/spore_stims/complex_16_A_a.gif","","","","",""
"","5157.944999998901","survey-multi-choice","100","1484576","0.0-24.0","SS1619739916640","math_question","","","","","","","","","","","","{""Q0"":""12""}","[0]","12","",""
"","null","html-keyboard-response","101","1485617","0.0-25.0-0.0","SS1619739916640","","","null","","","","","","<p><img src= images/blank.png width =""600"" height = ""600"" style=""position:fixed;top:50%; left:50%; transform: translate(-50%, -50%); border:5px solid black"">","","","","","","","",""
"","674.9750000019558","sequential-stimulus-presentation-old","102","1486944","0.0-25.0-1.0","SS1619739916640","trial","","40","500","1174.9750000019558","images/stimuli/spore_stims/complex_01_A_a.gif","images/stimuli/spore_stims/complex_09_A_b.gif","self_paced","","8","complex_dissimilar","images/stimuli/spore_stims/complex_09_A_b.gif","","","","",""
"","null","html-keyboard-response","103","1488165","0.0-25.0-0.1","SS1619739916640","","","null","","","","","","<p><img src= images/blank.png width =""600"" height = ""600"" style=""position:fixed;top:50%; left:50%; transform: translate(-50%, -50%); border:5px solid black"">","","","","","","","",""
"","400.21999999601394","sequential-stimulus-presentation-old","104","1489080","0.0-25.0-1.1","SS1619739916640","trial","","40","500","900.2199999960139","images/stimuli/spore_stims/complex_01_A_a.gif","images/stimuli/spore_stims/complex_09_A_b.gif","self_paced","","8","complex_dissimilar","images/stimuli/spore_stims/complex_01_A_a.gif","","","","",""
"","null","html-keyboard-response","105","1490239","0.0-25.0-0.2","SS1619739916640","","","null","","","","","","<p><img src= images/blank.png width =""600"" height = ""600"" style=""position:fixed;top:50%; left:50%; transform: translate(-50%, -50%); border:5px solid black"">","","","","","","","",""
"","197.62500000093132","sequential-stimulus-presentation-old","106","1490944","0.0-25.0-1.2","SS1619739916640","trial","","40","500","697.6250000009313","images/stimuli/spore_stims/complex_01_A_a.gif","images/stimuli/spore_stims/complex_09_A_b.gif","self_paced","","8","complex_dissimilar","images/stimuli/spore_stims/complex_01_A_a.gif","","","","",""
"","null","html-keyboard-response","107","1492152","0.0-25.0-0.3","SS1619739916640","","","null","","","","","","<p><img src= images/blank.png width =""600"" height = ""600"" style=""position:fixed;top:50%; left:50%; transform: translate(-50%, -50%); border:5px solid black"">","","","","","","","",""
"","142.28500000899658","sequential-stimulus-presentation-old","108","1492800","0.0-25.0-1.3","SS1619739916640","trial","","40","500","642.2850000089966","images/stimuli/spore_stims/complex_01_A_a.gif","images/stimuli/spore_stims/complex_09_A_b.gif","self_paced","","8","complex_dissimilar","images/stimuli/spore_stims/complex_09_A_b.gif","","","","",""
"","3445.8650000016205","survey-multi-choice","109","1496248","0.0-26.0","SS1619739916640","math_question","","","","","","","","","","","","{""Q0"":""14""}","[0]","14","",""
"","null","html-keyboard-response","110","1498199","0.0-27.0-0.0","SS1619739916640","","","null","","","","","","<p><img src= images/blank.png width =""600"" height = ""600"" style=""position:fixed;top:50%; left:50%; transform: translate(-50%, -50%); border:5px solid black"">","","","","","","","",""
"","18110.345000008354","sequential-stimulus-presentation-old","111","1532289","0.0-27.0-1.0","SS1619739916640","trial","","40","500","18610.345000008354","images/stimuli/spore_stims/simple_19_A_a.gif","images/stimuli/spore_stims/simple_04_A_b.gif","forced_long","","9","simple_dissimilar","images/stimuli/spore_stims/simple_04_A_b.gif","","","","",""
"","null","html-keyboard-response","112","1533518","0.0-27.0-0.1","SS1619739916640","","","null","","","","","","<p><img src= images/blank.png width =""600"" height = ""600"" style=""position:fixed;top:50%; left:50%; transform: translate(-50%, -50%); border:5px solid black"">","","","","","","","",""
"","1121.440000002738","sequential-stimulus-presentation-old","113","1535153","0.0-27.0-1.1","SS1619739916640","trial","","40","500","1621.440000002738","images/stimuli/spore_stims/simple_19_A_a.gif","images/stimuli/spore_stims/simple_04_A_b.gif","forced_long","","9","simple_dissimilar","images/stimuli/spore_stims/simple_04_A_b.gif","","","","",""
"","null","html-keyboard-response","114","1536159","0.0-27.0-0.2","SS1619739916640","","","null","","","","","","<p><img src= images/blank.png width =""600"" height = ""600"" style=""position:fixed;top:50%; left:50%; transform: translate(-50%, -50%); border:5px solid black"">","","","","","","","",""
"","118.3599999928847","sequential-stimulus-presentation-old","115","1536785","0.0-27.0-1.2","SS1619739916640","trial","","40","500","618.3599999928847","images/stimuli/spore_stims/simple_19_A_a.gif","images/stimuli/spore_stims/simple_04_A_b.gif","forced_long","","9","simple_dissimilar","images/stimuli/spore_stims/simple_19_A_a.gif","","","","",""
"","null","html-keyboard-response","116","1537983","0.0-27.0-0.3","SS1619739916640","","","null","","","","","","<p><img src= images/blank.png width =""600"" height = ""600"" style=""position:fixed;top:50%; left:50%; transform: translate(-50%, -50%); border:5px solid black"">","","","","","","","",""
"","657.4799999943934","sequential-stimulus-presentation-old","117","1539145","0.0-27.0-1.3","SS1619739916640","trial","","40","500","1157.4799999943934","images/stimuli/spore_stims/simple_19_A_a.gif","images/stimuli/spore_stims/simple_04_A_b.gif","forced_long","","9","simple_dissimilar","images/stimuli/spore_stims/simple_04_A_b.gif","","","","",""
"","null","html-keyboard-response","118","1541179","0.0-27.0-0.4","SS1619739916640","","","null","","","","","","<p><img src= images/blank.png width =""600"" height = ""600"" style=""position:fixed;top:50%; left:50%; transform: translate(-50%, -50%); border:5px solid black"">","","","","","","","",""
"","41392.889999988256","sequential-stimulus-presentation-old","119","1583584","0.0-27.0-1.4","SS1619739916640","trial","","40","500","41892.889999988256","images/stimuli/spore_stims/simple_19_A_a.gif","images/stimuli/spore_stims/simple_04_A_b.gif","forced_long","","9","simple_dissimilar","images/stimuli/spore_stims/simple_04_A_b.gif","","","","",""
"","2373.5649999871384","survey-multi-choice","120","1585961","0.0-28.0","SS1619739916640","math_question","","","","","","","","","","","","{""Q0"":""6""}","[0]","6","",""
"","null","html-keyboard-response","121","1587188","0.0-29.0-0.0","SS1619739916640","","","null","","","","","","<p><img src= images/blank.png width =""600"" height = ""600"" style=""position:fixed;top:50%; left:50%; transform: translate(-50%, -50%); border:5px solid black"">","","","","","","","",""
"","3840.295000001788","sequential-stimulus-presentation-old","122","1591568","0.0-29.0-1.0","SS1619739916640","trial","","40","500","4340.295000001788","images/stimuli/spore_stims/simple_20_A_a.gif","images/stimuli/spore_stims/simple_05_A_b.gif","forced_short","","10","simple_dissimilar","images/stimuli/spore_stims/simple_05_A_b.gif","","","","",""
"","null","html-keyboard-response","123","1592535","0.0-29.0-0.1","SS1619739916640","","","null","","","","","","<p><img src= images/blank.png width =""600"" height = ""600"" style=""position:fixed;top:50%; left:50%; transform: translate(-50%, -50%); border:5px solid black"">","","","","","","","",""
"","2205.475000009639","sequential-stimulus-presentation-old","124","1595383","0.0-29.0-1.1","SS1619739916640","trial","","40","500","2705.475000009639","images/stimuli/spore_stims/simple_20_A_a.gif","images/stimuli/spore_stims/simple_05_A_b.gif","forced_short","","10","simple_dissimilar","images/stimuli/spore_stims/simple_05_A_b.gif","","","","",""
"","null","html-keyboard-response","125","1597176","0.0-29.0-0.2","SS1619739916640","","","null","","","","","","<p><img src= images/blank.png width =""600"" height = ""600"" style=""position:fixed;top:50%; left:50%; transform: translate(-50%, -50%); border:5px solid black"">","","","","","","","",""
"","13284.585000001127","sequential-stimulus-presentation-old","126","1611473","0.0-29.0-1.2","SS1619739916640","trial","","40","500","13784.585000001127","images/stimuli/spore_stims/simple_20_A_a.gif","images/stimuli/spore_stims/simple_05_A_b.gif","forced_short","","10","simple_dissimilar","images/stimuli/spore_stims/simple_20_A_a.gif","","","","",""
"","null","html-keyboard-response","127","1613181","0.0-29.0-0.3","SS1619739916640","","","null","","","","","","<p><img src= images/blank.png width =""600"" height = ""600"" style=""position:fixed;top:50%; left:50%; transform: translate(-50%, -50%); border:5px solid black"">","","","","","","","",""
"","20785.320000009844","sequential-stimulus-presentation-old","128","1634968","0.0-29.0-1.3","SS1619739916640","trial","","40","500","21285.320000009844","images/stimuli/spore_stims/simple_20_A_a.gif","images/stimuli/spore_stims/simple_05_A_b.gif","forced_short","","10","simple_dissimilar","images/stimuli/spore_stims/simple_20_A_a.gif","","","","",""
"","null","html-keyboard-response","129","1636095","0.0-29.0-0.4","SS1619739916640","","","null","","","","","","<p><img src= images/blank.png width =""600"" height = ""600"" style=""position:fixed;top:50%; left:50%; transform: translate(-50%, -50%); border:5px solid black"">","","","","","","","",""
"","2330.2100000001956","sequential-stimulus-presentation-old","130","1638928","0.0-29.0-1.4","SS1619739916640","trial","","40","500","2830.2100000001956","images/stimuli/spore_stims/simple_20_A_a.gif","images/stimuli/spore_stims/simple_05_A_b.gif","forced_short","","10","simple_dissimilar","images/stimuli/spore_stims/simple_05_A_b.gif","","","","",""
"","null","html-keyboard-response","131","1640184","0.0-29.0-0.5","SS1619739916640","","","null","","","","","","<p><img src= images/blank.png width =""600"" height = ""600"" style=""position:fixed;top:50%; left:50%; transform: translate(-50%, -50%); border:5px solid black"">","","","","","","","",""
"","5067.964999994729","sequential-stimulus-presentation-old","132","1646256","0.0-29.0-1.5","SS1619739916640","trial","","40","500","5567.964999994729","images/stimuli/spore_stims/simple_20_A_a.gif","images/stimuli/spore_stims/simple_05_A_b.gif","forced_short","","10","simple_dissimilar","images/stimuli/spore_stims/simple_05_A_b.gif","","","","",""
"","4798.130000010133","survey-multi-choice","133","1651056","0.0-30.0","SS1619739916640","math_question","","","","","","","","","","","","{""Q0"":""13""}","[0]","13","",""
"","null","html-keyboard-response","134","1652180","0.0-31.0-0.0","SS1619739916640","","","null","","","","","","<p><img src= images/blank.png width =""600"" height = ""600"" style=""position:fixed;top:50%; left:50%; transform: translate(-50%, -50%); border:5px solid black"">","","","","","","","",""
"","1144.8050000034273","sequential-stimulus-presentation-old","135","1669328","0.0-31.0-1.0","SS1619739916640","trial","","40","500","1644.8050000034273","images/stimuli/spore_stims/complex_15_A_a.gif","images/stimuli/spore_stims/complex_03_A_b.gif","forced_long","","11","complex_dissimilar","images/stimuli/spore_stims/complex_03_A_b.gif","","","","",""
"","null","html-keyboard-response","136","1670284","0.0-31.0-0.1","SS1619739916640","","","null","","","","","","<p><img src= images/blank.png width =""600"" height = ""600"" style=""position:fixed;top:50%; left:50%; transform: translate(-50%, -50%); border:5px solid black"">","","","","","","","",""
"","133.87499999953434","sequential-stimulus-presentation-old","137","1670928","0.0-31.0-1.1","SS1619739916640","trial","","40","500","633.8749999995343","images/stimuli/spore_stims/complex_15_A_a.gif","images/stimuli/spore_stims/complex_03_A_b.gif","forced_long","","11","complex_dissimilar","images/stimuli/spore_stims/complex_03_A_b.gif","","","","",""
"","null","html-keyboard-response","138","1672182","0.0-31.0-0.2","SS1619739916640","","","null","","","","","","<p><img src= images/blank.png width =""600"" height = ""600"" style=""position:fixed;top:50%; left:50%; transform: translate(-50%, -50%); border:5px solid black"">","","","","","","","",""
"","26333.159999994794","sequential-stimulus-presentation-old","139","1699520","0.0-31.0-1.2","SS1619739916640","trial","","40","500","26833.159999994794","images/stimuli/spore_stims/complex_15_A_a.gif","images/stimuli/spore_stims/complex_03_A_b.gif","forced_long","","11","complex_dissimilar","images/stimuli/spore_stims/complex_03_A_b.gif","","","","",""
"","null","html-keyboard-response","140","1700788","0.0-31.0-0.3","SS1619739916640","","","null","","","","","","<p><img src= images/blank.png width =""600"" height = ""600"" style=""position:fixed;top:50%; left:50%; transform: translate(-50%, -50%); border:5px solid black"">","","","","","","","",""
"","1.3350000081118196","sequential-stimulus-presentation-old","141","1701303","0.0-31.0-1.3","SS1619739916640","trial","","40","500","501.3350000081118","images/stimuli/spore_stims/complex_15_A_a.gif","images/stimuli/spore_stims/complex_03_A_b.gif","forced_long","","11","complex_dissimilar","images/stimuli/spore_stims/complex_03_A_b.gif","","","","",""
"","null","html-keyboard-response","142","1702544","0.0-31.0-0.4","SS1619739916640","","","null","","","","","","<p><img src= images/blank.png width =""600"" height = ""600"" style=""position:fixed;top:50%; left:50%; transform: translate(-50%, -50%); border:5px solid black"">","","","","","","","",""
"","501.3749999925494","sequential-stimulus-presentation-old","143","1703560","0.0-31.0-1.4","SS1619739916640","trial","","40","500","1001.3749999925494","images/stimuli/spore_stims/complex_15_A_a.gif","images/stimuli/spore_stims/complex_03_A_b.gif","forced_long","","11","complex_dissimilar","images/stimuli/spore_stims/complex_03_A_b.gif","","","","",""
"","null","html-keyboard-response","144","1704684","0.0-31.0-0.5","SS1619739916640","","","null","","","","","","<p><img src= images/blank.png width =""600"" height = ""600"" style=""position:fixed;top:50%; left:50%; transform: translate(-50%, -50%); border:5px solid black"">","","","","","","","",""
"","2460.999999995809","sequential-stimulus-presentation-old","145","1707655","0.0-31.0-1.5","SS1619739916640","trial","","40","500","2960.999999995809","images/stimuli/spore_stims/complex_15_A_a.gif","images/stimuli/spore_stims/complex_03_A_b.gif","forced_long","","11","complex_dissimilar","images/stimuli/spore_stims/complex_03_A_b.gif","","","","",""
"[{""page_index"":0,""viewing_time"":16837.87499999744}]","16838.15999999945","instructions","146","1724496","0.0-32.0","SS1619739916640","instructions","","","","","","","","","","","","","","","",""
"","5773.3349999906495","survey-likert","147","1730272","0.0-33.0","SS1619739916640","similarity_question","","","","","","","","","","","","{""Q0"":3}","[0]","","images/stimuli/spore_stims/complex_16_A_b.gif","images/stimuli/spore_stims/complex_02_A_a.gif"
"","9641.405000002123","survey-likert","148","1739920","0.0-34.0","SS1619739916640","similarity_question","","","","","","","","","","","","{""Q0"":5}","[0]","","images/stimuli/spore_stims/complex_05_A_a.gif","images/stimuli/spore_stims/complex_02_A_b.gif"
"","109833.1850000103","survey-likert","149","1849761","0.0-35.0","SS1619739916640","similarity_question","","","","","","","","","","","","{""Q0"":4}","[0]","","images/stimuli/spore_stims/simple_04_A_b.gif","images/stimuli/spore_stims/simple_19_A_a.gif"
"","5352.385000005597","survey-likert","150","1855120","0.0-36.0","SS1619739916640","similarity_question","","","","","","","","","","","","{""Q0"":5}","[0]","","images/stimuli/spore_stims/complex_08_A_a.gif","images/stimuli/spore_stims/complex_04_A_b.gif"
"","5569.580000010319","survey-likert","151","1860697","0.0-37.0","SS1619739916640","similarity_question","","","","","","","","","","","","{""Q0"":3}","[0]","","images/stimuli/spore_stims/complex_15_A_a.gif","images/stimuli/spore_stims/complex_03_A_b.gif"
"","3985.580000007758","survey-likert","152","1864689","0.0-38.0","SS1619739916640","similarity_question","","","","","","","","","","","","{""Q0"":4}","[0]","","images/stimuli/spore_stims/simple_16_A_a.gif","images/stimuli/spore_stims/simple_03_A_b.gif"
"","4841.690000001108","survey-likert","153","1869536","0.0-39.0","SS1619739916640","similarity_question","","","","","","","","","","","","{""Q0"":5}","[0]","","images/stimuli/spore_stims/simple_05_A_b.gif","images/stimuli/spore_stims/simple_20_A_a.gif"
"","2809.0099999972153","survey-likert","154","1872352","0.0-40.0","SS1619739916640","similarity_question","","","","","","","","","","","","{""Q0"":3}","[0]","","images/stimuli/spore_stims/complex_16_A_a.gif","images/stimuli/spore_stims/complex_05_A_b.gif"
"","5313.4649999991525","survey-likert","155","1877672","0.0-41.0","SS1619739916640","similarity_question","","","","","","","","","","","","{""Q0"":4}","[0]","","images/stimuli/spore_stims/complex_01_A_a.gif","images/stimuli/spore_stims/complex_09_A_b.gif"
"","3609.54999999376","survey-likert","156","1881288","0.0-42.0","SS1619739916640","similarity_question","","","","","","","","","","","","{""Q0"":4}","[0]","","images/stimuli/spore_stims/simple_03_A_a.gif","images/stimuli/spore_stims/simple_07_A_b.gif"
"","2448.9400000020396","survey-likert","157","1883744","0.0-43.0","SS1619739916640","similarity_question","","","","","","","","","","","","{""Q0"":5}","[0]","","images/stimuli/spore_stims/simple_13_A_a.gif","images/stimuli/spore_stims/simple_14_A_b.gif"
"","3793.9250000054017","survey-likert","158","1887544","0.0-44.0","SS1619739916640","similarity_question","","","","","","","","","","","","{""Q0"":4}","[0]","","images/stimuli/spore_stims/simple_11_A_b.gif","images/stimuli/spore_stims/simple_08_A_a.gif"
"[{""page_index"":0,""viewing_time"":6522.300000011455}]","6522.5800000042655","instructions","159","1894072","0.0-45.0","SS1619739916640","instructions","","","","","","","","","","","","","","","",""
"","8404.180000012275","survey-likert","160","1902480","0.0-46.0","SS1619739916640","","","","","","","","","images/stimuli/spore_stims/complex_16_A_b.gif","","","","{""Q0"":3}","[0]","","",""
"","1233.92500000773","survey-likert","161","1903720","0.0-47.0","SS1619739916640","","","","","","","","","images/stimuli/spore_stims/simple_07_A_b.gif","","","","{""Q0"":3}","[0]","","",""
"","2993.245000005234","survey-likert","162","1906720","0.0-48.0","SS1619739916640","","","","","","","","","images/stimuli/spore_stims/simple_14_A_b.gif","","","","{""Q0"":3}","[0]","","",""
"","1089.8400000005495","survey-likert","163","1907816","0.0-49.0","SS1619739916640","","","","","","","","","images/stimuli/spore_stims/simple_16_A_a.gif","","","","{""Q0"":3}","[0]","","",""
"","2209.784999998985","survey-likert","164","1910032","0.0-50.0","SS1619739916640","","","","","","","","","images/stimuli/spore_stims/complex_16_A_a.gif","","","","{""Q0"":3}","[0]","","",""
"","1377.9749999959022","survey-likert","165","1911416","0.0-51.0","SS1619739916640","","","","","","","","","images/stimuli/spore_stims/simple_19_A_a.gif","","","","{""Q0"":3}","[0]","","",""
"","1145.3000000037719","survey-likert","166","1912568","0.0-52.0","SS1619739916640","","","","","","","","","images/stimuli/spore_stims/simple_11_A_b.gif","","","","{""Q0"":3}","[0]","","",""
"","1025.9099999968894","survey-likert","167","1913600","0.0-53.0","SS1619739916640","","","","","","","","","images/stimuli/spore_stims/complex_01_A_a.gif","","","","{""Q0"":3}","[0]","","",""
"","1074.3550000044052","survey-likert","168","1914680","0.0-54.0","SS1619739916640","","","","","","","","","images/stimuli/spore_stims/complex_04_A_b.gif","","","","{""Q0"":3}","[0]","","",""
"","2089.2900000035297","survey-likert","169","1916776","0.0-55.0","SS1619739916640","","","","","","","","","images/stimuli/spore_stims/simple_20_A_a.gif","","","","{""Q0"":3}","[0]","","",""
"","1417.8849999879021","survey-likert","170","1918200","0.0-56.0","SS1619739916640","","","","","","","","","images/stimuli/spore_stims/complex_03_A_b.gif","","","","{""Q0"":3}","[0]","","",""
"","1193.360000004992","survey-likert","171","1919400","0.0-57.0","SS1619739916640","","","","","","","","","images/stimuli/spore_stims/complex_05_A_a.gif","","","","{""Q0"":3}","[0]","","",""
"[{""page_index"":0,""viewing_time"":4736.42499999539}]","4736.655000000494","instructions","172","1924144","0.0-58.0","SS1619739916640","instructions","","","","","","","","","","","","","","","",""
"","2404.2699999990873","demog-age","173","1926554","0.0-59.0","SS1619739916640","","","","","","","","","","","","","{""age"":""22""}","","","",""
"","4351.280000002589","demog-ethnic-US","174","1930912","0.0-60.0","SS1619739916640","","","","","","","","","","","","","{""ethnicity"":[""Hispanic or Latino""]}","[0]","","",""
"","6976.194999995641","demog-gender-and-education","175","1937896","0.0-61.0","SS1619739916640","","","","","","","","","","","","","{""gender"":""Male"",""education"":""Associate Degree/Technical certification""}","[0,1]","","",""
"","15992.08499999065","survey-text","176","1953896","0.0-62.0","SS1619739916640","feedback","","","","","","","","","","","","{""Q0"":""ningun problema""}","","","",""
"[{""page_index"":0,""viewing_time"":1284.6750000026077}]","1284.9150000112131","instructions","177","1955184","0.0-63.0","SS1619739916640","instructions","","","","","","","","","","","","","","","",""
