"view_history","rt","trial_type","trial_index","time_elapsed","internal_node_id","subject","stimulus_type","trial_stimulus","key_press","minimum_viewing_duration","trial_looking_time","block_deviant","block_background","exposure_type","stimulus","block_number","block_type","stimulus_displayed","responses","question_order","math_correct_answer","stimulus_left","stimulus_right"
"[{""page_index"":0,""viewing_time"":20965.165000059642}]","20966.024999972433","instructions","0","20970","0.0-0.0","SS1619739682451","","","","","","","","","","","","","","","","",""
"[{""page_index"":0,""viewing_time"":18396.52000006754},{""page_index"":1,""viewing_time"":8615.709999925457}]","27012.555000022985","instructions","1","49992","0.0-1.0","SS1619739682451","instructions","","","","","","","","","","","","","","","",""
"","12967.70000003744","sequential-stimulus-presentation-old","2","63468","0.0-2.0","SS1619739682451","","","40","500","13467.70000003744","null","null","self_paced","","","","","","","","",""
"","5701.75999996718","sequential-stimulus-presentation-old","3","69676","0.0-3.0","SS1619739682451","","","40","500","6201.75999996718","null","null","self_paced","","","","","","","","",""
"[{""page_index"":0,""viewing_time"":19498.030000017025}]","19498.34499997087","instructions","4","89176","0.0-4.0","SS1619739682451","instructions","","","","","","","","","","","","","","","",""
"","1418.5099999886006","sequential-stimulus-presentation-old","5","105599","0.0-5.0","SS1619739682451","","","40","500","1918.5099999886006","null","null","forced_long","","","","","","","","",""
"","6320.384999969974","sequential-stimulus-presentation-old","6","112435","0.0-6.0","SS1619739682451","","","40","500","6820.384999969974","null","null","forced_long","","","","","","","","",""
"[{""page_index"":0,""viewing_time"":4865.88500009384}]","4866.180000011809","instructions","7","117304","0.0-7.0","SS1619739682451","instructions","","","","","","","","","","","","","","","",""
"[{""page_index"":0,""viewing_time"":9926.070000045002},{""page_index"":1,""viewing_time"":10200.029999949038},{""page_index"":2,""viewing_time"":8952.135000028647},{""page_index"":3,""viewing_time"":2064.1250000335276},{""page_index"":4,""viewing_time"":1327.9949999414384}]","32470.5950000789","instructions","8","149776","0.0-8.0","SS1619739682451","instructions","","","","","","","","","","","","","","","",""
"","null","html-keyboard-response","9","150653","0.0-9.0-0.0","SS1619739682451","","","null","","","","","","<p><img src= images/blank.png width =""600"" height = ""600"" style=""position:fixed;top:50%; left:50%; transform: translate(-50%, -50%); border:5px solid black"">","","","","","","","",""
"","2431.6349999280646","sequential-stimulus-presentation-old","10","153601","0.0-9.0-1.0","SS1619739682451","trial","","40","500","2931.6349999280646","images/stimuli/spore_stims/simple_19_A_b.gif","images/stimuli/spore_stims/simple_16_A_a.gif","forced_short","","0","simple_dissimilar","images/stimuli/spore_stims/simple_16_A_a.gif","","","","",""
"","null","html-keyboard-response","11","154424","0.0-9.0-0.1","SS1619739682451","","","null","","","","","","<p><img src= images/blank.png width =""600"" height = ""600"" style=""position:fixed;top:50%; left:50%; transform: translate(-50%, -50%); border:5px solid black"">","","","","","","","",""
"","29657.239999971353","sequential-stimulus-presentation-old","12","184589","0.0-9.0-1.1","SS1619739682451","trial","","40","500","30157.239999971353","images/stimuli/spore_stims/simple_19_A_b.gif","images/stimuli/spore_stims/simple_16_A_a.gif","forced_short","","0","simple_dissimilar","images/stimuli/spore_stims/simple_16_A_a.gif","","","","",""
"","null","html-keyboard-response","13","185640","0.0-9.0-0.2","SS1619739682451","","","null","","","","","","<p><img src= images/blank.png width =""600"" height = ""600"" style=""position:fixed;top:50%; left:50%; transform: translate(-50%, -50%); border:5px solid black"">","","","","","","","",""
"","42998.4650000697","sequential-stimulus-presentation-old","14","229145","0.0-9.0-1.2","SS1619739682451","trial","","40","500","43498.4650000697","images/stimuli/spore_stims/simple_19_A_b.gif","images/stimuli/spore_stims/simple_16_A_a.gif","forced_short","","0","simple_dissimilar","images/stimuli/spore_stims/simple_16_A_a.gif","","","","",""
"","null","html-keyboard-response","15","230048","0.0-9.0-0.3","SS1619739682451","","","null","","","","","","<p><img src= images/blank.png width =""600"" height = ""600"" style=""position:fixed;top:50%; left:50%; transform: translate(-50%, -50%); border:5px solid black"">","","","","","","","",""
"","36475.39499995764","sequential-stimulus-presentation-old","16","267034","0.0-9.0-1.3","SS1619739682451","trial","","40","500","36975.39499995764","images/stimuli/spore_stims/simple_19_A_b.gif","images/stimuli/spore_stims/simple_16_A_a.gif","forced_short","","0","simple_dissimilar","images/stimuli/spore_stims/simple_16_A_a.gif","","","","",""
"","null","html-keyboard-response","17","268247","0.0-9.0-0.4","SS1619739682451","","","null","","","","","","<p><img src= images/blank.png width =""600"" height = ""600"" style=""position:fixed;top:50%; left:50%; transform: translate(-50%, -50%); border:5px solid black"">","","","","","","","",""
"","31919.854999985546","sequential-stimulus-presentation-old","18","300676","0.0-9.0-1.4","SS1619739682451","trial","","40","500","32419.854999985546","images/stimuli/spore_stims/simple_19_A_b.gif","images/stimuli/spore_stims/simple_16_A_a.gif","forced_short","","0","simple_dissimilar","images/stimuli/spore_stims/simple_16_A_a.gif","","","","",""
"","5733.630000031553","survey-multi-choice","19","306417","0.0-10.0","SS1619739682451","math_question","","","","","","","","","","","","{""Q0"":""8""}","[0]","8","",""
"","null","html-keyboard-response","20","307712","0.0-11.0-0.0","SS1619739682451","","","null","","","","","","<p><img src= images/blank.png width =""600"" height = ""600"" style=""position:fixed;top:50%; left:50%; transform: translate(-50%, -50%); border:5px solid black"">","","","","","","","",""
"","12219.594999914989","sequential-stimulus-presentation-old","21","320441","0.0-11.0-1.0","SS1619739682451","trial","","40","500","12719.594999914989","images/stimuli/spore_stims/complex_16_A_a.gif","images/stimuli/spore_stims/complex_01_A_b.gif","forced_short","","1","complex_dissimilar","images/stimuli/spore_stims/complex_01_A_b.gif","","","","",""
"","null","html-keyboard-response","22","321542","0.0-11.0-0.1","SS1619739682451","","","null","","","","","","<p><img src= images/blank.png width =""600"" height = ""600"" style=""position:fixed;top:50%; left:50%; transform: translate(-50%, -50%); border:5px solid black"">","","","","","","","",""
"","86759.38499998301","sequential-stimulus-presentation-old","23","408815","0.0-11.0-1.1","SS1619739682451","trial","","40","500","87259.38499998301","images/stimuli/spore_stims/complex_16_A_a.gif","images/stimuli/spore_stims/complex_01_A_b.gif","forced_short","","1","complex_dissimilar","images/stimuli/spore_stims/complex_01_A_b.gif","","","","",""
"","null","html-keyboard-response","24","409793","0.0-11.0-0.2","SS1619739682451","","","null","","","","","","<p><img src= images/blank.png width =""600"" height = ""600"" style=""position:fixed;top:50%; left:50%; transform: translate(-50%, -50%); border:5px solid black"">","","","","","","","",""
"","3413.6949999956414","sequential-stimulus-presentation-old","25","413718","0.0-11.0-1.2","SS1619739682451","trial","","40","500","3913.6949999956414","images/stimuli/spore_stims/complex_16_A_a.gif","images/stimuli/spore_stims/complex_01_A_b.gif","forced_short","","1","complex_dissimilar","images/stimuli/spore_stims/complex_01_A_b.gif","","","","",""
"","null","html-keyboard-response","26","414918","0.0-11.0-0.3","SS1619739682451","","","null","","","","","","<p><img src= images/blank.png width =""600"" height = ""600"" style=""position:fixed;top:50%; left:50%; transform: translate(-50%, -50%); border:5px solid black"">","","","","","","","",""
"","4429.025000077672","sequential-stimulus-presentation-old","27","419865","0.0-11.0-1.3","SS1619739682451","trial","","40","500","4929.025000077672","images/stimuli/spore_stims/complex_16_A_a.gif","images/stimuli/spore_stims/complex_01_A_b.gif","forced_short","","1","complex_dissimilar","images/stimuli/spore_stims/complex_01_A_b.gif","","","","",""
"","null","html-keyboard-response","28","421014","0.0-11.0-0.4","SS1619739682451","","","null","","","","","","<p><img src= images/blank.png width =""600"" height = ""600"" style=""position:fixed;top:50%; left:50%; transform: translate(-50%, -50%); border:5px solid black"">","","","","","","","",""
"","87719.31499999482","sequential-stimulus-presentation-old","29","509241","0.0-11.0-1.4","SS1619739682451","trial","","40","500","88219.31499999482","images/stimuli/spore_stims/complex_16_A_a.gif","images/stimuli/spore_stims/complex_01_A_b.gif","forced_short","","1","complex_dissimilar","images/stimuli/spore_stims/complex_16_A_a.gif","","","","",""
"","null","html-keyboard-response","30","510056","0.0-11.0-0.5","SS1619739682451","","","null","","","","","","<p><img src= images/blank.png width =""600"" height = ""600"" style=""position:fixed;top:50%; left:50%; transform: translate(-50%, -50%); border:5px solid black"">","","","","","","","",""
"","66554.6650000615","sequential-stimulus-presentation-old","31","577116","0.0-11.0-1.5","SS1619739682451","trial","","40","500","67054.6650000615","images/stimuli/spore_stims/complex_16_A_a.gif","images/stimuli/spore_stims/complex_01_A_b.gif","forced_short","","1","complex_dissimilar","images/stimuli/spore_stims/complex_01_A_b.gif","","","","",""
"","7743.460000026971","survey-multi-choice","32","584865","0.0-12.0","SS1619739682451","math_question","","","","","","","","","","","","{""Q0"":""11""}","[0]","11","",""
"","null","html-keyboard-response","33","586098","0.0-13.0-0.0","SS1619739682451","","","null","","","","","","<p><img src= images/blank.png width =""600"" height = ""600"" style=""position:fixed;top:50%; left:50%; transform: translate(-50%, -50%); border:5px solid black"">","","","","","","","",""
"","111628.41999996454","sequential-stimulus-presentation-old","34","698243","0.0-13.0-1.0","SS1619739682451","trial","","40","500","112128.41999996454","images/stimuli/spore_stims/simple_13_A_a.gif","images/stimuli/spore_stims/simple_16_A_b.gif","self_paced","","2","simple_dissimilar","images/stimuli/spore_stims/simple_16_A_b.gif","","","","",""
"","null","html-keyboard-response","35","699498","0.0-13.0-0.1","SS1619739682451","","","null","","","","","","<p><img src= images/blank.png width =""600"" height = ""600"" style=""position:fixed;top:50%; left:50%; transform: translate(-50%, -50%); border:5px solid black"">","","","","","","","",""
"","50305.34500000067","sequential-stimulus-presentation-old","36","750315","0.0-13.0-1.1","SS1619739682451","trial","","40","500","50805.34500000067","images/stimuli/spore_stims/simple_13_A_a.gif","images/stimuli/spore_stims/simple_16_A_b.gif","self_paced","","2","simple_dissimilar","images/stimuli/spore_stims/simple_16_A_b.gif","","","","",""
"","null","html-keyboard-response","37","751381","0.0-13.0-0.2","SS1619739682451","","","null","","","","","","<p><img src= images/blank.png width =""600"" height = ""600"" style=""position:fixed;top:50%; left:50%; transform: translate(-50%, -50%); border:5px solid black"">","","","","","","","",""
"","231.74999991897494","sequential-stimulus-presentation-old","38","752131","0.0-13.0-1.2","SS1619739682451","trial","","40","500","731.7499999189749","images/stimuli/spore_stims/simple_13_A_a.gif","images/stimuli/spore_stims/simple_16_A_b.gif","self_paced","","2","simple_dissimilar","images/stimuli/spore_stims/simple_16_A_b.gif","","","","",""
"","null","html-keyboard-response","39","753180","0.0-13.0-0.3","SS1619739682451","","","null","","","","","","<p><img src= images/blank.png width =""600"" height = ""600"" style=""position:fixed;top:50%; left:50%; transform: translate(-50%, -50%); border:5px solid black"">","","","","","","","",""
"","14479.425000026822","sequential-stimulus-presentation-old","40","768170","0.0-13.0-1.3","SS1619739682451","trial","","40","500","14979.425000026822","images/stimuli/spore_stims/simple_13_A_a.gif","images/stimuli/spore_stims/simple_16_A_b.gif","self_paced","","2","simple_dissimilar","images/stimuli/spore_stims/simple_13_A_a.gif","","","","",""
"","null","html-keyboard-response","41","769417","0.0-13.0-0.4","SS1619739682451","","","null","","","","","","<p><img src= images/blank.png width =""600"" height = ""600"" style=""position:fixed;top:50%; left:50%; transform: translate(-50%, -50%); border:5px solid black"">","","","","","","","",""
"","56081.700000097044","sequential-stimulus-presentation-old","42","826017","0.0-13.0-1.4","SS1619739682451","trial","","40","500","56581.700000097044","images/stimuli/spore_stims/simple_13_A_a.gif","images/stimuli/spore_stims/simple_16_A_b.gif","self_paced","","2","simple_dissimilar","images/stimuli/spore_stims/simple_16_A_b.gif","","","","",""
"","null","html-keyboard-response","43","826879","0.0-13.0-0.5","SS1619739682451","","","null","","","","","","<p><img src= images/blank.png width =""600"" height = ""600"" style=""position:fixed;top:50%; left:50%; transform: translate(-50%, -50%); border:5px solid black"">","","","","","","","",""
"","40068.16999998409","sequential-stimulus-presentation-old","44","867464","0.0-13.0-1.5","SS1619739682451","trial","","40","500","40568.16999998409","images/stimuli/spore_stims/simple_13_A_a.gif","images/stimuli/spore_stims/simple_16_A_b.gif","self_paced","","2","simple_dissimilar","images/stimuli/spore_stims/simple_13_A_a.gif","","","","",""
"","3755.0999999511987","survey-multi-choice","45","871224","0.0-14.0","SS1619739682451","math_question","","","","","","","","","","","","{""Q0"":""5""}","[0]","5","",""
"","null","html-keyboard-response","46","872372","0.0-15.0-0.0","SS1619739682451","","","null","","","","","","<p><img src= images/blank.png width =""600"" height = ""600"" style=""position:fixed;top:50%; left:50%; transform: translate(-50%, -50%); border:5px solid black"">","","","","","","","",""
"","22194.815000053495","sequential-stimulus-presentation-old","47","909579","0.0-15.0-1.0","SS1619739682451","trial","","40","500","22694.815000053495","images/stimuli/spore_stims/simple_14_A_b.gif","images/stimuli/spore_stims/simple_02_A_a.gif","forced_long","","3","simple_dissimilar","images/stimuli/spore_stims/simple_02_A_a.gif","","","","",""
"","null","html-keyboard-response","48","910554","0.0-15.0-0.1","SS1619739682451","","","null","","","","","","<p><img src= images/blank.png width =""600"" height = ""600"" style=""position:fixed;top:50%; left:50%; transform: translate(-50%, -50%); border:5px solid black"">","","","","","","","",""
"","54324.090000009164","sequential-stimulus-presentation-old","49","965391","0.0-15.0-1.1","SS1619739682451","trial","","40","500","54824.090000009164","images/stimuli/spore_stims/simple_14_A_b.gif","images/stimuli/spore_stims/simple_02_A_a.gif","forced_long","","3","simple_dissimilar","images/stimuli/spore_stims/simple_02_A_a.gif","","","","",""
"","null","html-keyboard-response","50","966533","0.0-15.0-0.2","SS1619739682451","","","null","","","","","","<p><img src= images/blank.png width =""600"" height = ""600"" style=""position:fixed;top:50%; left:50%; transform: translate(-50%, -50%); border:5px solid black"">","","","","","","","",""
"","40363.10499999672","sequential-stimulus-presentation-old","51","1007403","0.0-15.0-1.2","SS1619739682451","trial","","40","500","40863.10499999672","images/stimuli/spore_stims/simple_14_A_b.gif","images/stimuli/spore_stims/simple_02_A_a.gif","forced_long","","3","simple_dissimilar","images/stimuli/spore_stims/simple_02_A_a.gif","","","","",""
"","null","html-keyboard-response","52","1008628","0.0-15.0-0.3","SS1619739682451","","","null","","","","","","<p><img src= images/blank.png width =""600"" height = ""600"" style=""position:fixed;top:50%; left:50%; transform: translate(-50%, -50%); border:5px solid black"">","","","","","","","",""
"","6443.310000002384","sequential-stimulus-presentation-old","53","1015581","0.0-15.0-1.3","SS1619739682451","trial","","40","500","6943.310000002384","images/stimuli/spore_stims/simple_14_A_b.gif","images/stimuli/spore_stims/simple_02_A_a.gif","forced_long","","3","simple_dissimilar","images/stimuli/spore_stims/simple_14_A_b.gif","","","","",""
"","null","html-keyboard-response","54","1016760","0.0-15.0-0.4","SS1619739682451","","","null","","","","","","<p><img src= images/blank.png width =""600"" height = ""600"" style=""position:fixed;top:50%; left:50%; transform: translate(-50%, -50%); border:5px solid black"">","","","","","","","",""
"","2659.1150000458583","sequential-stimulus-presentation-old","55","1019942","0.0-15.0-1.4","SS1619739682451","trial","","40","500","3159.1150000458583","images/stimuli/spore_stims/simple_14_A_b.gif","images/stimuli/spore_stims/simple_02_A_a.gif","forced_long","","3","simple_dissimilar","images/stimuli/spore_stims/simple_02_A_a.gif","","","","",""
"","7189.505000016652","survey-multi-choice","56","1027136","0.0-16.0","SS1619739682451","math_question","","","","","","","","","","","","{""Q0"":""13""}","[0]","13","",""
"","null","html-keyboard-response","57","1028311","0.0-17.0-0.0","SS1619739682451","","","null","","","","","","<p><img src= images/blank.png width =""600"" height = ""600"" style=""position:fixed;top:50%; left:50%; transform: translate(-50%, -50%); border:5px solid black"">","","","","","","","",""
"","2536.949999979697","sequential-stimulus-presentation-old","58","1045858","0.0-17.0-1.0","SS1619739682451","trial","","40","500","3036.949999979697","images/stimuli/spore_stims/complex_03_A_a.gif","images/stimuli/spore_stims/complex_20_A_b.gif","forced_long","","4","complex_dissimilar","images/stimuli/spore_stims/complex_20_A_b.gif","","","","",""
"","null","html-keyboard-response","59","1047002","0.0-17.0-0.1","SS1619739682451","","","null","","","","","","<p><img src= images/blank.png width =""600"" height = ""600"" style=""position:fixed;top:50%; left:50%; transform: translate(-50%, -50%); border:5px solid black"">","","","","","","","",""
"","51640.495000057854","sequential-stimulus-presentation-old","60","1099159","0.0-17.0-1.1","SS1619739682451","trial","","40","500","52140.495000057854","images/stimuli/spore_stims/complex_03_A_a.gif","images/stimuli/spore_stims/complex_20_A_b.gif","forced_long","","4","complex_dissimilar","images/stimuli/spore_stims/complex_20_A_b.gif","","","","",""
"","null","html-keyboard-response","61","1100228","0.0-17.0-0.2","SS1619739682451","","","null","","","","","","<p><img src= images/blank.png width =""600"" height = ""600"" style=""position:fixed;top:50%; left:50%; transform: translate(-50%, -50%); border:5px solid black"">","","","","","","","",""
"","24490.709999925457","sequential-stimulus-presentation-old","62","1125240","0.0-17.0-1.2","SS1619739682451","trial","","40","500","24990.709999925457","images/stimuli/spore_stims/complex_03_A_a.gif","images/stimuli/spore_stims/complex_20_A_b.gif","forced_long","","4","complex_dissimilar","images/stimuli/spore_stims/complex_03_A_a.gif","","","","",""
"","null","html-keyboard-response","63","1126543","0.0-17.0-0.3","SS1619739682451","","","null","","","","","","<p><img src= images/blank.png width =""600"" height = ""600"" style=""position:fixed;top:50%; left:50%; transform: translate(-50%, -50%); border:5px solid black"">","","","","","","","",""
"","6841.894999961369","sequential-stimulus-presentation-old","64","1133892","0.0-17.0-1.3","SS1619739682451","trial","","40","500","7341.894999961369","images/stimuli/spore_stims/complex_03_A_a.gif","images/stimuli/spore_stims/complex_20_A_b.gif","forced_long","","4","complex_dissimilar","images/stimuli/spore_stims/complex_20_A_b.gif","","","","",""
"","null","html-keyboard-response","65","1134795","0.0-17.0-0.4","SS1619739682451","","","null","","","","","","<p><img src= images/blank.png width =""600"" height = ""600"" style=""position:fixed;top:50%; left:50%; transform: translate(-50%, -50%); border:5px solid black"">","","","","","","","",""
"","49135.1999999024","sequential-stimulus-presentation-old","66","1184439","0.0-17.0-1.4","SS1619739682451","trial","","40","500","49635.1999999024","images/stimuli/spore_stims/complex_03_A_a.gif","images/stimuli/spore_stims/complex_20_A_b.gif","forced_long","","4","complex_dissimilar","images/stimuli/spore_stims/complex_03_A_a.gif","","","","",""
"","20411.72499989625","survey-multi-choice","67","1204856","0.0-18.0","SS1619739682451","math_question","","","","","","","","","","","","{""Q0"":""13""}","[0]","13","",""
"","null","html-keyboard-response","68","1206151","0.0-19.0-0.0","SS1619739682451","","","null","","","","","","<p><img src= images/blank.png width =""600"" height = ""600"" style=""position:fixed;top:50%; left:50%; transform: translate(-50%, -50%); border:5px solid black"">","","","","","","","",""
"","2795.324999955483","sequential-stimulus-presentation-old","69","1209457","0.0-19.0-1.0","SS1619739682451","trial","","40","500","3295.324999955483","images/stimuli/spore_stims/complex_08_A_a.gif","images/stimuli/spore_stims/complex_11_A_b.gif","self_paced","","5","complex_dissimilar","images/stimuli/spore_stims/complex_11_A_b.gif","","","","",""
"","null","html-keyboard-response","70","1210382","0.0-19.0-0.1","SS1619739682451","","","null","","","","","","<p><img src= images/blank.png width =""600"" height = ""600"" style=""position:fixed;top:50%; left:50%; transform: translate(-50%, -50%); border:5px solid black"">","","","","","","","",""
"","1701.039999956265","sequential-stimulus-presentation-old","71","1212597","0.0-19.0-1.1","SS1619739682451","trial","","40","500","2201.039999956265","images/stimuli/spore_stims/complex_08_A_a.gif","images/stimuli/spore_stims/complex_11_A_b.gif","self_paced","","5","complex_dissimilar","images/stimuli/spore_stims/complex_11_A_b.gif","","","","",""
"","null","html-keyboard-response","72","1213553","0.0-19.0-0.2","SS1619739682451","","","null","","","","","","<p><img src= images/blank.png width =""600"" height = ""600"" style=""position:fixed;top:50%; left:50%; transform: translate(-50%, -50%); border:5px solid black"">","","","","","","","",""
"","15412.859999923967","sequential-stimulus-presentation-old","73","1229476","0.0-19.0-1.2","SS1619739682451","trial","","40","500","15912.859999923967","images/stimuli/spore_stims/complex_08_A_a.gif","images/stimuli/spore_stims/complex_11_A_b.gif","self_paced","","5","complex_dissimilar","images/stimuli/spore_stims/complex_11_A_b.gif","","","","",""
"","null","html-keyboard-response","74","1230719","0.0-19.0-0.3","SS1619739682451","","","null","","","","","","<p><img src= images/blank.png width =""600"" height = ""600"" style=""position:fixed;top:50%; left:50%; transform: translate(-50%, -50%); border:5px solid black"">","","","","","","","",""
"","41493.275000015274","sequential-stimulus-presentation-old","75","1272725","0.0-19.0-1.3","SS1619739682451","trial","","40","500","41993.275000015274","images/stimuli/spore_stims/complex_08_A_a.gif","images/stimuli/spore_stims/complex_11_A_b.gif","self_paced","","5","complex_dissimilar","images/stimuli/spore_stims/complex_11_A_b.gif","","","","",""
"","3716.355000040494","survey-multi-choice","76","1276447","0.0-20.0","SS1619739682451","math_question","","","","","","","","","","","","{""Q0"":""8""}","[0]","8","",""
"","null","html-keyboard-response","77","1277375","0.0-21.0-0.0","SS1619739682451","","","null","","","","","","<p><img src= images/blank.png width =""600"" height = ""600"" style=""position:fixed;top:50%; left:50%; transform: translate(-50%, -50%); border:5px solid black"">","","","","","","","",""
"","2789.229999994859","sequential-stimulus-presentation-old","78","1295180","0.0-21.0-1.0","SS1619739682451","trial","","40","500","3289.229999994859","images/stimuli/spore_stims/complex_15_A_a.gif","images/stimuli/spore_stims/complex_13_A_b.gif","forced_long","","6","complex_dissimilar","images/stimuli/spore_stims/complex_13_A_b.gif","","","","",""
"","null","html-keyboard-response","79","1296355","0.0-21.0-0.1","SS1619739682451","","","null","","","","","","<p><img src= images/blank.png width =""600"" height = ""600"" style=""position:fixed;top:50%; left:50%; transform: translate(-50%, -50%); border:5px solid black"">","","","","","","","",""
"","25452.63499999419","sequential-stimulus-presentation-old","80","1322314","0.0-21.0-1.1","SS1619739682451","trial","","40","500","25952.63499999419","images/stimuli/spore_stims/complex_15_A_a.gif","images/stimuli/spore_stims/complex_13_A_b.gif","forced_long","","6","complex_dissimilar","images/stimuli/spore_stims/complex_13_A_b.gif","","","","",""
"","null","html-keyboard-response","81","1323603","0.0-21.0-0.2","SS1619739682451","","","null","","","","","","<p><img src= images/blank.png width =""600"" height = ""600"" style=""position:fixed;top:50%; left:50%; transform: translate(-50%, -50%); border:5px solid black"">","","","","","","","",""
"","6648.820000002161","sequential-stimulus-presentation-old","82","1330760","0.0-21.0-1.2","SS1619739682451","trial","","40","500","7148.820000002161","images/stimuli/spore_stims/complex_15_A_a.gif","images/stimuli/spore_stims/complex_13_A_b.gif","forced_long","","6","complex_dissimilar","images/stimuli/spore_stims/complex_15_A_a.gif","","","","",""
"","null","html-keyboard-response","83","1331674","0.0-21.0-0.3","SS1619739682451","","","null","","","","","","<p><img src= images/blank.png width =""600"" height = ""600"" style=""position:fixed;top:50%; left:50%; transform: translate(-50%, -50%); border:5px solid black"">","","","","","","","",""
"","3483.769999933429","sequential-stimulus-presentation-old","84","1335675","0.0-21.0-1.3","SS1619739682451","trial","","40","500","3983.769999933429","images/stimuli/spore_stims/complex_15_A_a.gif","images/stimuli/spore_stims/complex_13_A_b.gif","forced_long","","6","complex_dissimilar","images/stimuli/spore_stims/complex_13_A_b.gif","","","","",""
"","null","html-keyboard-response","85","1336972","0.0-21.0-0.4","SS1619739682451","","","null","","","","","","<p><img src= images/blank.png width =""600"" height = ""600"" style=""position:fixed;top:50%; left:50%; transform: translate(-50%, -50%); border:5px solid black"">","","","","","","","",""
"","17269.259999971837","sequential-stimulus-presentation-old","86","1354749","0.0-21.0-1.4","SS1619739682451","trial","","40","500","17769.259999971837","images/stimuli/spore_stims/complex_15_A_a.gif","images/stimuli/spore_stims/complex_13_A_b.gif","forced_long","","6","complex_dissimilar","images/stimuli/spore_stims/complex_13_A_b.gif","","","","",""
"","null","html-keyboard-response","87","1355728","0.0-21.0-0.5","SS1619739682451","","","null","","","","","","<p><img src= images/blank.png width =""600"" height = ""600"" style=""position:fixed;top:50%; left:50%; transform: translate(-50%, -50%); border:5px solid black"">","","","","","","","",""
"","38875.029999995604","sequential-stimulus-presentation-old","88","1395116","0.0-21.0-1.5","SS1619739682451","trial","","40","500","39375.029999995604","images/stimuli/spore_stims/complex_15_A_a.gif","images/stimuli/spore_stims/complex_13_A_b.gif","forced_long","","6","complex_dissimilar","images/stimuli/spore_stims/complex_15_A_a.gif","","","","",""
"","6402.340000029653","survey-multi-choice","89","1401523","0.0-22.0","SS1619739682451","math_question","","","","","","","","","","","","{""Q0"":""11""}","[0]","11","",""
"","null","html-keyboard-response","90","1402833","0.0-23.0-0.0","SS1619739682451","","","null","","","","","","<p><img src= images/blank.png width =""600"" height = ""600"" style=""position:fixed;top:50%; left:50%; transform: translate(-50%, -50%); border:5px solid black"">","","","","","","","",""
"","1939.1400000313297","sequential-stimulus-presentation-old","91","1419782","0.0-23.0-1.0","SS1619739682451","trial","","40","500","2439.1400000313297","images/stimuli/spore_stims/simple_09_A_b.gif","images/stimuli/spore_stims/simple_17_A_a.gif","forced_long","","7","simple_dissimilar","images/stimuli/spore_stims/simple_17_A_a.gif","","","","",""
"","null","html-keyboard-response","92","1420974","0.0-23.0-0.1","SS1619739682451","","","null","","","","","","<p><img src= images/blank.png width =""600"" height = ""600"" style=""position:fixed;top:50%; left:50%; transform: translate(-50%, -50%); border:5px solid black"">","","","","","","","",""
"","24841.49499994237","sequential-stimulus-presentation-old","93","1446328","0.0-23.0-1.1","SS1619739682451","trial","","40","500","25341.49499994237","images/stimuli/spore_stims/simple_09_A_b.gif","images/stimuli/spore_stims/simple_17_A_a.gif","forced_long","","7","simple_dissimilar","images/stimuli/spore_stims/simple_17_A_a.gif","","","","",""
"","null","html-keyboard-response","94","1447562","0.0-23.0-0.2","SS1619739682451","","","null","","","","","","<p><img src= images/blank.png width =""600"" height = ""600"" style=""position:fixed;top:50%; left:50%; transform: translate(-50%, -50%); border:5px solid black"">","","","","","","","",""
"","44527.95999997761","sequential-stimulus-presentation-old","95","1492600","0.0-23.0-1.2","SS1619739682451","trial","","40","500","45027.95999997761","images/stimuli/spore_stims/simple_09_A_b.gif","images/stimuli/spore_stims/simple_17_A_a.gif","forced_long","","7","simple_dissimilar","images/stimuli/spore_stims/simple_17_A_a.gif","","","","",""
"","null","html-keyboard-response","96","1493626","0.0-23.0-0.3","SS1619739682451","","","null","","","","","","<p><img src= images/blank.png width =""600"" height = ""600"" style=""position:fixed;top:50%; left:50%; transform: translate(-50%, -50%); border:5px solid black"">","","","","","","","",""
"","28877.334999968298","sequential-stimulus-presentation-old","97","1523015","0.0-23.0-1.3","SS1619739682451","trial","","40","500","29377.334999968298","images/stimuli/spore_stims/simple_09_A_b.gif","images/stimuli/spore_stims/simple_17_A_a.gif","forced_long","","7","simple_dissimilar","images/stimuli/spore_stims/simple_17_A_a.gif","","","","",""
"","null","html-keyboard-response","98","1524204","0.0-23.0-0.4","SS1619739682451","","","null","","","","","","<p><img src= images/blank.png width =""600"" height = ""600"" style=""position:fixed;top:50%; left:50%; transform: translate(-50%, -50%); border:5px solid black"">","","","","","","","",""
"","21778.595000039786","sequential-stimulus-presentation-old","99","1546499","0.0-23.0-1.4","SS1619739682451","trial","","40","500","22278.595000039786","images/stimuli/spore_stims/simple_09_A_b.gif","images/stimuli/spore_stims/simple_17_A_a.gif","forced_long","","7","simple_dissimilar","images/stimuli/spore_stims/simple_09_A_b.gif","","","","",""
"","null","html-keyboard-response","100","1547506","0.0-23.0-0.5","SS1619739682451","","","null","","","","","","<p><img src= images/blank.png width =""600"" height = ""600"" style=""position:fixed;top:50%; left:50%; transform: translate(-50%, -50%); border:5px solid black"">","","","","","","","",""
"","18354.954999987967","sequential-stimulus-presentation-old","101","1566369","0.0-23.0-1.5","SS1619739682451","trial","","40","500","18854.954999987967","images/stimuli/spore_stims/simple_09_A_b.gif","images/stimuli/spore_stims/simple_17_A_a.gif","forced_long","","7","simple_dissimilar","images/stimuli/spore_stims/simple_17_A_a.gif","","","","",""
"","4040.1600000914186","survey-multi-choice","102","1570414","0.0-24.0","SS1619739682451","math_question","","","","","","","","","","","","{""Q0"":""13""}","[0]","13","",""
"","null","html-keyboard-response","103","1571308","0.0-25.0-0.0","SS1619739682451","","","null","","","","","","<p><img src= images/blank.png width =""600"" height = ""600"" style=""position:fixed;top:50%; left:50%; transform: translate(-50%, -50%); border:5px solid black"">","","","","","","","",""
"","5673.150000046007","sequential-stimulus-presentation-old","104","1577492","0.0-25.0-1.0","SS1619739682451","trial","","40","500","6173.150000046007","images/stimuli/spore_stims/simple_01_A_a.gif","images/stimuli/spore_stims/simple_04_A_b.gif","self_paced","","8","simple_dissimilar","images/stimuli/spore_stims/simple_04_A_b.gif","","","","",""
"","null","html-keyboard-response","105","1578638","0.0-25.0-0.1","SS1619739682451","","","null","","","","","","<p><img src= images/blank.png width =""600"" height = ""600"" style=""position:fixed;top:50%; left:50%; transform: translate(-50%, -50%); border:5px solid black"">","","","","","","","",""
"","1150.4249999998137","sequential-stimulus-presentation-old","106","1580303","0.0-25.0-1.1","SS1619739682451","trial","","40","500","1650.4249999998137","images/stimuli/spore_stims/simple_01_A_a.gif","images/stimuli/spore_stims/simple_04_A_b.gif","self_paced","","8","simple_dissimilar","images/stimuli/spore_stims/simple_04_A_b.gif","","","","",""
"","null","html-keyboard-response","107","1581577","0.0-25.0-0.2","SS1619739682451","","","null","","","","","","<p><img src= images/blank.png width =""600"" height = ""600"" style=""position:fixed;top:50%; left:50%; transform: translate(-50%, -50%); border:5px solid black"">","","","","","","","",""
"","5372.550000087358","sequential-stimulus-presentation-old","108","1587457","0.0-25.0-1.2","SS1619739682451","trial","","40","500","5872.550000087358","images/stimuli/spore_stims/simple_01_A_a.gif","images/stimuli/spore_stims/simple_04_A_b.gif","self_paced","","8","simple_dissimilar","images/stimuli/spore_stims/simple_04_A_b.gif","","","","",""
"","null","html-keyboard-response","109","1588325","0.0-25.0-0.3","SS1619739682451","","","null","","","","","","<p><img src= images/blank.png width =""600"" height = ""600"" style=""position:fixed;top:50%; left:50%; transform: translate(-50%, -50%); border:5px solid black"">","","","","","","","",""
"","647.6300000213087","sequential-stimulus-presentation-old","110","1589495","0.0-25.0-1.3","SS1619739682451","trial","","40","500","1147.6300000213087","images/stimuli/spore_stims/simple_01_A_a.gif","images/stimuli/spore_stims/simple_04_A_b.gif","self_paced","","8","simple_dissimilar","images/stimuli/spore_stims/simple_04_A_b.gif","","","","",""
"","null","html-keyboard-response","111","1590669","0.0-25.0-0.4","SS1619739682451","","","null","","","","","","<p><img src= images/blank.png width =""600"" height = ""600"" style=""position:fixed;top:50%; left:50%; transform: translate(-50%, -50%); border:5px solid black"">","","","","","","","",""
"","8478.159999940544","sequential-stimulus-presentation-old","112","1599657","0.0-25.0-1.4","SS1619739682451","trial","","40","500","8978.159999940544","images/stimuli/spore_stims/simple_01_A_a.gif","images/stimuli/spore_stims/simple_04_A_b.gif","self_paced","","8","simple_dissimilar","images/stimuli/spore_stims/simple_04_A_b.gif","","","","",""
"","null","html-keyboard-response","113","1600471","0.0-25.0-0.5","SS1619739682451","","","null","","","","","","<p><img src= images/blank.png width =""600"" height = ""600"" style=""position:fixed;top:50%; left:50%; transform: translate(-50%, -50%); border:5px solid black"">","","","","","","","",""
"","695.7799999509007","sequential-stimulus-presentation-old","114","1601683","0.0-25.0-1.5","SS1619739682451","trial","","40","500","1195.7799999509007","images/stimuli/spore_stims/simple_01_A_a.gif","images/stimuli/spore_stims/simple_04_A_b.gif","self_paced","","8","simple_dissimilar","images/stimuli/spore_stims/simple_04_A_b.gif","","","","",""
"","3292.669999995269","survey-multi-choice","115","1604983","0.0-26.0","SS1619739682451","math_question","","","","","","","","","","","","{""Q0"":""18""}","[0]","18","",""
"","null","html-keyboard-response","116","1606102","0.0-27.0-0.0","SS1619739682451","","","null","","","","","","<p><img src= images/blank.png width =""600"" height = ""600"" style=""position:fixed;top:50%; left:50%; transform: translate(-50%, -50%); border:5px solid black"">","","","","","","","",""
"","1689.3599999602884","sequential-stimulus-presentation-old","117","1608304","0.0-27.0-1.0","SS1619739682451","trial","","40","500","2189.3599999602884","images/stimuli/spore_stims/complex_03_A_b.gif","images/stimuli/spore_stims/complex_04_A_a.gif","forced_short","","9","complex_dissimilar","images/stimuli/spore_stims/complex_04_A_a.gif","","","","",""
"","null","html-keyboard-response","118","1609163","0.0-27.0-0.1","SS1619739682451","","","null","","","","","","<p><img src= images/blank.png width =""600"" height = ""600"" style=""position:fixed;top:50%; left:50%; transform: translate(-50%, -50%); border:5px solid black"">","","","","","","","",""
"","4724.859999958426","sequential-stimulus-presentation-old","119","1614400","0.0-27.0-1.1","SS1619739682451","trial","","40","500","5224.859999958426","images/stimuli/spore_stims/complex_03_A_b.gif","images/stimuli/spore_stims/complex_04_A_a.gif","forced_short","","9","complex_dissimilar","images/stimuli/spore_stims/complex_04_A_a.gif","","","","",""
"","null","html-keyboard-response","120","1615551","0.0-27.0-0.2","SS1619739682451","","","null","","","","","","<p><img src= images/blank.png width =""600"" height = ""600"" style=""position:fixed;top:50%; left:50%; transform: translate(-50%, -50%); border:5px solid black"">","","","","","","","",""
"","4943.884999956936","sequential-stimulus-presentation-old","121","1621011","0.0-27.0-1.2","SS1619739682451","trial","","40","500","5443.884999956936","images/stimuli/spore_stims/complex_03_A_b.gif","images/stimuli/spore_stims/complex_04_A_a.gif","forced_short","","9","complex_dissimilar","images/stimuli/spore_stims/complex_04_A_a.gif","","","","",""
"","null","html-keyboard-response","122","1622182","0.0-27.0-0.3","SS1619739682451","","","null","","","","","","<p><img src= images/blank.png width =""600"" height = ""600"" style=""position:fixed;top:50%; left:50%; transform: translate(-50%, -50%); border:5px solid black"">","","","","","","","",""
"","5194.625000003725","sequential-stimulus-presentation-old","123","1627886","0.0-27.0-1.3","SS1619739682451","trial","","40","500","5694.625000003725","images/stimuli/spore_stims/complex_03_A_b.gif","images/stimuli/spore_stims/complex_04_A_a.gif","forced_short","","9","complex_dissimilar","images/stimuli/spore_stims/complex_04_A_a.gif","","","","",""
"","null","html-keyboard-response","124","1628958","0.0-27.0-0.4","SS1619739682451","","","null","","","","","","<p><img src= images/blank.png width =""600"" height = ""600"" style=""position:fixed;top:50%; left:50%; transform: translate(-50%, -50%); border:5px solid black"">","","","","","","","",""
"","1532.4799999361858","sequential-stimulus-presentation-old","125","1631008","0.0-27.0-1.4","SS1619739682451","trial","","40","500","2032.4799999361858","images/stimuli/spore_stims/complex_03_A_b.gif","images/stimuli/spore_stims/complex_04_A_a.gif","forced_short","","9","complex_dissimilar","images/stimuli/spore_stims/complex_04_A_a.gif","","","","",""
"","null","html-keyboard-response","126","1631967","0.0-27.0-0.5","SS1619739682451","","","null","","","","","","<p><img src= images/blank.png width =""600"" height = ""600"" style=""position:fixed;top:50%; left:50%; transform: translate(-50%, -50%); border:5px solid black"">","","","","","","","",""
"","574.8650000896305","sequential-stimulus-presentation-old","127","1633052","0.0-27.0-1.5","SS1619739682451","trial","","40","500","1074.8650000896305","images/stimuli/spore_stims/complex_03_A_b.gif","images/stimuli/spore_stims/complex_04_A_a.gif","forced_short","","9","complex_dissimilar","images/stimuli/spore_stims/complex_04_A_a.gif","","","","",""
"","3326.2500000419095","survey-multi-choice","128","1636382","0.0-28.0","SS1619739682451","math_question","","","","","","","","","","","","{""Q0"":""2""}","[0]","2","",""
"","null","html-keyboard-response","129","1637274","0.0-29.0-0.0","SS1619739682451","","","null","","","","","","<p><img src= images/blank.png width =""600"" height = ""600"" style=""position:fixed;top:50%; left:50%; transform: translate(-50%, -50%); border:5px solid black"">","","","","","","","",""
"","1066.5400000289083","sequential-stimulus-presentation-old","130","1638850","0.0-29.0-1.0","SS1619739682451","trial","","40","500","1566.5400000289083","images/stimuli/spore_stims/simple_14_A_a.gif","images/stimuli/spore_stims/simple_05_A_b.gif","forced_short","","10","simple_dissimilar","images/stimuli/spore_stims/simple_05_A_b.gif","","","","",""
"","null","html-keyboard-response","131","1640131","0.0-29.0-0.1","SS1619739682451","","","null","","","","","","<p><img src= images/blank.png width =""600"" height = ""600"" style=""position:fixed;top:50%; left:50%; transform: translate(-50%, -50%); border:5px solid black"">","","","","","","","",""
"","4072.5850000744686","sequential-stimulus-presentation-old","132","1644718","0.0-29.0-1.1","SS1619739682451","trial","","40","500","4572.585000074469","images/stimuli/spore_stims/simple_14_A_a.gif","images/stimuli/spore_stims/simple_05_A_b.gif","forced_short","","10","simple_dissimilar","images/stimuli/spore_stims/simple_05_A_b.gif","","","","",""
"","null","html-keyboard-response","133","1645808","0.0-29.0-0.2","SS1619739682451","","","null","","","","","","<p><img src= images/blank.png width =""600"" height = ""600"" style=""position:fixed;top:50%; left:50%; transform: translate(-50%, -50%); border:5px solid black"">","","","","","","","",""
"","16367.635000031441","sequential-stimulus-presentation-old","134","1662692","0.0-29.0-1.2","SS1619739682451","trial","","40","500","16867.63500003144","images/stimuli/spore_stims/simple_14_A_a.gif","images/stimuli/spore_stims/simple_05_A_b.gif","forced_short","","10","simple_dissimilar","images/stimuli/spore_stims/simple_05_A_b.gif","","","","",""
"","null","html-keyboard-response","135","1663990","0.0-29.0-0.3","SS1619739682451","","","null","","","","","","<p><img src= images/blank.png width =""600"" height = ""600"" style=""position:fixed;top:50%; left:50%; transform: translate(-50%, -50%); border:5px solid black"">","","","","","","","",""
"","2043.8999999314547","sequential-stimulus-presentation-old","136","1666550","0.0-29.0-1.3","SS1619739682451","trial","","40","500","2543.8999999314547","images/stimuli/spore_stims/simple_14_A_a.gif","images/stimuli/spore_stims/simple_05_A_b.gif","forced_short","","10","simple_dissimilar","images/stimuli/spore_stims/simple_05_A_b.gif","","","","",""
"","3225.6400000769645","survey-multi-choice","137","1669783","0.0-30.0","SS1619739682451","math_question","","","","","","","","","","","","{""Q0"":""8""}","[0]","8","",""
"","null","html-keyboard-response","138","1670777","0.0-31.0-0.0","SS1619739682451","","","null","","","","","","<p><img src= images/blank.png width =""600"" height = ""600"" style=""position:fixed;top:50%; left:50%; transform: translate(-50%, -50%); border:5px solid black"">","","","","","","","",""
"","3213.8450000202283","sequential-stimulus-presentation-old","139","1674510","0.0-31.0-1.0","SS1619739682451","trial","","40","500","3713.8450000202283","images/stimuli/spore_stims/complex_17_A_a.gif","images/stimuli/spore_stims/complex_09_A_b.gif","self_paced","","11","complex_dissimilar","images/stimuli/spore_stims/complex_09_A_b.gif","","","","",""
"","null","html-keyboard-response","140","1675757","0.0-31.0-0.1","SS1619739682451","","","null","","","","","","<p><img src= images/blank.png width =""600"" height = ""600"" style=""position:fixed;top:50%; left:50%; transform: translate(-50%, -50%); border:5px solid black"">","","","","","","","",""
"","3787.919999915175","sequential-stimulus-presentation-old","141","1680061","0.0-31.0-1.1","SS1619739682451","trial","","40","500","4287.919999915175","images/stimuli/spore_stims/complex_17_A_a.gif","images/stimuli/spore_stims/complex_09_A_b.gif","self_paced","","11","complex_dissimilar","images/stimuli/spore_stims/complex_09_A_b.gif","","","","",""
"","null","html-keyboard-response","142","1680926","0.0-31.0-0.2","SS1619739682451","","","null","","","","","","<p><img src= images/blank.png width =""600"" height = ""600"" style=""position:fixed;top:50%; left:50%; transform: translate(-50%, -50%); border:5px solid black"">","","","","","","","",""
"","1176.7300000647083","sequential-stimulus-presentation-old","143","1682619","0.0-31.0-1.2","SS1619739682451","trial","","40","500","1676.7300000647083","images/stimuli/spore_stims/complex_17_A_a.gif","images/stimuli/spore_stims/complex_09_A_b.gif","self_paced","","11","complex_dissimilar","images/stimuli/spore_stims/complex_09_A_b.gif","","","","",""
"","null","html-keyboard-response","144","1683915","0.0-31.0-0.3","SS1619739682451","","","null","","","","","","<p><img src= images/blank.png width =""600"" height = ""600"" style=""position:fixed;top:50%; left:50%; transform: translate(-50%, -50%); border:5px solid black"">","","","","","","","",""
"","3302.860000054352","sequential-stimulus-presentation-old","145","1687739","0.0-31.0-1.3","SS1619739682451","trial","","40","500","3802.860000054352","images/stimuli/spore_stims/complex_17_A_a.gif","images/stimuli/spore_stims/complex_09_A_b.gif","self_paced","","11","complex_dissimilar","images/stimuli/spore_stims/complex_09_A_b.gif","","","","",""
"","null","html-keyboard-response","146","1688690","0.0-31.0-0.4","SS1619739682451","","","null","","","","","","<p><img src= images/blank.png width =""600"" height = ""600"" style=""position:fixed;top:50%; left:50%; transform: translate(-50%, -50%); border:5px solid black"">","","","","","","","",""
"","18462.855000048876","sequential-stimulus-presentation-old","147","1707670","0.0-31.0-1.4","SS1619739682451","trial","","40","500","18962.855000048876","images/stimuli/spore_stims/complex_17_A_a.gif","images/stimuli/spore_stims/complex_09_A_b.gif","self_paced","","11","complex_dissimilar","images/stimuli/spore_stims/complex_17_A_a.gif","","","","",""
"[{""page_index"":0,""viewing_time"":7890.585000044666}]","7890.969999949448","instructions","148","1715566","0.0-32.0","SS1619739682451","instructions","","","","","","","","","","","","","","","",""
"","13603.66999998223","survey-likert","149","1729174","0.0-33.0","SS1619739682451","similarity_question","","","","","","","","","","","","{""Q0"":0}","[0]","","images/stimuli/spore_stims/complex_04_A_a.gif","images/stimuli/spore_stims/complex_03_A_b.gif"
"","5059.200000017881","survey-likert","150","1734238","0.0-34.0","SS1619739682451","similarity_question","","","","","","","","","","","","{""Q0"":5}","[0]","","images/stimuli/spore_stims/simple_13_A_a.gif","images/stimuli/spore_stims/simple_16_A_b.gif"
"","6956.145000061952","survey-likert","151","1741199","0.0-35.0","SS1619739682451","similarity_question","","","","","","","","","","","","{""Q0"":1}","[0]","","images/stimuli/spore_stims/simple_09_A_b.gif","images/stimuli/spore_stims/simple_17_A_a.gif"
"","5354.679999989457","survey-likert","152","1746558","0.0-36.0","SS1619739682451","similarity_question","","","","","","","","","","","","{""Q0"":5}","[0]","","images/stimuli/spore_stims/simple_14_A_b.gif","images/stimuli/spore_stims/simple_02_A_a.gif"
"","15571.299999952316","survey-likert","153","1762135","0.0-37.0","SS1619739682451","similarity_question","","","","","","","","","","","","{""Q0"":4}","[0]","","images/stimuli/spore_stims/simple_19_A_b.gif","images/stimuli/spore_stims/simple_16_A_a.gif"
"","8483.534999890253","survey-likert","154","1770623","0.0-38.0","SS1619739682451","similarity_question","","","","","","","","","","","","{""Q0"":0}","[0]","","images/stimuli/spore_stims/complex_11_A_b.gif","images/stimuli/spore_stims/complex_08_A_a.gif"
"","4971.354999928735","survey-likert","155","1775599","0.0-39.0","SS1619739682451","similarity_question","","","","","","","","","","","","{""Q0"":1}","[0]","","images/stimuli/spore_stims/simple_01_A_a.gif","images/stimuli/spore_stims/simple_04_A_b.gif"
"","12675.569999963045","survey-likert","156","1788279","0.0-40.0","SS1619739682451","similarity_question","","","","","","","","","","","","{""Q0"":1}","[0]","","images/stimuli/spore_stims/complex_17_A_a.gif","images/stimuli/spore_stims/complex_09_A_b.gif"
"","4963.709999923594","survey-likert","157","1793247","0.0-41.0","SS1619739682451","similarity_question","","","","","","","","","","","","{""Q0"":0}","[0]","","images/stimuli/spore_stims/complex_13_A_b.gif","images/stimuli/spore_stims/complex_15_A_a.gif"
"","3835.5650000739843","survey-likert","158","1797087","0.0-42.0","SS1619739682451","similarity_question","","","","","","","","","","","","{""Q0"":0}","[0]","","images/stimuli/spore_stims/simple_14_A_a.gif","images/stimuli/spore_stims/simple_05_A_b.gif"
"","5978.565000114031","survey-likert","159","1803071","0.0-43.0","SS1619739682451","similarity_question","","","","","","","","","","","","{""Q0"":0}","[0]","","images/stimuli/spore_stims/complex_03_A_a.gif","images/stimuli/spore_stims/complex_20_A_b.gif"
"","6305.699999909848","survey-likert","160","1809382","0.0-44.0","SS1619739682451","similarity_question","","","","","","","","","","","","{""Q0"":0}","[0]","","images/stimuli/spore_stims/complex_01_A_b.gif","images/stimuli/spore_stims/complex_16_A_a.gif"
"[{""page_index"":0,""viewing_time"":6444.094999926165}]","6444.509999942966","instructions","161","1815830","0.0-45.0","SS1619739682451","instructions","","","","","","","","","","","","","","","",""
"","10643.869999912567","survey-likert","162","1826478","0.0-46.0","SS1619739682451","","","","","","","","","images/stimuli/spore_stims/complex_03_A_b.gif","","","","{""Q0"":6}","[0]","","",""
"","5923.584999982268","survey-likert","163","1832406","0.0-47.0","SS1619739682451","","","","","","","","","images/stimuli/spore_stims/simple_16_A_b.gif","","","","{""Q0"":1}","[0]","","",""
"","2522.999999928288","survey-likert","164","1834934","0.0-48.0","SS1619739682451","","","","","","","","","images/stimuli/spore_stims/simple_04_A_b.gif","","","","{""Q0"":1}","[0]","","",""
"","6402.824999997392","survey-likert","165","1841342","0.0-49.0","SS1619739682451","","","","","","","","","images/stimuli/spore_stims/complex_17_A_a.gif","","","","{""Q0"":6}","[0]","","",""
"","4707.629999960773","survey-likert","166","1846055","0.0-50.0","SS1619739682451","","","","","","","","","images/stimuli/spore_stims/complex_08_A_a.gif","","","","{""Q0"":6}","[0]","","",""
"","3058.90000006184","survey-likert","167","1849118","0.0-51.0","SS1619739682451","","","","","","","","","images/stimuli/spore_stims/complex_03_A_a.gif","","","","{""Q0"":6}","[0]","","",""
"","3555.350000038743","survey-likert","168","1852678","0.0-52.0","SS1619739682451","","","","","","","","","images/stimuli/spore_stims/simple_14_A_a.gif","","","","{""Q0"":2}","[0]","","",""
"","3939.7099999478087","survey-likert","169","1856622","0.0-53.0","SS1619739682451","","","","","","","","","images/stimuli/spore_stims/complex_01_A_b.gif","","","","{""Q0"":6}","[0]","","",""
"","2539.325000019744","survey-likert","170","1859166","0.0-54.0","SS1619739682451","","","","","","","","","images/stimuli/spore_stims/complex_15_A_a.gif","","","","{""Q0"":6}","[0]","","",""
"","5251.539999968372","survey-likert","171","1864422","0.0-55.0","SS1619739682451","","","","","","","","","images/stimuli/spore_stims/simple_09_A_b.gif","","","","{""Q0"":1}","[0]","","",""
"","22163.309999974445","survey-likert","172","1886591","0.0-56.0","SS1619739682451","","","","","","","","","images/stimuli/spore_stims/simple_19_A_b.gif","","","","{""Q0"":2}","[0]","","",""
"","4059.540000045672","survey-likert","173","1890655","0.0-57.0","SS1619739682451","","","","","","","","","images/stimuli/spore_stims/simple_02_A_a.gif","","","","{""Q0"":0}","[0]","","",""
"[{""page_index"":0,""viewing_time"":2458.934999885969}]","2459.2999999877065","instructions","174","1893119","0.0-58.0","SS1619739682451","instructions","","","","","","","","","","","","","","","",""
"","2649.6749999932945","demog-age","175","1895775","0.0-59.0","SS1619739682451","","","","","","","","","","","","","{""age"":""22""}","","","",""
"","11354.270000010729","demog-ethnic-US","176","1907136","0.0-60.0","SS1619739682451","","","","","","","","","","","","","{""ethnicity"":[""Hispanic or Latino""]}","[0]","","",""
"","39569.79999993928","demog-gender-and-education","177","1946712","0.0-61.0","SS1619739682451","","","","","","","","","","","","","{""gender"":""Female"",""education"":""Bachelor's Degree""}","[0,1]","","",""
"","49616.84499995317","survey-text","178","1996335","0.0-62.0","SS1619739682451","feedback","","","","","","","","","","","","{""Q0"":""everything went right, didnt quiet get the relationship the study has with babies, but it was kinda interesting to answer""}","","","",""
"[{""page_index"":0,""viewing_time"":2779.945000074804}]","2780.3250000579283","instructions","179","1999119","0.0-63.0","SS1619739682451","instructions","","","","","","","","","","","","","","","",""
"[{""page_index"":0,""viewing_time"":10785.03999998793}]","10785.195000004023","instructions","180","2009908","0.0-64.0","SS1619739682451","","","","","","","","","","","","","","","","",""
