"view_history","rt","trial_type","trial_index","time_elapsed","internal_node_id","subject","stimulus_type","trial_stimulus","key_press","minimum_viewing_duration","trial_looking_time","block_deviant","block_background","exposure_type","stimulus","block_number","block_type","stimulus_displayed","responses","question_order","math_correct_answer","stimulus_left","stimulus_right"
"[{""page_index"":0,""viewing_time"":299477.4000000907}]","299478.27000007965","instructions","0","299480","0.0-0.0","SS1619739580862","","","","","","","","","","","","","","","","",""
"[{""page_index"":0,""viewing_time"":26221.97499999311},{""page_index"":1,""viewing_time"":22965.549999964423}]","49187.9150000168","instructions","1","350671","0.0-1.0","SS1619739580862","instructions","","","","","","","","","","","","","","","",""
"","13147.319999989122","sequential-stimulus-presentation-old","2","364322","0.0-2.0","SS1619739580862","","","40","500","13647.319999989122","null","null","self_paced","","","","","","","","",""
"","7112.53000004217","sequential-stimulus-presentation-old","3","371937","0.0-3.0","SS1619739580862","","","40","500","7612.53000004217","null","null","self_paced","","","","","","","","",""
"[{""page_index"":0,""viewing_time"":57732.249999884516}]","57732.71999997087","instructions","4","429671","0.0-4.0","SS1619739580862","instructions","","","","","","","","","","","","","","","",""
"","1117.5100000109524","sequential-stimulus-presentation-old","5","445792","0.0-5.0","SS1619739580862","","","40","500","1617.5100000109524","null","null","forced_long","","","","","","","","",""
"","6750.6250001024455","sequential-stimulus-presentation-old","6","453046","0.0-6.0","SS1619739580862","","","40","500","7250.6250001024455","null","null","forced_long","","","","","","","","",""
"[{""page_index"":0,""viewing_time"":5767.229999997653}]","5767.619999940507","instructions","7","458814","0.0-7.0","SS1619739580862","instructions","","","","","","","","","","","","","","","",""
"[{""page_index"":0,""viewing_time"":164827.90000003297},{""page_index"":1,""viewing_time"":19422.335000010207},{""page_index"":2,""viewing_time"":10765.769999939948},{""page_index"":3,""viewing_time"":2396.5050000697374},{""page_index"":4,""viewing_time"":2247.9449999518692}]","199660.82500002813","instructions","8","658477","0.0-8.0","SS1619739580862","instructions","","","","","","","","","","","","","","","",""
"","null","html-keyboard-response","9","659489","0.0-9.0-0.0","SS1619739580862","","","null","","","","","","<p><img src= images/blank.png width =""600"" height = ""600"" style=""position:fixed;top:50%; left:50%; transform: translate(-50%, -50%); border:5px solid black"">","","","","","","","",""
"","4336.24500001315","sequential-stimulus-presentation-old","10","664330","0.0-9.0-1.0","SS1619739580862","trial","","40","500","4836.24500001315","images/stimuli/spore_stims/simple_17_A_b.gif","images/stimuli/spore_stims/simple_09_A_a.gif","forced_short","","0","simple_dissimilar","images/stimuli/spore_stims/simple_09_A_a.gif","","","","",""
"","null","html-keyboard-response","11","665194","0.0-9.0-0.1","SS1619739580862","","","null","","","","","","<p><img src= images/blank.png width =""600"" height = ""600"" style=""position:fixed;top:50%; left:50%; transform: translate(-50%, -50%); border:5px solid black"">","","","","","","","",""
"","95411.43500001635","sequential-stimulus-presentation-old","12","761110","0.0-9.0-1.1","SS1619739580862","trial","","40","500","95911.43500001635","images/stimuli/spore_stims/simple_17_A_b.gif","images/stimuli/spore_stims/simple_09_A_a.gif","forced_short","","0","simple_dissimilar","images/stimuli/spore_stims/simple_09_A_a.gif","","","","",""
"","null","html-keyboard-response","13","762086","0.0-9.0-0.2","SS1619739580862","","","null","","","","","","<p><img src= images/blank.png width =""600"" height = ""600"" style=""position:fixed;top:50%; left:50%; transform: translate(-50%, -50%); border:5px solid black"">","","","","","","","",""
"","11427.819999982603","sequential-stimulus-presentation-old","14","774018","0.0-9.0-1.2","SS1619739580862","trial","","40","500","11927.819999982603","images/stimuli/spore_stims/simple_17_A_b.gif","images/stimuli/spore_stims/simple_09_A_a.gif","forced_short","","0","simple_dissimilar","images/stimuli/spore_stims/simple_09_A_a.gif","","","","",""
"","null","html-keyboard-response","15","775098","0.0-9.0-0.3","SS1619739580862","","","null","","","","","","<p><img src= images/blank.png width =""600"" height = ""600"" style=""position:fixed;top:50%; left:50%; transform: translate(-50%, -50%); border:5px solid black"">","","","","","","","",""
"","22922.154999920167","sequential-stimulus-presentation-old","16","798523","0.0-9.0-1.3","SS1619739580862","trial","","40","500","23422.154999920167","images/stimuli/spore_stims/simple_17_A_b.gif","images/stimuli/spore_stims/simple_09_A_a.gif","forced_short","","0","simple_dissimilar","images/stimuli/spore_stims/simple_17_A_b.gif","","","","",""
"","null","html-keyboard-response","17","799705","0.0-9.0-0.4","SS1619739580862","","","null","","","","","","<p><img src= images/blank.png width =""600"" height = ""600"" style=""position:fixed;top:50%; left:50%; transform: translate(-50%, -50%); border:5px solid black"">","","","","","","","",""
"","6266.499999910593","sequential-stimulus-presentation-old","18","806474","0.0-9.0-1.4","SS1619739580862","trial","","40","500","6766.499999910593","images/stimuli/spore_stims/simple_17_A_b.gif","images/stimuli/spore_stims/simple_09_A_a.gif","forced_short","","0","simple_dissimilar","images/stimuli/spore_stims/simple_09_A_a.gif","","","","",""
"","null","html-keyboard-response","19","807353","0.0-9.0-0.5","SS1619739580862","","","null","","","","","","<p><img src= images/blank.png width =""600"" height = ""600"" style=""position:fixed;top:50%; left:50%; transform: translate(-50%, -50%); border:5px solid black"">","","","","","","","",""
"","960.3950000600889","sequential-stimulus-presentation-old","20","808816","0.0-9.0-1.5","SS1619739580862","trial","","40","500","1460.395000060089","images/stimuli/spore_stims/simple_17_A_b.gif","images/stimuli/spore_stims/simple_09_A_a.gif","forced_short","","0","simple_dissimilar","images/stimuli/spore_stims/simple_09_A_a.gif","","","","",""
"","16132.510000024922","survey-multi-choice","21","824951","0.0-10.0","SS1619739580862","math_question","","","","","","","","","","","","{""Q0"":""8""}","[0]","8","",""
"","null","html-keyboard-response","22","826041","0.0-11.0-0.0","SS1619739580862","","","null","","","","","","<p><img src= images/blank.png width =""600"" height = ""600"" style=""position:fixed;top:50%; left:50%; transform: translate(-50%, -50%); border:5px solid black"">","","","","","","","",""
"","2830.2050000056624","sequential-stimulus-presentation-old","23","843875","0.0-11.0-1.0","SS1619739580862","trial","","40","500","3330.2050000056624","images/stimuli/spore_stims/simple_05_A_b.gif","images/stimuli/spore_stims/simple_16_A_a.gif","forced_long","","1","simple_dissimilar","images/stimuli/spore_stims/simple_16_A_a.gif","","","","",""
"","null","html-keyboard-response","24","845050","0.0-11.0-0.1","SS1619739580862","","","null","","","","","","<p><img src= images/blank.png width =""600"" height = ""600"" style=""position:fixed;top:50%; left:50%; transform: translate(-50%, -50%); border:5px solid black"">","","","","","","","",""
"","15378.175000078045","sequential-stimulus-presentation-old","25","860931","0.0-11.0-1.1","SS1619739580862","trial","","40","500","15878.175000078045","images/stimuli/spore_stims/simple_05_A_b.gif","images/stimuli/spore_stims/simple_16_A_a.gif","forced_long","","1","simple_dissimilar","images/stimuli/spore_stims/simple_16_A_a.gif","","","","",""
"","null","html-keyboard-response","26","861802","0.0-11.0-0.2","SS1619739580862","","","null","","","","","","<p><img src= images/blank.png width =""600"" height = ""600"" style=""position:fixed;top:50%; left:50%; transform: translate(-50%, -50%); border:5px solid black"">","","","","","","","",""
"","3841.880000079982","sequential-stimulus-presentation-old","27","866148","0.0-11.0-1.2","SS1619739580862","trial","","40","500","4341.880000079982","images/stimuli/spore_stims/simple_05_A_b.gif","images/stimuli/spore_stims/simple_16_A_a.gif","forced_long","","1","simple_dissimilar","images/stimuli/spore_stims/simple_16_A_a.gif","","","","",""
"","null","html-keyboard-response","28","867336","0.0-11.0-0.3","SS1619739580862","","","null","","","","","","<p><img src= images/blank.png width =""600"" height = ""600"" style=""position:fixed;top:50%; left:50%; transform: translate(-50%, -50%); border:5px solid black"">","","","","","","","",""
"","739.8650000104681","sequential-stimulus-presentation-old","29","868580","0.0-11.0-1.3","SS1619739580862","trial","","40","500","1239.865000010468","images/stimuli/spore_stims/simple_05_A_b.gif","images/stimuli/spore_stims/simple_16_A_a.gif","forced_long","","1","simple_dissimilar","images/stimuli/spore_stims/simple_16_A_a.gif","","","","",""
"","null","html-keyboard-response","30","869583","0.0-11.0-0.4","SS1619739580862","","","null","","","","","","<p><img src= images/blank.png width =""600"" height = ""600"" style=""position:fixed;top:50%; left:50%; transform: translate(-50%, -50%); border:5px solid black"">","","","","","","","",""
"","718.8300000270829","sequential-stimulus-presentation-old","31","870806","0.0-11.0-1.4","SS1619739580862","trial","","40","500","1218.8300000270829","images/stimuli/spore_stims/simple_05_A_b.gif","images/stimuli/spore_stims/simple_16_A_a.gif","forced_long","","1","simple_dissimilar","images/stimuli/spore_stims/simple_16_A_a.gif","","","","",""
"","null","html-keyboard-response","32","872016","0.0-11.0-0.5","SS1619739580862","","","null","","","","","","<p><img src= images/blank.png width =""600"" height = ""600"" style=""position:fixed;top:50%; left:50%; transform: translate(-50%, -50%); border:5px solid black"">","","","","","","","",""
"","756.1649999115616","sequential-stimulus-presentation-old","33","873276","0.0-11.0-1.5","SS1619739580862","trial","","40","500","1256.1649999115616","images/stimuli/spore_stims/simple_05_A_b.gif","images/stimuli/spore_stims/simple_16_A_a.gif","forced_long","","1","simple_dissimilar","images/stimuli/spore_stims/simple_16_A_a.gif","","","","",""
"","7328.94999999553","survey-multi-choice","34","880607","0.0-12.0","SS1619739580862","math_question","","","","","","","","","","","","{""Q0"":""9""}","[0]","9","",""
"","null","html-keyboard-response","35","881866","0.0-13.0-0.0","SS1619739580862","","","null","","","","","","<p><img src= images/blank.png width =""600"" height = ""600"" style=""position:fixed;top:50%; left:50%; transform: translate(-50%, -50%); border:5px solid black"">","","","","","","","",""
"","10520.000000018626","sequential-stimulus-presentation-old","36","892890","0.0-13.0-1.0","SS1619739580862","trial","","40","500","11020.000000018626","images/stimuli/spore_stims/complex_03_A_b.gif","images/stimuli/spore_stims/complex_04_A_a.gif","self_paced","","2","complex_dissimilar","images/stimuli/spore_stims/complex_04_A_a.gif","","","","",""
"","null","html-keyboard-response","37","894183","0.0-13.0-0.1","SS1619739580862","","","null","","","","","","<p><img src= images/blank.png width =""600"" height = ""600"" style=""position:fixed;top:50%; left:50%; transform: translate(-50%, -50%); border:5px solid black"">","","","","","","","",""
"","5831.200000015087","sequential-stimulus-presentation-old","38","900518","0.0-13.0-1.1","SS1619739580862","trial","","40","500","6331.200000015087","images/stimuli/spore_stims/complex_03_A_b.gif","images/stimuli/spore_stims/complex_04_A_a.gif","self_paced","","2","complex_dissimilar","images/stimuli/spore_stims/complex_03_A_b.gif","","","","",""
"","null","html-keyboard-response","39","901386","0.0-13.0-0.2","SS1619739580862","","","null","","","","","","<p><img src= images/blank.png width =""600"" height = ""600"" style=""position:fixed;top:50%; left:50%; transform: translate(-50%, -50%); border:5px solid black"">","","","","","","","",""
"","6952.920000068843","sequential-stimulus-presentation-old","40","908843","0.0-13.0-1.2","SS1619739580862","trial","","40","500","7452.920000068843","images/stimuli/spore_stims/complex_03_A_b.gif","images/stimuli/spore_stims/complex_04_A_a.gif","self_paced","","2","complex_dissimilar","images/stimuli/spore_stims/complex_04_A_a.gif","","","","",""
"","null","html-keyboard-response","41","910066","0.0-13.0-0.3","SS1619739580862","","","null","","","","","","<p><img src= images/blank.png width =""600"" height = ""600"" style=""position:fixed;top:50%; left:50%; transform: translate(-50%, -50%); border:5px solid black"">","","","","","","","",""
"","2189.4149999134243","sequential-stimulus-presentation-old","42","912760","0.0-13.0-1.3","SS1619739580862","trial","","40","500","2689.4149999134243","images/stimuli/spore_stims/complex_03_A_b.gif","images/stimuli/spore_stims/complex_04_A_a.gif","self_paced","","2","complex_dissimilar","images/stimuli/spore_stims/complex_04_A_a.gif","","","","",""
"","null","html-keyboard-response","43","913898","0.0-13.0-0.4","SS1619739580862","","","null","","","","","","<p><img src= images/blank.png width =""600"" height = ""600"" style=""position:fixed;top:50%; left:50%; transform: translate(-50%, -50%); border:5px solid black"">","","","","","","","",""
"","2260.9299999894574","sequential-stimulus-presentation-old","44","916663","0.0-13.0-1.4","SS1619739580862","trial","","40","500","2760.9299999894574","images/stimuli/spore_stims/complex_03_A_b.gif","images/stimuli/spore_stims/complex_04_A_a.gif","self_paced","","2","complex_dissimilar","images/stimuli/spore_stims/complex_04_A_a.gif","","","","",""
"","null","html-keyboard-response","45","917663","0.0-13.0-0.5","SS1619739580862","","","null","","","","","","<p><img src= images/blank.png width =""600"" height = ""600"" style=""position:fixed;top:50%; left:50%; transform: translate(-50%, -50%); border:5px solid black"">","","","","","","","",""
"","2147.3299999488518","sequential-stimulus-presentation-old","46","920314","0.0-13.0-1.5","SS1619739580862","trial","","40","500","2647.3299999488518","images/stimuli/spore_stims/complex_03_A_b.gif","images/stimuli/spore_stims/complex_04_A_a.gif","self_paced","","2","complex_dissimilar","images/stimuli/spore_stims/complex_03_A_b.gif","","","","",""
"","6294.080000021495","survey-multi-choice","47","926611","0.0-14.0","SS1619739580862","math_question","","","","","","","","","","","","{""Q0"":""7""}","[0]","7","",""
"","null","html-keyboard-response","48","927420","0.0-15.0-0.0","SS1619739580862","","","null","","","","","","<p><img src= images/blank.png width =""600"" height = ""600"" style=""position:fixed;top:50%; left:50%; transform: translate(-50%, -50%); border:5px solid black"">","","","","","","","",""
"","4678.919999976642","sequential-stimulus-presentation-old","49","932604","0.0-15.0-1.0","SS1619739580862","trial","","40","500","5178.919999976642","images/stimuli/spore_stims/simple_08_A_b.gif","images/stimuli/spore_stims/simple_02_A_a.gif","self_paced","","3","simple_dissimilar","images/stimuli/spore_stims/simple_02_A_a.gif","","","","",""
"","null","html-keyboard-response","50","933488","0.0-15.0-0.1","SS1619739580862","","","null","","","","","","<p><img src= images/blank.png width =""600"" height = ""600"" style=""position:fixed;top:50%; left:50%; transform: translate(-50%, -50%); border:5px solid black"">","","","","","","","",""
"","2459.4099998939782","sequential-stimulus-presentation-old","51","936452","0.0-15.0-1.1","SS1619739580862","trial","","40","500","2959.4099998939782","images/stimuli/spore_stims/simple_08_A_b.gif","images/stimuli/spore_stims/simple_02_A_a.gif","self_paced","","3","simple_dissimilar","images/stimuli/spore_stims/simple_02_A_a.gif","","","","",""
"","null","html-keyboard-response","52","937634","0.0-15.0-0.2","SS1619739580862","","","null","","","","","","<p><img src= images/blank.png width =""600"" height = ""600"" style=""position:fixed;top:50%; left:50%; transform: translate(-50%, -50%); border:5px solid black"">","","","","","","","",""
"","2666.4350000210106","sequential-stimulus-presentation-old","53","940805","0.0-15.0-1.2","SS1619739580862","trial","","40","500","3166.4350000210106","images/stimuli/spore_stims/simple_08_A_b.gif","images/stimuli/spore_stims/simple_02_A_a.gif","self_paced","","3","simple_dissimilar","images/stimuli/spore_stims/simple_08_A_b.gif","","","","",""
"","null","html-keyboard-response","54","941828","0.0-15.0-0.3","SS1619739580862","","","null","","","","","","<p><img src= images/blank.png width =""600"" height = ""600"" style=""position:fixed;top:50%; left:50%; transform: translate(-50%, -50%); border:5px solid black"">","","","","","","","",""
"","1585.315000033006","sequential-stimulus-presentation-old","55","943918","0.0-15.0-1.3","SS1619739580862","trial","","40","500","2085.315000033006","images/stimuli/spore_stims/simple_08_A_b.gif","images/stimuli/spore_stims/simple_02_A_a.gif","self_paced","","3","simple_dissimilar","images/stimuli/spore_stims/simple_02_A_a.gif","","","","",""
"","null","html-keyboard-response","56","944766","0.0-15.0-0.4","SS1619739580862","","","null","","","","","","<p><img src= images/blank.png width =""600"" height = ""600"" style=""position:fixed;top:50%; left:50%; transform: translate(-50%, -50%); border:5px solid black"">","","","","","","","",""
"","2666.250000009313","sequential-stimulus-presentation-old","57","947936","0.0-15.0-1.4","SS1619739580862","trial","","40","500","3166.250000009313","images/stimuli/spore_stims/simple_08_A_b.gif","images/stimuli/spore_stims/simple_02_A_a.gif","self_paced","","3","simple_dissimilar","images/stimuli/spore_stims/simple_02_A_a.gif","","","","",""
"","4423.704999964684","survey-multi-choice","58","952363","0.0-16.0","SS1619739580862","math_question","","","","","","","","","","","","{""Q0"":""12""}","[0]","12","",""
"","null","html-keyboard-response","59","953567","0.0-17.0-0.0","SS1619739580862","","","null","","","","","","<p><img src= images/blank.png width =""600"" height = ""600"" style=""position:fixed;top:50%; left:50%; transform: translate(-50%, -50%); border:5px solid black"">","","","","","","","",""
"","1457.8650000039488","sequential-stimulus-presentation-old","60","955530","0.0-17.0-1.0","SS1619739580862","trial","","40","500","1957.8650000039488","images/stimuli/spore_stims/complex_14_A_b.gif","images/stimuli/spore_stims/complex_12_A_a.gif","forced_short","","4","complex_dissimilar","images/stimuli/spore_stims/complex_12_A_a.gif","","","","",""
"","null","html-keyboard-response","61","956530","0.0-17.0-0.1","SS1619739580862","","","null","","","","","","<p><img src= images/blank.png width =""600"" height = ""600"" style=""position:fixed;top:50%; left:50%; transform: translate(-50%, -50%); border:5px solid black"">","","","","","","","",""
"","2645.985000068322","sequential-stimulus-presentation-old","62","959681","0.0-17.0-1.1","SS1619739580862","trial","","40","500","3145.985000068322","images/stimuli/spore_stims/complex_14_A_b.gif","images/stimuli/spore_stims/complex_12_A_a.gif","forced_short","","4","complex_dissimilar","images/stimuli/spore_stims/complex_14_A_b.gif","","","","",""
"","null","html-keyboard-response","63","960569","0.0-17.0-0.2","SS1619739580862","","","null","","","","","","<p><img src= images/blank.png width =""600"" height = ""600"" style=""position:fixed;top:50%; left:50%; transform: translate(-50%, -50%); border:5px solid black"">","","","","","","","",""
"","3806.1199999647215","sequential-stimulus-presentation-old","64","964880","0.0-17.0-1.2","SS1619739580862","trial","","40","500","4306.1199999647215","images/stimuli/spore_stims/complex_14_A_b.gif","images/stimuli/spore_stims/complex_12_A_a.gif","forced_short","","4","complex_dissimilar","images/stimuli/spore_stims/complex_12_A_a.gif","","","","",""
"","null","html-keyboard-response","65","966074","0.0-17.0-0.3","SS1619739580862","","","null","","","","","","<p><img src= images/blank.png width =""600"" height = ""600"" style=""position:fixed;top:50%; left:50%; transform: translate(-50%, -50%); border:5px solid black"">","","","","","","","",""
"","377.9799999902025","sequential-stimulus-presentation-old","66","966957","0.0-17.0-1.3","SS1619739580862","trial","","40","500","877.9799999902025","images/stimuli/spore_stims/complex_14_A_b.gif","images/stimuli/spore_stims/complex_12_A_a.gif","forced_short","","4","complex_dissimilar","images/stimuli/spore_stims/complex_12_A_a.gif","","","","",""
"","4216.335000004619","survey-multi-choice","67","971176","0.0-18.0","SS1619739580862","math_question","","","","","","","","","","","","{""Q0"":""12""}","[0]","12","",""
"","null","html-keyboard-response","68","972012","0.0-19.0-0.0","SS1619739580862","","","null","","","","","","<p><img src= images/blank.png width =""600"" height = ""600"" style=""position:fixed;top:50%; left:50%; transform: translate(-50%, -50%); border:5px solid black"">","","","","","","","",""
"","2375.3799999831244","sequential-stimulus-presentation-old","69","974892","0.0-19.0-1.0","SS1619739580862","trial","","40","500","2875.3799999831244","images/stimuli/spore_stims/simple_01_A_a.gif","images/stimuli/spore_stims/simple_09_A_b.gif","self_paced","","5","simple_dissimilar","images/stimuli/spore_stims/simple_09_A_b.gif","","","","",""
"","null","html-keyboard-response","70","976173","0.0-19.0-0.1","SS1619739580862","","","null","","","","","","<p><img src= images/blank.png width =""600"" height = ""600"" style=""position:fixed;top:50%; left:50%; transform: translate(-50%, -50%); border:5px solid black"">","","","","","","","",""
"","1361.8100000312552","sequential-stimulus-presentation-old","71","978040","0.0-19.0-1.1","SS1619739580862","trial","","40","500","1861.8100000312552","images/stimuli/spore_stims/simple_01_A_a.gif","images/stimuli/spore_stims/simple_09_A_b.gif","self_paced","","5","simple_dissimilar","images/stimuli/spore_stims/simple_09_A_b.gif","","","","",""
"","null","html-keyboard-response","72","979141","0.0-19.0-0.2","SS1619739580862","","","null","","","","","","<p><img src= images/blank.png width =""600"" height = ""600"" style=""position:fixed;top:50%; left:50%; transform: translate(-50%, -50%); border:5px solid black"">","","","","","","","",""
"","458.9750000741333","sequential-stimulus-presentation-old","73","980105","0.0-19.0-1.2","SS1619739580862","trial","","40","500","958.9750000741333","images/stimuli/spore_stims/simple_01_A_a.gif","images/stimuli/spore_stims/simple_09_A_b.gif","self_paced","","5","simple_dissimilar","images/stimuli/spore_stims/simple_09_A_b.gif","","","","",""
"","null","html-keyboard-response","74","981192","0.0-19.0-0.3","SS1619739580862","","","null","","","","","","<p><img src= images/blank.png width =""600"" height = ""600"" style=""position:fixed;top:50%; left:50%; transform: translate(-50%, -50%); border:5px solid black"">","","","","","","","",""
"","182.91499989572912","sequential-stimulus-presentation-old","75","981880","0.0-19.0-1.3","SS1619739580862","trial","","40","500","682.9149998957291","images/stimuli/spore_stims/simple_01_A_a.gif","images/stimuli/spore_stims/simple_09_A_b.gif","self_paced","","5","simple_dissimilar","images/stimuli/spore_stims/simple_09_A_b.gif","","","","",""
"","null","html-keyboard-response","76","983031","0.0-19.0-0.4","SS1619739580862","","","null","","","","","","<p><img src= images/blank.png width =""600"" height = ""600"" style=""position:fixed;top:50%; left:50%; transform: translate(-50%, -50%); border:5px solid black"">","","","","","","","",""
"","652.2600000025705","sequential-stimulus-presentation-old","77","984189","0.0-19.0-1.4","SS1619739580862","trial","","40","500","1152.2600000025705","images/stimuli/spore_stims/simple_01_A_a.gif","images/stimuli/spore_stims/simple_09_A_b.gif","self_paced","","5","simple_dissimilar","images/stimuli/spore_stims/simple_09_A_b.gif","","","","",""
"","null","html-keyboard-response","78","985367","0.0-19.0-0.5","SS1619739580862","","","null","","","","","","<p><img src= images/blank.png width =""600"" height = ""600"" style=""position:fixed;top:50%; left:50%; transform: translate(-50%, -50%); border:5px solid black"">","","","","","","","",""
"","444.4249999942258","sequential-stimulus-presentation-old","79","986317","0.0-19.0-1.5","SS1619739580862","trial","","40","500","944.4249999942258","images/stimuli/spore_stims/simple_01_A_a.gif","images/stimuli/spore_stims/simple_09_A_b.gif","self_paced","","5","simple_dissimilar","images/stimuli/spore_stims/simple_09_A_b.gif","","","","",""
"","4263.549999915995","survey-multi-choice","80","990584","0.0-20.0","SS1619739580862","math_question","","","","","","","","","","","","{""Q0"":""10""}","[0]","10","",""
"","null","html-keyboard-response","81","991465","0.0-21.0-0.0","SS1619739580862","","","null","","","","","","<p><img src= images/blank.png width =""600"" height = ""600"" style=""position:fixed;top:50%; left:50%; transform: translate(-50%, -50%); border:5px solid black"">","","","","","","","",""
"","924.5499999960884","sequential-stimulus-presentation-old","82","1007395","0.0-21.0-1.0","SS1619739580862","trial","","40","500","1424.5499999960884","images/stimuli/spore_stims/complex_20_A_b.gif","images/stimuli/spore_stims/complex_02_A_a.gif","forced_long","","6","complex_dissimilar","images/stimuli/spore_stims/complex_02_A_a.gif","","","","",""
"","null","html-keyboard-response","83","1008431","0.0-21.0-0.1","SS1619739580862","","","null","","","","","","<p><img src= images/blank.png width =""600"" height = ""600"" style=""position:fixed;top:50%; left:50%; transform: translate(-50%, -50%); border:5px solid black"">","","","","","","","",""
"","4178.029999951832","sequential-stimulus-presentation-old","84","1013115","0.0-21.0-1.1","SS1619739580862","trial","","40","500","4678.029999951832","images/stimuli/spore_stims/complex_20_A_b.gif","images/stimuli/spore_stims/complex_02_A_a.gif","forced_long","","6","complex_dissimilar","images/stimuli/spore_stims/complex_20_A_b.gif","","","","",""
"","null","html-keyboard-response","85","1014378","0.0-21.0-0.2","SS1619739580862","","","null","","","","","","<p><img src= images/blank.png width =""600"" height = ""600"" style=""position:fixed;top:50%; left:50%; transform: translate(-50%, -50%); border:5px solid black"">","","","","","","","",""
"","1978.8199999602512","sequential-stimulus-presentation-old","86","1016862","0.0-21.0-1.2","SS1619739580862","trial","","40","500","2478.819999960251","images/stimuli/spore_stims/complex_20_A_b.gif","images/stimuli/spore_stims/complex_02_A_a.gif","forced_long","","6","complex_dissimilar","images/stimuli/spore_stims/complex_02_A_a.gif","","","","",""
"","null","html-keyboard-response","87","1017790","0.0-21.0-0.3","SS1619739580862","","","null","","","","","","<p><img src= images/blank.png width =""600"" height = ""600"" style=""position:fixed;top:50%; left:50%; transform: translate(-50%, -50%); border:5px solid black"">","","","","","","","",""
"","2792.3200000077486","sequential-stimulus-presentation-old","88","1021088","0.0-21.0-1.3","SS1619739580862","trial","","40","500","3292.3200000077486","images/stimuli/spore_stims/complex_20_A_b.gif","images/stimuli/spore_stims/complex_02_A_a.gif","forced_long","","6","complex_dissimilar","images/stimuli/spore_stims/complex_02_A_a.gif","","","","",""
"","null","html-keyboard-response","89","1022218","0.0-21.0-0.4","SS1619739580862","","","null","","","","","","<p><img src= images/blank.png width =""600"" height = ""600"" style=""position:fixed;top:50%; left:50%; transform: translate(-50%, -50%); border:5px solid black"">","","","","","","","",""
"","1877.3049999726936","sequential-stimulus-presentation-old","90","1024601","0.0-21.0-1.4","SS1619739580862","trial","","40","500","2377.3049999726936","images/stimuli/spore_stims/complex_20_A_b.gif","images/stimuli/spore_stims/complex_02_A_a.gif","forced_long","","6","complex_dissimilar","images/stimuli/spore_stims/complex_20_A_b.gif","","","","",""
"","null","html-keyboard-response","91","1025491","0.0-21.0-0.5","SS1619739580862","","","null","","","","","","<p><img src= images/blank.png width =""600"" height = ""600"" style=""position:fixed;top:50%; left:50%; transform: translate(-50%, -50%); border:5px solid black"">","","","","","","","",""
"","1045.1500000199303","sequential-stimulus-presentation-old","92","1027042","0.0-21.0-1.5","SS1619739580862","trial","","40","500","1545.1500000199303","images/stimuli/spore_stims/complex_20_A_b.gif","images/stimuli/spore_stims/complex_02_A_a.gif","forced_long","","6","complex_dissimilar","images/stimuli/spore_stims/complex_02_A_a.gif","","","","",""
"","4244.84499997925","survey-multi-choice","93","1031291","0.0-22.0","SS1619739580862","math_question","","","","","","","","","","","","{""Q0"":""8""}","[0]","8","",""
"","null","html-keyboard-response","94","1032399","0.0-23.0-0.0","SS1619739580862","","","null","","","","","","<p><img src= images/blank.png width =""600"" height = ""600"" style=""position:fixed;top:50%; left:50%; transform: translate(-50%, -50%); border:5px solid black"">","","","","","","","",""
"","1833.7000000756234","sequential-stimulus-presentation-old","95","1049238","0.0-23.0-1.0","SS1619739580862","trial","","40","500","2333.7000000756234","images/stimuli/spore_stims/simple_19_A_b.gif","images/stimuli/spore_stims/simple_10_A_a.gif","forced_long","","7","simple_dissimilar","images/stimuli/spore_stims/simple_10_A_a.gif","","","","",""
"","null","html-keyboard-response","96","1050119","0.0-23.0-0.1","SS1619739580862","","","null","","","","","","<p><img src= images/blank.png width =""600"" height = ""600"" style=""position:fixed;top:50%; left:50%; transform: translate(-50%, -50%); border:5px solid black"">","","","","","","","",""
"","2118.4650000650436","sequential-stimulus-presentation-old","97","1052743","0.0-23.0-1.1","SS1619739580862","trial","","40","500","2618.4650000650436","images/stimuli/spore_stims/simple_19_A_b.gif","images/stimuli/spore_stims/simple_10_A_a.gif","forced_long","","7","simple_dissimilar","images/stimuli/spore_stims/simple_10_A_a.gif","","","","",""
"","null","html-keyboard-response","98","1053617","0.0-23.0-0.2","SS1619739580862","","","null","","","","","","<p><img src= images/blank.png width =""600"" height = ""600"" style=""position:fixed;top:50%; left:50%; transform: translate(-50%, -50%); border:5px solid black"">","","","","","","","",""
"","288.4600000688806","sequential-stimulus-presentation-old","99","1054412","0.0-23.0-1.2","SS1619739580862","trial","","40","500","788.4600000688806","images/stimuli/spore_stims/simple_19_A_b.gif","images/stimuli/spore_stims/simple_10_A_a.gif","forced_long","","7","simple_dissimilar","images/stimuli/spore_stims/simple_10_A_a.gif","","","","",""
"","null","html-keyboard-response","100","1055458","0.0-23.0-0.3","SS1619739580862","","","null","","","","","","<p><img src= images/blank.png width =""600"" height = ""600"" style=""position:fixed;top:50%; left:50%; transform: translate(-50%, -50%); border:5px solid black"">","","","","","","","",""
"","452.01499992981553","sequential-stimulus-presentation-old","101","1056416","0.0-23.0-1.3","SS1619739580862","trial","","40","500","952.0149999298155","images/stimuli/spore_stims/simple_19_A_b.gif","images/stimuli/spore_stims/simple_10_A_a.gif","forced_long","","7","simple_dissimilar","images/stimuli/spore_stims/simple_10_A_a.gif","","","","",""
"","null","html-keyboard-response","102","1057493","0.0-23.0-0.4","SS1619739580862","","","null","","","","","","<p><img src= images/blank.png width =""600"" height = ""600"" style=""position:fixed;top:50%; left:50%; transform: translate(-50%, -50%); border:5px solid black"">","","","","","","","",""
"","1949.1200000047684","sequential-stimulus-presentation-old","103","1059948","0.0-23.0-1.4","SS1619739580862","trial","","40","500","2449.1200000047684","images/stimuli/spore_stims/simple_19_A_b.gif","images/stimuli/spore_stims/simple_10_A_a.gif","forced_long","","7","simple_dissimilar","images/stimuli/spore_stims/simple_10_A_a.gif","","","","",""
"","null","html-keyboard-response","104","1061066","0.0-23.0-0.5","SS1619739580862","","","null","","","","","","<p><img src= images/blank.png width =""600"" height = ""600"" style=""position:fixed;top:50%; left:50%; transform: translate(-50%, -50%); border:5px solid black"">","","","","","","","",""
"","351.35000001173466","sequential-stimulus-presentation-old","105","1061923","0.0-23.0-1.5","SS1619739580862","trial","","40","500","851.3500000117347","images/stimuli/spore_stims/simple_19_A_b.gif","images/stimuli/spore_stims/simple_10_A_a.gif","forced_long","","7","simple_dissimilar","images/stimuli/spore_stims/simple_10_A_a.gif","","","","",""
"","20234.670000034384","survey-multi-choice","106","1082161","0.0-24.0","SS1619739580862","math_question","","","","","","","","","","","","{""Q0"":""12""}","[0]","13","",""
"","null","html-keyboard-response","107","1083240","0.0-25.0-0.0","SS1619739580862","","","null","","","","","","<p><img src= images/blank.png width =""600"" height = ""600"" style=""position:fixed;top:50%; left:50%; transform: translate(-50%, -50%); border:5px solid black"">","","","","","","","",""
"","810.2600000565872","sequential-stimulus-presentation-old","108","1099057","0.0-25.0-1.0","SS1619739580862","trial","","40","500","1310.2600000565872","images/stimuli/spore_stims/complex_05_A_b.gif","images/stimuli/spore_stims/complex_15_A_a.gif","forced_long","","8","complex_dissimilar","images/stimuli/spore_stims/complex_15_A_a.gif","","","","",""
"","null","html-keyboard-response","109","1099889","0.0-25.0-0.1","SS1619739580862","","","null","","","","","","<p><img src= images/blank.png width =""600"" height = ""600"" style=""position:fixed;top:50%; left:50%; transform: translate(-50%, -50%); border:5px solid black"">","","","","","","","",""
"","9545.599999953993","sequential-stimulus-presentation-old","110","1109941","0.0-25.0-1.1","SS1619739580862","trial","","40","500","10045.599999953993","images/stimuli/spore_stims/complex_05_A_b.gif","images/stimuli/spore_stims/complex_15_A_a.gif","forced_long","","8","complex_dissimilar","images/stimuli/spore_stims/complex_05_A_b.gif","","","","",""
"","null","html-keyboard-response","111","1110995","0.0-25.0-0.2","SS1619739580862","","","null","","","","","","<p><img src= images/blank.png width =""600"" height = ""600"" style=""position:fixed;top:50%; left:50%; transform: translate(-50%, -50%); border:5px solid black"">","","","","","","","",""
"","1526.5749999089167","sequential-stimulus-presentation-old","112","1113028","0.0-25.0-1.2","SS1619739580862","trial","","40","500","2026.5749999089167","images/stimuli/spore_stims/complex_05_A_b.gif","images/stimuli/spore_stims/complex_15_A_a.gif","forced_long","","8","complex_dissimilar","images/stimuli/spore_stims/complex_15_A_a.gif","","","","",""
"","null","html-keyboard-response","113","1114169","0.0-25.0-0.3","SS1619739580862","","","null","","","","","","<p><img src= images/blank.png width =""600"" height = ""600"" style=""position:fixed;top:50%; left:50%; transform: translate(-50%, -50%); border:5px solid black"">","","","","","","","",""
"","1186.7750000674278","sequential-stimulus-presentation-old","114","1115862","0.0-25.0-1.3","SS1619739580862","trial","","40","500","1686.7750000674278","images/stimuli/spore_stims/complex_05_A_b.gif","images/stimuli/spore_stims/complex_15_A_a.gif","forced_long","","8","complex_dissimilar","images/stimuli/spore_stims/complex_15_A_a.gif","","","","",""
"","null","html-keyboard-response","115","1117001","0.0-25.0-0.4","SS1619739580862","","","null","","","","","","<p><img src= images/blank.png width =""600"" height = ""600"" style=""position:fixed;top:50%; left:50%; transform: translate(-50%, -50%); border:5px solid black"">","","","","","","","",""
"","1494.3800000473857","sequential-stimulus-presentation-old","116","1119002","0.0-25.0-1.4","SS1619739580862","trial","","40","500","1994.3800000473857","images/stimuli/spore_stims/complex_05_A_b.gif","images/stimuli/spore_stims/complex_15_A_a.gif","forced_long","","8","complex_dissimilar","images/stimuli/spore_stims/complex_05_A_b.gif","","","","",""
"","5487.1850000927225","survey-multi-choice","117","1124494","0.0-26.0","SS1619739580862","math_question","","","","","","","","","","","","{""Q0"":""5""}","[0]","5","",""
"","null","html-keyboard-response","118","1125351","0.0-27.0-0.0","SS1619739580862","","","null","","","","","","<p><img src= images/blank.png width =""600"" height = ""600"" style=""position:fixed;top:50%; left:50%; transform: translate(-50%, -50%); border:5px solid black"">","","","","","","","",""
"","2398.5300000058487","sequential-stimulus-presentation-old","119","1128255","0.0-27.0-1.0","SS1619739580862","trial","","40","500","2898.5300000058487","images/stimuli/spore_stims/complex_06_A_a.gif","images/stimuli/spore_stims/complex_13_A_b.gif","forced_short","","9","complex_dissimilar","images/stimuli/spore_stims/complex_13_A_b.gif","","","","",""
"","null","html-keyboard-response","120","1129073","0.0-27.0-0.1","SS1619739580862","","","null","","","","","","<p><img src= images/blank.png width =""600"" height = ""600"" style=""position:fixed;top:50%; left:50%; transform: translate(-50%, -50%); border:5px solid black"">","","","","","","","",""
"","2443.1450000265613","sequential-stimulus-presentation-old","121","1132023","0.0-27.0-1.1","SS1619739580862","trial","","40","500","2943.1450000265613","images/stimuli/spore_stims/complex_06_A_a.gif","images/stimuli/spore_stims/complex_13_A_b.gif","forced_short","","9","complex_dissimilar","images/stimuli/spore_stims/complex_13_A_b.gif","","","","",""
"","null","html-keyboard-response","122","1133279","0.0-27.0-0.2","SS1619739580862","","","null","","","","","","<p><img src= images/blank.png width =""600"" height = ""600"" style=""position:fixed;top:50%; left:50%; transform: translate(-50%, -50%); border:5px solid black"">","","","","","","","",""
"","1109.5499999355525","sequential-stimulus-presentation-old","123","1134897","0.0-27.0-1.2","SS1619739580862","trial","","40","500","1609.5499999355525","images/stimuli/spore_stims/complex_06_A_a.gif","images/stimuli/spore_stims/complex_13_A_b.gif","forced_short","","9","complex_dissimilar","images/stimuli/spore_stims/complex_06_A_a.gif","","","","",""
"","null","html-keyboard-response","124","1136192","0.0-27.0-0.3","SS1619739580862","","","null","","","","","","<p><img src= images/blank.png width =""600"" height = ""600"" style=""position:fixed;top:50%; left:50%; transform: translate(-50%, -50%); border:5px solid black"">","","","","","","","",""
"","383.41000000946224","sequential-stimulus-presentation-old","125","1137082","0.0-27.0-1.3","SS1619739580862","trial","","40","500","883.4100000094622","images/stimuli/spore_stims/complex_06_A_a.gif","images/stimuli/spore_stims/complex_13_A_b.gif","forced_short","","9","complex_dissimilar","images/stimuli/spore_stims/complex_13_A_b.gif","","","","",""
"","null","html-keyboard-response","126","1138281","0.0-27.0-0.4","SS1619739580862","","","null","","","","","","<p><img src= images/blank.png width =""600"" height = ""600"" style=""position:fixed;top:50%; left:50%; transform: translate(-50%, -50%); border:5px solid black"">","","","","","","","",""
"","390.9949999069795","sequential-stimulus-presentation-old","127","1139179","0.0-27.0-1.4","SS1619739580862","trial","","40","500","890.9949999069795","images/stimuli/spore_stims/complex_06_A_a.gif","images/stimuli/spore_stims/complex_13_A_b.gif","forced_short","","9","complex_dissimilar","images/stimuli/spore_stims/complex_06_A_a.gif","","","","",""
"","null","html-keyboard-response","128","1140481","0.0-27.0-0.5","SS1619739580862","","","null","","","","","","<p><img src= images/blank.png width =""600"" height = ""600"" style=""position:fixed;top:50%; left:50%; transform: translate(-50%, -50%); border:5px solid black"">","","","","","","","",""
"","429.28000004030764","sequential-stimulus-presentation-old","129","1141417","0.0-27.0-1.5","SS1619739580862","trial","","40","500","929.2800000403076","images/stimuli/spore_stims/complex_06_A_a.gif","images/stimuli/spore_stims/complex_13_A_b.gif","forced_short","","9","complex_dissimilar","images/stimuli/spore_stims/complex_13_A_b.gif","","","","",""
"","25996.79499992635","survey-multi-choice","130","1167419","0.0-28.0","SS1619739580862","math_question","","","","","","","","","","","","{""Q0"":""13""}","[0]","13","",""
"","null","html-keyboard-response","131","1168658","0.0-29.0-0.0","SS1619739580862","","","null","","","","","","<p><img src= images/blank.png width =""600"" height = ""600"" style=""position:fixed;top:50%; left:50%; transform: translate(-50%, -50%); border:5px solid black"">","","","","","","","",""
"","2969.539999961853","sequential-stimulus-presentation-old","132","1172135","0.0-29.0-1.0","SS1619739580862","trial","","40","500","3469.539999961853","images/stimuli/spore_stims/simple_16_A_b.gif","images/stimuli/spore_stims/simple_19_A_a.gif","forced_short","","10","simple_dissimilar","images/stimuli/spore_stims/simple_19_A_a.gif","","","","",""
"","null","html-keyboard-response","133","1172960","0.0-29.0-0.1","SS1619739580862","","","null","","","","","","<p><img src= images/blank.png width =""600"" height = ""600"" style=""position:fixed;top:50%; left:50%; transform: translate(-50%, -50%); border:5px solid black"">","","","","","","","",""
"","3079.200000036508","sequential-stimulus-presentation-old","134","1176547","0.0-29.0-1.1","SS1619739580862","trial","","40","500","3579.200000036508","images/stimuli/spore_stims/simple_16_A_b.gif","images/stimuli/spore_stims/simple_19_A_a.gif","forced_short","","10","simple_dissimilar","images/stimuli/spore_stims/simple_19_A_a.gif","","","","",""
"","null","html-keyboard-response","135","1177424","0.0-29.0-0.2","SS1619739580862","","","null","","","","","","<p><img src= images/blank.png width =""600"" height = ""600"" style=""position:fixed;top:50%; left:50%; transform: translate(-50%, -50%); border:5px solid black"">","","","","","","","",""
"","154.04000005219132","sequential-stimulus-presentation-old","136","1178086","0.0-29.0-1.2","SS1619739580862","trial","","40","500","654.0400000521913","images/stimuli/spore_stims/simple_16_A_b.gif","images/stimuli/spore_stims/simple_19_A_a.gif","forced_short","","10","simple_dissimilar","images/stimuli/spore_stims/simple_19_A_a.gif","","","","",""
"","null","html-keyboard-response","137","1179123","0.0-29.0-0.3","SS1619739580862","","","null","","","","","","<p><img src= images/blank.png width =""600"" height = ""600"" style=""position:fixed;top:50%; left:50%; transform: translate(-50%, -50%); border:5px solid black"">","","","","","","","",""
"","1689.6799999522045","sequential-stimulus-presentation-old","138","1181319","0.0-29.0-1.3","SS1619739580862","trial","","40","500","2189.6799999522045","images/stimuli/spore_stims/simple_16_A_b.gif","images/stimuli/spore_stims/simple_19_A_a.gif","forced_short","","10","simple_dissimilar","images/stimuli/spore_stims/simple_19_A_a.gif","","","","",""
"","null","html-keyboard-response","139","1182162","0.0-29.0-0.4","SS1619739580862","","","null","","","","","","<p><img src= images/blank.png width =""600"" height = ""600"" style=""position:fixed;top:50%; left:50%; transform: translate(-50%, -50%); border:5px solid black"">","","","","","","","",""
"","426.465000025928","sequential-stimulus-presentation-old","140","1183096","0.0-29.0-1.4","SS1619739580862","trial","","40","500","926.465000025928","images/stimuli/spore_stims/simple_16_A_b.gif","images/stimuli/spore_stims/simple_19_A_a.gif","forced_short","","10","simple_dissimilar","images/stimuli/spore_stims/simple_19_A_a.gif","","","","",""
"","null","html-keyboard-response","141","1183996","0.0-29.0-0.5","SS1619739580862","","","null","","","","","","<p><img src= images/blank.png width =""600"" height = ""600"" style=""position:fixed;top:50%; left:50%; transform: translate(-50%, -50%); border:5px solid black"">","","","","","","","",""
"","436.5199999883771","sequential-stimulus-presentation-old","142","1184940","0.0-29.0-1.5","SS1619739580862","trial","","40","500","936.5199999883771","images/stimuli/spore_stims/simple_16_A_b.gif","images/stimuli/spore_stims/simple_19_A_a.gif","forced_short","","10","simple_dissimilar","images/stimuli/spore_stims/simple_16_A_b.gif","","","","",""
"","3728.884999989532","survey-multi-choice","143","1188675","0.0-30.0","SS1619739580862","math_question","","","","","","","","","","","","{""Q0"":""16""}","[0]","16","",""
"","null","html-keyboard-response","144","1189482","0.0-31.0-0.0","SS1619739580862","","","null","","","","","","<p><img src= images/blank.png width =""600"" height = ""600"" style=""position:fixed;top:50%; left:50%; transform: translate(-50%, -50%); border:5px solid black"">","","","","","","","",""
"","3165.9349999390543","sequential-stimulus-presentation-old","145","1193155","0.0-31.0-1.0","SS1619739580862","trial","","40","500","3665.9349999390543","images/stimuli/spore_stims/complex_01_A_b.gif","images/stimuli/spore_stims/complex_10_A_a.gif","self_paced","","11","complex_dissimilar","images/stimuli/spore_stims/complex_10_A_a.gif","","","","",""
"","null","html-keyboard-response","146","1194435","0.0-31.0-0.1","SS1619739580862","","","null","","","","","","<p><img src= images/blank.png width =""600"" height = ""600"" style=""position:fixed;top:50%; left:50%; transform: translate(-50%, -50%); border:5px solid black"">","","","","","","","",""
"","3909.289999981411","sequential-stimulus-presentation-old","147","1198852","0.0-31.0-1.1","SS1619739580862","trial","","40","500","4409.289999981411","images/stimuli/spore_stims/complex_01_A_b.gif","images/stimuli/spore_stims/complex_10_A_a.gif","self_paced","","11","complex_dissimilar","images/stimuli/spore_stims/complex_10_A_a.gif","","","","",""
"","null","html-keyboard-response","148","1199917","0.0-31.0-0.2","SS1619739580862","","","null","","","","","","<p><img src= images/blank.png width =""600"" height = ""600"" style=""position:fixed;top:50%; left:50%; transform: translate(-50%, -50%); border:5px solid black"">","","","","","","","",""
"","2676.039999932982","sequential-stimulus-presentation-old","149","1203100","0.0-31.0-1.2","SS1619739580862","trial","","40","500","3176.039999932982","images/stimuli/spore_stims/complex_01_A_b.gif","images/stimuli/spore_stims/complex_10_A_a.gif","self_paced","","11","complex_dissimilar","images/stimuli/spore_stims/complex_01_A_b.gif","","","","",""
"","null","html-keyboard-response","150","1204025","0.0-31.0-0.3","SS1619739580862","","","null","","","","","","<p><img src= images/blank.png width =""600"" height = ""600"" style=""position:fixed;top:50%; left:50%; transform: translate(-50%, -50%); border:5px solid black"">","","","","","","","",""
"","2060.9349999576807","sequential-stimulus-presentation-old","151","1206594","0.0-31.0-1.3","SS1619739580862","trial","","40","500","2560.9349999576807","images/stimuli/spore_stims/complex_01_A_b.gif","images/stimuli/spore_stims/complex_10_A_a.gif","self_paced","","11","complex_dissimilar","images/stimuli/spore_stims/complex_10_A_a.gif","","","","",""
"[{""page_index"":0,""viewing_time"":7663.6250000447035}]","7664.250000030734","instructions","152","1214264","0.0-32.0","SS1619739580862","instructions","","","","","","","","","","","","","","","",""
"","14790.840000030585","survey-likert","153","1229061","0.0-33.0","SS1619739580862","similarity_question","","","","","","","","","","","","{""Q0"":4}","[0]","","images/stimuli/spore_stims/complex_13_A_b.gif","images/stimuli/spore_stims/complex_06_A_a.gif"
"","10412.784999934956","survey-likert","154","1239481","0.0-34.0","SS1619739580862","similarity_question","","","","","","","","","","","","{""Q0"":3}","[0]","","images/stimuli/spore_stims/simple_01_A_a.gif","images/stimuli/spore_stims/simple_09_A_b.gif"
"","6928.63999994006","survey-likert","155","1246417","0.0-35.0","SS1619739580862","similarity_question","","","","","","","","","","","","{""Q0"":1}","[0]","","images/stimuli/spore_stims/simple_19_A_b.gif","images/stimuli/spore_stims/simple_10_A_a.gif"
"","6798.300000024028","survey-likert","156","1253222","0.0-36.0","SS1619739580862","similarity_question","","","","","","","","","","","","{""Q0"":2}","[0]","","images/stimuli/spore_stims/complex_03_A_b.gif","images/stimuli/spore_stims/complex_04_A_a.gif"
"","8785.509999957867","survey-likert","157","1262014","0.0-37.0","SS1619739580862","similarity_question","","","","","","","","","","","","{""Q0"":3}","[0]","","images/stimuli/spore_stims/complex_20_A_b.gif","images/stimuli/spore_stims/complex_02_A_a.gif"
"","8032.705000019632","survey-likert","158","1270054","0.0-38.0","SS1619739580862","similarity_question","","","","","","","","","","","","{""Q0"":2}","[0]","","images/stimuli/spore_stims/simple_09_A_a.gif","images/stimuli/spore_stims/simple_17_A_b.gif"
"","6437.019999953918","survey-likert","159","1276498","0.0-39.0","SS1619739580862","similarity_question","","","","","","","","","","","","{""Q0"":1}","[0]","","images/stimuli/spore_stims/simple_19_A_a.gif","images/stimuli/spore_stims/simple_16_A_b.gif"
"","14861.039999988861","survey-likert","160","1291366","0.0-40.0","SS1619739580862","similarity_question","","","","","","","","","","","","{""Q0"":2}","[0]","","images/stimuli/spore_stims/complex_05_A_b.gif","images/stimuli/spore_stims/complex_15_A_a.gif"
"","7336.295000044629","survey-likert","161","1298710","0.0-41.0","SS1619739580862","similarity_question","","","","","","","","","","","","{""Q0"":4}","[0]","","images/stimuli/spore_stims/complex_01_A_b.gif","images/stimuli/spore_stims/complex_10_A_a.gif"
"","5651.09499997925","survey-likert","162","1304368","0.0-42.0","SS1619739580862","similarity_question","","","","","","","","","","","","{""Q0"":3}","[0]","","images/stimuli/spore_stims/complex_14_A_b.gif","images/stimuli/spore_stims/complex_12_A_a.gif"
"","4124.749999959022","survey-likert","163","1308500","0.0-43.0","SS1619739580862","similarity_question","","","","","","","","","","","","{""Q0"":2}","[0]","","images/stimuli/spore_stims/simple_16_A_a.gif","images/stimuli/spore_stims/simple_05_A_b.gif"
"","6870.649999938905","survey-likert","164","1315379","0.0-44.0","SS1619739580862","similarity_question","","","","","","","","","","","","{""Q0"":4}","[0]","","images/stimuli/spore_stims/simple_02_A_a.gif","images/stimuli/spore_stims/simple_08_A_b.gif"
"[{""page_index"":0,""viewing_time"":4460.925000021234}]","4461.140000028536","instructions","165","1319846","0.0-45.0","SS1619739580862","instructions","","","","","","","","","","","","","","","",""
"","7650.46999999322","survey-likert","166","1327504","0.0-46.0","SS1619739580862","","","","","","","","","images/stimuli/spore_stims/complex_12_A_a.gif","","","","{""Q0"":4}","[0]","","",""
"","3355.314999935217","survey-likert","167","1330867","0.0-47.0","SS1619739580862","","","","","","","","","images/stimuli/spore_stims/simple_09_A_a.gif","","","","{""Q0"":5}","[0]","","",""
"","4052.2050000727177","survey-likert","168","1334927","0.0-48.0","SS1619739580862","","","","","","","","","images/stimuli/spore_stims/simple_05_A_b.gif","","","","{""Q0"":6}","[0]","","",""
"","3990.5349999899045","survey-likert","169","1338925","0.0-49.0","SS1619739580862","","","","","","","","","images/stimuli/spore_stims/simple_10_A_a.gif","","","","{""Q0"":4}","[0]","","",""
"","4369.665000005625","survey-likert","170","1343303","0.0-50.0","SS1619739580862","","","","","","","","","images/stimuli/spore_stims/complex_05_A_b.gif","","","","{""Q0"":4}","[0]","","",""
"","9331.074999994598","survey-likert","171","1352641","0.0-51.0","SS1619739580862","","","","","","","","","images/stimuli/spore_stims/complex_06_A_a.gif","","","","{""Q0"":4}","[0]","","",""
"","3402.0999999484047","survey-likert","172","1356051","0.0-52.0","SS1619739580862","","","","","","","","","images/stimuli/spore_stims/complex_02_A_a.gif","","","","{""Q0"":4}","[0]","","",""
"","3975.9649999905378","survey-likert","173","1360035","0.0-53.0","SS1619739580862","","","","","","","","","images/stimuli/spore_stims/simple_08_A_b.gif","","","","{""Q0"":5}","[0]","","",""
"","4557.410000008531","survey-likert","174","1364600","0.0-54.0","SS1619739580862","","","","","","","","","images/stimuli/spore_stims/complex_03_A_b.gif","","","","{""Q0"":4}","[0]","","",""
"","3856.955000082962","survey-likert","175","1368465","0.0-55.0","SS1619739580862","","","","","","","","","images/stimuli/spore_stims/complex_10_A_a.gif","","","","{""Q0"":5}","[0]","","",""
"","2716.4750000229105","survey-likert","176","1371189","0.0-56.0","SS1619739580862","","","","","","","","","images/stimuli/spore_stims/simple_01_A_a.gif","","","","{""Q0"":6}","[0]","","",""
"","3210.3399999905378","survey-likert","177","1374407","0.0-57.0","SS1619739580862","","","","","","","","","images/stimuli/spore_stims/simple_19_A_a.gif","","","","{""Q0"":4}","[0]","","",""
"[{""page_index"":0,""viewing_time"":3090.290000080131}]","3090.515000047162","instructions","178","1377505","0.0-58.0","SS1619739580862","instructions","","","","","","","","","","","","","","","",""
"","4779.45000003092","demog-age","179","1382293","0.0-59.0","SS1619739580862","","","","","","","","","","","","","{""age"":""34""}","","","",""
"","7649.214999983087","demog-ethnic-US","180","1389951","0.0-60.0","SS1619739580862","","","","","","","","","","","","","{""ethnicity"":[""White""]}","[0]","","",""
"","19634.17999993544","demog-gender-and-education","181","1409593","0.0-61.0","SS1619739580862","","","","","","","","","","","","","{""gender"":""Male"",""education"":""Associate Degree/Technical certification""}","[0,1]","","",""
"","9495.379999978468","survey-text","182","1419097","0.0-62.0","SS1619739580862","feedback","","","","","","","","","","","","{""Q0"":""no""}","","","",""
"[{""page_index"":0,""viewing_time"":5511.850000009872}]","5512.105000088923","instructions","183","1424617","0.0-63.0","SS1619739580862","instructions","","","","","","","","","","","","","","","",""
