"view_history","rt","trial_type","trial_index","time_elapsed","internal_node_id","subject","stimulus_type","trial_stimulus","key_press","minimum_viewing_duration","trial_looking_time","block_deviant","block_background","exposure_type","stimulus","block_number","block_type","stimulus_displayed","responses","question_order","math_correct_answer","stimulus_left","stimulus_right"
"[{""page_index"":0,""viewing_time"":18341.080000000147}]","18341.725000000224","instructions","0","18343","0.0-0.0","SS1619740074027","","","","","","","","","","","","","","","","",""
"[{""page_index"":0,""viewing_time"":12892.775000000256},{""page_index"":1,""viewing_time"":10071.65999999961}]","22964.669999999387","instructions","1","43310","0.0-1.0","SS1619740074027","instructions","","","","","","","","","","","","","","","",""
"","7704.724999999598","sequential-stimulus-presentation-old","2","51520","0.0-2.0","SS1619740074027","","","40","500","8204.724999999598","null","null","self_paced","","","","","","","","",""
"","12393.555000000568","sequential-stimulus-presentation-old","3","64416","0.0-3.0","SS1619740074027","","","40","500","12893.555000000568","null","null","self_paced","","","","","","","","",""
"[{""page_index"":0,""viewing_time"":20936.174999999814}]","20936.384999999966","instructions","4","85353","0.0-4.0","SS1619740074027","instructions","","","","","","","","","","","","","","","",""
"","414.45999999996275","sequential-stimulus-presentation-old","5","100770","0.0-5.0","SS1619740074027","","","40","500","914.4599999999627","null","null","forced_long","","","","","","","","",""
"","2232.2949999997945","sequential-stimulus-presentation-old","6","103506","0.0-6.0","SS1619740074027","","","40","500","2732.2949999997945","null","null","forced_long","","","","","","","","",""
"[{""page_index"":0,""viewing_time"":4734.915000000008}]","4735.139999999781","instructions","7","108242","0.0-7.0","SS1619740074027","instructions","","","","","","","","","","","","","","","",""
"[{""page_index"":0,""viewing_time"":8399.014999999956},{""page_index"":1,""viewing_time"":13145.134999999747},{""page_index"":2,""viewing_time"":5840.025000000431},{""page_index"":3,""viewing_time"":2919.6249999995343},{""page_index"":4,""viewing_time"":1264.6100000001898}]","31568.674999999523","instructions","8","139811","0.0-8.0","SS1619740074027","instructions","","","","","","","","","","","","","","","",""
"","null","html-keyboard-response","9","140735","0.0-9.0-0.0","SS1619740074027","","","null","","","","","","<p><img src= images/blank.png width =""600"" height = ""600"" style=""position:fixed;top:50%; left:50%; transform: translate(-50%, -50%); border:5px solid black"">","","","","","","","",""
"","30980.74499999985","sequential-stimulus-presentation-old","10","172220","0.0-9.0-1.0","SS1619740074027","trial","","40","500","31480.74499999985","images/stimuli/spore_stims/simple_06_A_b.gif","images/stimuli/spore_stims/simple_18_A_a.gif","self_paced","","0","simple_dissimilar","images/stimuli/spore_stims/simple_18_A_a.gif","","","","",""
"","null","html-keyboard-response","11","173169","0.0-9.0-0.1","SS1619740074027","","","null","","","","","","<p><img src= images/blank.png width =""600"" height = ""600"" style=""position:fixed;top:50%; left:50%; transform: translate(-50%, -50%); border:5px solid black"">","","","","","","","",""
"","4948.730000000069","sequential-stimulus-presentation-old","12","178620","0.0-9.0-1.1","SS1619740074027","trial","","40","500","5448.730000000069","images/stimuli/spore_stims/simple_06_A_b.gif","images/stimuli/spore_stims/simple_18_A_a.gif","self_paced","","0","simple_dissimilar","images/stimuli/spore_stims/simple_18_A_a.gif","","","","",""
"","null","html-keyboard-response","13","179674","0.0-9.0-0.2","SS1619740074027","","","null","","","","","","<p><img src= images/blank.png width =""600"" height = ""600"" style=""position:fixed;top:50%; left:50%; transform: translate(-50%, -50%); border:5px solid black"">","","","","","","","",""
"","3003.5049999996845","sequential-stimulus-presentation-old","14","183181","0.0-9.0-1.2","SS1619740074027","trial","","40","500","3503.5049999996845","images/stimuli/spore_stims/simple_06_A_b.gif","images/stimuli/spore_stims/simple_18_A_a.gif","self_paced","","0","simple_dissimilar","images/stimuli/spore_stims/simple_18_A_a.gif","","","","",""
"","null","html-keyboard-response","15","184030","0.0-9.0-0.3","SS1619740074027","","","null","","","","","","<p><img src= images/blank.png width =""600"" height = ""600"" style=""position:fixed;top:50%; left:50%; transform: translate(-50%, -50%); border:5px solid black"">","","","","","","","",""
"","21240.110000000626","sequential-stimulus-presentation-old","16","205773","0.0-9.0-1.3","SS1619740074027","trial","","40","500","21740.110000000626","images/stimuli/spore_stims/simple_06_A_b.gif","images/stimuli/spore_stims/simple_18_A_a.gif","self_paced","","0","simple_dissimilar","images/stimuli/spore_stims/simple_18_A_a.gif","","","","",""
"","4390.734999999957","survey-multi-choice","17","210166","0.0-10.0","SS1619740074027","math_question","","","","","","","","","","","","{""Q0"":""11""}","[0]","11","",""
"","null","html-keyboard-response","18","211030","0.0-11.0-0.0","SS1619740074027","","","null","","","","","","<p><img src= images/blank.png width =""600"" height = ""600"" style=""position:fixed;top:50%; left:50%; transform: translate(-50%, -50%); border:5px solid black"">","","","","","","","",""
"","940.5500000002503","sequential-stimulus-presentation-old","19","212477","0.0-11.0-1.0","SS1619740074027","trial","","40","500","1440.5500000002503","images/stimuli/spore_stims/simple_18_A_b.gif","images/stimuli/spore_stims/simple_10_A_a.gif","forced_short","","1","simple_dissimilar","images/stimuli/spore_stims/simple_10_A_a.gif","","","","",""
"","null","html-keyboard-response","20","213299","0.0-11.0-0.1","SS1619740074027","","","null","","","","","","<p><img src= images/blank.png width =""600"" height = ""600"" style=""position:fixed;top:50%; left:50%; transform: translate(-50%, -50%); border:5px solid black"">","","","","","","","",""
"","15875.659999999712","sequential-stimulus-presentation-old","21","229679","0.0-11.0-1.1","SS1619740074027","trial","","40","500","16375.659999999712","images/stimuli/spore_stims/simple_18_A_b.gif","images/stimuli/spore_stims/simple_10_A_a.gif","forced_short","","1","simple_dissimilar","images/stimuli/spore_stims/simple_18_A_b.gif","","","","",""
"","null","html-keyboard-response","22","230524","0.0-11.0-0.2","SS1619740074027","","","null","","","","","","<p><img src= images/blank.png width =""600"" height = ""600"" style=""position:fixed;top:50%; left:50%; transform: translate(-50%, -50%); border:5px solid black"">","","","","","","","",""
"","42076.35000000027","sequential-stimulus-presentation-old","23","273103","0.0-11.0-1.2","SS1619740074027","trial","","40","500","42576.35000000027","images/stimuli/spore_stims/simple_18_A_b.gif","images/stimuli/spore_stims/simple_10_A_a.gif","forced_short","","1","simple_dissimilar","images/stimuli/spore_stims/simple_18_A_b.gif","","","","",""
"","null","html-keyboard-response","24","274090","0.0-11.0-0.3","SS1619740074027","","","null","","","","","","<p><img src= images/blank.png width =""600"" height = ""600"" style=""position:fixed;top:50%; left:50%; transform: translate(-50%, -50%); border:5px solid black"">","","","","","","","",""
"","31671.075000000244","sequential-stimulus-presentation-old","25","306265","0.0-11.0-1.3","SS1619740074027","trial","","40","500","32171.075000000244","images/stimuli/spore_stims/simple_18_A_b.gif","images/stimuli/spore_stims/simple_10_A_a.gif","forced_short","","1","simple_dissimilar","images/stimuli/spore_stims/simple_10_A_a.gif","","","","",""
"","null","html-keyboard-response","26","307281","0.0-11.0-0.4","SS1619740074027","","","null","","","","","","<p><img src= images/blank.png width =""600"" height = ""600"" style=""position:fixed;top:50%; left:50%; transform: translate(-50%, -50%); border:5px solid black"">","","","","","","","",""
"","3312.8600000000442","sequential-stimulus-presentation-old","27","311097","0.0-11.0-1.4","SS1619740074027","trial","","40","500","3812.8600000000442","images/stimuli/spore_stims/simple_18_A_b.gif","images/stimuli/spore_stims/simple_10_A_a.gif","forced_short","","1","simple_dissimilar","images/stimuli/spore_stims/simple_10_A_a.gif","","","","",""
"","3222.8800000002375","survey-multi-choice","28","314322","0.0-12.0","SS1619740074027","math_question","","","","","","","","","","","","{""Q0"":""4""}","[0]","4","",""
"","null","html-keyboard-response","29","315413","0.0-13.0-0.0","SS1619740074027","","","null","","","","","","<p><img src= images/blank.png width =""600"" height = ""600"" style=""position:fixed;top:50%; left:50%; transform: translate(-50%, -50%); border:5px solid black"">","","","","","","","",""
"","10997.700000000768","sequential-stimulus-presentation-old","30","326914","0.0-13.0-1.0","SS1619740074027","trial","","40","500","11497.700000000768","images/stimuli/spore_stims/complex_14_A_b.gif","images/stimuli/spore_stims/complex_10_A_a.gif","self_paced","","2","complex_dissimilar","images/stimuli/spore_stims/complex_10_A_a.gif","","","","",""
"","null","html-keyboard-response","31","327919","0.0-13.0-0.1","SS1619740074027","","","null","","","","","","<p><img src= images/blank.png width =""600"" height = ""600"" style=""position:fixed;top:50%; left:50%; transform: translate(-50%, -50%); border:5px solid black"">","","","","","","","",""
"","1881.7299999991665","sequential-stimulus-presentation-old","32","330305","0.0-13.0-1.1","SS1619740074027","trial","","40","500","2381.7299999991665","images/stimuli/spore_stims/complex_14_A_b.gif","images/stimuli/spore_stims/complex_10_A_a.gif","self_paced","","2","complex_dissimilar","images/stimuli/spore_stims/complex_10_A_a.gif","","","","",""
"","null","html-keyboard-response","33","331193","0.0-13.0-0.2","SS1619740074027","","","null","","","","","","<p><img src= images/blank.png width =""600"" height = ""600"" style=""position:fixed;top:50%; left:50%; transform: translate(-50%, -50%); border:5px solid black"">","","","","","","","",""
"","441.7000000003027","sequential-stimulus-presentation-old","34","332138","0.0-13.0-1.2","SS1619740074027","trial","","40","500","941.7000000003027","images/stimuli/spore_stims/complex_14_A_b.gif","images/stimuli/spore_stims/complex_10_A_a.gif","self_paced","","2","complex_dissimilar","images/stimuli/spore_stims/complex_10_A_a.gif","","","","",""
"","null","html-keyboard-response","35","333098","0.0-13.0-0.3","SS1619740074027","","","null","","","","","","<p><img src= images/blank.png width =""600"" height = ""600"" style=""position:fixed;top:50%; left:50%; transform: translate(-50%, -50%); border:5px solid black"">","","","","","","","",""
"","704.3100000000559","sequential-stimulus-presentation-old","36","334306","0.0-13.0-1.3","SS1619740074027","trial","","40","500","1204.3100000000559","images/stimuli/spore_stims/complex_14_A_b.gif","images/stimuli/spore_stims/complex_10_A_a.gif","self_paced","","2","complex_dissimilar","images/stimuli/spore_stims/complex_10_A_a.gif","","","","",""
"","null","html-keyboard-response","37","335146","0.0-13.0-0.4","SS1619740074027","","","null","","","","","","<p><img src= images/blank.png width =""600"" height = ""600"" style=""position:fixed;top:50%; left:50%; transform: translate(-50%, -50%); border:5px solid black"">","","","","","","","",""
"","26938.250000000175","sequential-stimulus-presentation-old","38","362588","0.0-13.0-1.4","SS1619740074027","trial","","40","500","27438.250000000175","images/stimuli/spore_stims/complex_14_A_b.gif","images/stimuli/spore_stims/complex_10_A_a.gif","self_paced","","2","complex_dissimilar","images/stimuli/spore_stims/complex_14_A_b.gif","","","","",""
"","null","html-keyboard-response","39","363434","0.0-13.0-0.5","SS1619740074027","","","null","","","","","","<p><img src= images/blank.png width =""600"" height = ""600"" style=""position:fixed;top:50%; left:50%; transform: translate(-50%, -50%); border:5px solid black"">","","","","","","","",""
"","6314.730000000098","sequential-stimulus-presentation-old","40","370252","0.0-13.0-1.5","SS1619740074027","trial","","40","500","6814.730000000098","images/stimuli/spore_stims/complex_14_A_b.gif","images/stimuli/spore_stims/complex_10_A_a.gif","self_paced","","2","complex_dissimilar","images/stimuli/spore_stims/complex_10_A_a.gif","","","","",""
"","19943.825000000303","survey-multi-choice","41","390197","0.0-14.0","SS1619740074027","math_question","","","","","","","","","","","","{""Q0"":""10""}","[0]","10","",""
"","null","html-keyboard-response","42","391013","0.0-15.0-0.0","SS1619740074027","","","null","","","","","","<p><img src= images/blank.png width =""600"" height = ""600"" style=""position:fixed;top:50%; left:50%; transform: translate(-50%, -50%); border:5px solid black"">","","","","","","","",""
"","1039.354999999865","sequential-stimulus-presentation-old","43","392557","0.0-15.0-1.0","SS1619740074027","trial","","40","500","1539.354999999865","images/stimuli/spore_stims/complex_02_A_a.gif","images/stimuli/spore_stims/complex_09_A_b.gif","forced_short","","3","complex_dissimilar","images/stimuli/spore_stims/complex_09_A_b.gif","","","","",""
"","null","html-keyboard-response","44","393730","0.0-15.0-0.1","SS1619740074027","","","null","","","","","","<p><img src= images/blank.png width =""600"" height = ""600"" style=""position:fixed;top:50%; left:50%; transform: translate(-50%, -50%); border:5px solid black"">","","","","","","","",""
"","62342.085000000254","sequential-stimulus-presentation-old","45","456574","0.0-15.0-1.1","SS1619740074027","trial","","40","500","62842.085000000254","images/stimuli/spore_stims/complex_02_A_a.gif","images/stimuli/spore_stims/complex_09_A_b.gif","forced_short","","3","complex_dissimilar","images/stimuli/spore_stims/complex_02_A_a.gif","","","","",""
"","null","html-keyboard-response","46","457674","0.0-15.0-0.2","SS1619740074027","","","null","","","","","","<p><img src= images/blank.png width =""600"" height = ""600"" style=""position:fixed;top:50%; left:50%; transform: translate(-50%, -50%); border:5px solid black"">","","","","","","","",""
"","17286.004999999946","sequential-stimulus-presentation-old","47","475464","0.0-15.0-1.2","SS1619740074027","trial","","40","500","17786.004999999946","images/stimuli/spore_stims/complex_02_A_a.gif","images/stimuli/spore_stims/complex_09_A_b.gif","forced_short","","3","complex_dissimilar","images/stimuli/spore_stims/complex_09_A_b.gif","","","","",""
"","null","html-keyboard-response","48","476638","0.0-15.0-0.3","SS1619740074027","","","null","","","","","","<p><img src= images/blank.png width =""600"" height = ""600"" style=""position:fixed;top:50%; left:50%; transform: translate(-50%, -50%); border:5px solid black"">","","","","","","","",""
"","15826.070000000065","sequential-stimulus-presentation-old","49","492968","0.0-15.0-1.3","SS1619740074027","trial","","40","500","16326.070000000065","images/stimuli/spore_stims/complex_02_A_a.gif","images/stimuli/spore_stims/complex_09_A_b.gif","forced_short","","3","complex_dissimilar","images/stimuli/spore_stims/complex_09_A_b.gif","","","","",""
"","null","html-keyboard-response","50","494040","0.0-15.0-0.4","SS1619740074027","","","null","","","","","","<p><img src= images/blank.png width =""600"" height = ""600"" style=""position:fixed;top:50%; left:50%; transform: translate(-50%, -50%); border:5px solid black"">","","","","","","","",""
"","223.46999999991385","sequential-stimulus-presentation-old","51","494768","0.0-15.0-1.4","SS1619740074027","trial","","40","500","723.4699999999139","images/stimuli/spore_stims/complex_02_A_a.gif","images/stimuli/spore_stims/complex_09_A_b.gif","forced_short","","3","complex_dissimilar","images/stimuli/spore_stims/complex_02_A_a.gif","","","","",""
"","3254.899999999907","survey-multi-choice","52","498025","0.0-16.0","SS1619740074027","math_question","","","","","","","","","","","","{""Q0"":""11""}","[0]","11","",""
"","null","html-keyboard-response","53","499299","0.0-17.0-0.0","SS1619740074027","","","null","","","","","","<p><img src= images/blank.png width =""600"" height = ""600"" style=""position:fixed;top:50%; left:50%; transform: translate(-50%, -50%); border:5px solid black"">","","","","","","","",""
"","25534.18999999942","sequential-stimulus-presentation-old","54","525338","0.0-17.0-1.0","SS1619740074027","trial","","40","500","26034.18999999942","images/stimuli/spore_stims/complex_14_A_a.gif","images/stimuli/spore_stims/complex_07_A_b.gif","self_paced","","4","complex_dissimilar","images/stimuli/spore_stims/complex_07_A_b.gif","","","","",""
"","null","html-keyboard-response","55","526446","0.0-17.0-0.1","SS1619740074027","","","null","","","","","","<p><img src= images/blank.png width =""600"" height = ""600"" style=""position:fixed;top:50%; left:50%; transform: translate(-50%, -50%); border:5px solid black"">","","","","","","","",""
"","619.7350000002189","sequential-stimulus-presentation-old","56","527570","0.0-17.0-1.1","SS1619740074027","trial","","40","500","1119.7350000002189","images/stimuli/spore_stims/complex_14_A_a.gif","images/stimuli/spore_stims/complex_07_A_b.gif","self_paced","","4","complex_dissimilar","images/stimuli/spore_stims/complex_07_A_b.gif","","","","",""
"","null","html-keyboard-response","57","528412","0.0-17.0-0.2","SS1619740074027","","","null","","","","","","<p><img src= images/blank.png width =""600"" height = ""600"" style=""position:fixed;top:50%; left:50%; transform: translate(-50%, -50%); border:5px solid black"">","","","","","","","",""
"","41297.30500000017","sequential-stimulus-presentation-old","58","570212","0.0-17.0-1.2","SS1619740074027","trial","","40","500","41797.30500000017","images/stimuli/spore_stims/complex_14_A_a.gif","images/stimuli/spore_stims/complex_07_A_b.gif","self_paced","","4","complex_dissimilar","images/stimuli/spore_stims/complex_07_A_b.gif","","","","",""
"","null","html-keyboard-response","59","571085","0.0-17.0-0.3","SS1619740074027","","","null","","","","","","<p><img src= images/blank.png width =""600"" height = ""600"" style=""position:fixed;top:50%; left:50%; transform: translate(-50%, -50%); border:5px solid black"">","","","","","","","",""
"","854.7350000008009","sequential-stimulus-presentation-old","60","572444","0.0-17.0-1.3","SS1619740074027","trial","","40","500","1354.735000000801","images/stimuli/spore_stims/complex_14_A_a.gif","images/stimuli/spore_stims/complex_07_A_b.gif","self_paced","","4","complex_dissimilar","images/stimuli/spore_stims/complex_07_A_b.gif","","","","",""
"","5974.054999999702","survey-multi-choice","61","578420","0.0-18.0","SS1619740074027","math_question","","","","","","","","","","","","{""Q0"":""12""}","[0]","12","",""
"","null","html-keyboard-response","62","579360","0.0-19.0-0.0","SS1619740074027","","","null","","","","","","<p><img src= images/blank.png width =""600"" height = ""600"" style=""position:fixed;top:50%; left:50%; transform: translate(-50%, -50%); border:5px solid black"">","","","","","","","",""
"","5353.760000000009","sequential-stimulus-presentation-old","63","599717","0.0-19.0-1.0","SS1619740074027","trial","","40","500","5853.760000000009","images/stimuli/spore_stims/complex_17_A_a.gif","images/stimuli/spore_stims/complex_01_A_b.gif","forced_long","","5","complex_dissimilar","images/stimuli/spore_stims/complex_01_A_b.gif","","","","",""
"","null","html-keyboard-response","64","600696","0.0-19.0-0.1","SS1619740074027","","","null","","","","","","<p><img src= images/blank.png width =""600"" height = ""600"" style=""position:fixed;top:50%; left:50%; transform: translate(-50%, -50%); border:5px solid black"">","","","","","","","",""
"","9620.6949999996","sequential-stimulus-presentation-old","65","610821","0.0-19.0-1.1","SS1619740074027","trial","","40","500","10120.6949999996","images/stimuli/spore_stims/complex_17_A_a.gif","images/stimuli/spore_stims/complex_01_A_b.gif","forced_long","","5","complex_dissimilar","images/stimuli/spore_stims/complex_01_A_b.gif","","","","",""
"","null","html-keyboard-response","66","612011","0.0-19.0-0.2","SS1619740074027","","","null","","","","","","<p><img src= images/blank.png width =""600"" height = ""600"" style=""position:fixed;top:50%; left:50%; transform: translate(-50%, -50%); border:5px solid black"">","","","","","","","",""
"","12018.829999999958","sequential-stimulus-presentation-old","67","624533","0.0-19.0-1.2","SS1619740074027","trial","","40","500","12518.829999999958","images/stimuli/spore_stims/complex_17_A_a.gif","images/stimuli/spore_stims/complex_01_A_b.gif","forced_long","","5","complex_dissimilar","images/stimuli/spore_stims/complex_01_A_b.gif","","","","",""
"","null","html-keyboard-response","68","625643","0.0-19.0-0.3","SS1619740074027","","","null","","","","","","<p><img src= images/blank.png width =""600"" height = ""600"" style=""position:fixed;top:50%; left:50%; transform: translate(-50%, -50%); border:5px solid black"">","","","","","","","",""
"","36076.449999999604","sequential-stimulus-presentation-old","69","662222","0.0-19.0-1.3","SS1619740074027","trial","","40","500","36576.449999999604","images/stimuli/spore_stims/complex_17_A_a.gif","images/stimuli/spore_stims/complex_01_A_b.gif","forced_long","","5","complex_dissimilar","images/stimuli/spore_stims/complex_01_A_b.gif","","","","",""
"","null","html-keyboard-response","70","663158","0.0-19.0-0.4","SS1619740074027","","","null","","","","","","<p><img src= images/blank.png width =""600"" height = ""600"" style=""position:fixed;top:50%; left:50%; transform: translate(-50%, -50%); border:5px solid black"">","","","","","","","",""
"","2416.79999999993","sequential-stimulus-presentation-old","71","666079","0.0-19.0-1.4","SS1619740074027","trial","","40","500","2916.79999999993","images/stimuli/spore_stims/complex_17_A_a.gif","images/stimuli/spore_stims/complex_01_A_b.gif","forced_long","","5","complex_dissimilar","images/stimuli/spore_stims/complex_01_A_b.gif","","","","",""
"","null","html-keyboard-response","72","667201","0.0-19.0-0.5","SS1619740074027","","","null","","","","","","<p><img src= images/blank.png width =""600"" height = ""600"" style=""position:fixed;top:50%; left:50%; transform: translate(-50%, -50%); border:5px solid black"">","","","","","","","",""
"","14263.46000000008","sequential-stimulus-presentation-old","73","681967","0.0-19.0-1.5","SS1619740074027","trial","","40","500","14763.46000000008","images/stimuli/spore_stims/complex_17_A_a.gif","images/stimuli/spore_stims/complex_01_A_b.gif","forced_long","","5","complex_dissimilar","images/stimuli/spore_stims/complex_01_A_b.gif","","","","",""
"","3976.2449999997625","survey-multi-choice","74","685945","0.0-20.0","SS1619740074027","math_question","","","","","","","","","","","","{""Q0"":""13""}","[0]","13","",""
"","null","html-keyboard-response","75","686970","0.0-21.0-0.0","SS1619740074027","","","null","","","","","","<p><img src= images/blank.png width =""600"" height = ""600"" style=""position:fixed;top:50%; left:50%; transform: translate(-50%, -50%); border:5px solid black"">","","","","","","","",""
"","358385.3099999996","sequential-stimulus-presentation-old","76","1060360","0.0-21.0-1.0","SS1619740074027","trial","","40","500","358885.3099999996","images/stimuli/spore_stims/simple_13_A_a.gif","images/stimuli/spore_stims/simple_19_A_b.gif","forced_long","","6","simple_dissimilar","images/stimuli/spore_stims/simple_19_A_b.gif","","","","",""
"","null","html-keyboard-response","77","1061170","0.0-21.0-0.1","SS1619740074027","","","null","","","","","","<p><img src= images/blank.png width =""600"" height = ""600"" style=""position:fixed;top:50%; left:50%; transform: translate(-50%, -50%); border:5px solid black"">","","","","","","","",""
"","716.5600000007544","sequential-stimulus-presentation-old","78","1062391","0.0-21.0-1.1","SS1619740074027","trial","","40","500","1216.5600000007544","images/stimuli/spore_stims/simple_13_A_a.gif","images/stimuli/spore_stims/simple_19_A_b.gif","forced_long","","6","simple_dissimilar","images/stimuli/spore_stims/simple_19_A_b.gif","","","","",""
"","null","html-keyboard-response","79","1063301","0.0-21.0-0.2","SS1619740074027","","","null","","","","","","<p><img src= images/blank.png width =""600"" height = ""600"" style=""position:fixed;top:50%; left:50%; transform: translate(-50%, -50%); border:5px solid black"">","","","","","","","",""
"","498.4950000005774","sequential-stimulus-presentation-old","80","1064303","0.0-21.0-1.2","SS1619740074027","trial","","40","500","998.4950000005774","images/stimuli/spore_stims/simple_13_A_a.gif","images/stimuli/spore_stims/simple_19_A_b.gif","forced_long","","6","simple_dissimilar","images/stimuli/spore_stims/simple_19_A_b.gif","","","","",""
"","null","html-keyboard-response","81","1065133","0.0-21.0-0.3","SS1619740074027","","","null","","","","","","<p><img src= images/blank.png width =""600"" height = ""600"" style=""position:fixed;top:50%; left:50%; transform: translate(-50%, -50%); border:5px solid black"">","","","","","","","",""
"","66.42999999993481","sequential-stimulus-presentation-old","82","1065703","0.0-21.0-1.3","SS1619740074027","trial","","40","500","566.4299999999348","images/stimuli/spore_stims/simple_13_A_a.gif","images/stimuli/spore_stims/simple_19_A_b.gif","forced_long","","6","simple_dissimilar","images/stimuli/spore_stims/simple_19_A_b.gif","","","","",""
"","null","html-keyboard-response","83","1067461","0.0-21.0-0.4","SS1619740074027","","","null","","","","","","<p><img src= images/blank.png width =""600"" height = ""600"" style=""position:fixed;top:50%; left:50%; transform: translate(-50%, -50%); border:5px solid black"">","","","","","","","",""
"","1819.8400000000838","sequential-stimulus-presentation-old","84","1069784","0.0-21.0-1.4","SS1619740074027","trial","","40","500","2319.840000000084","images/stimuli/spore_stims/simple_13_A_a.gif","images/stimuli/spore_stims/simple_19_A_b.gif","forced_long","","6","simple_dissimilar","images/stimuli/spore_stims/simple_19_A_b.gif","","","","",""
"","null","html-keyboard-response","85","1070615","0.0-21.0-0.5","SS1619740074027","","","null","","","","","","<p><img src= images/blank.png width =""600"" height = ""600"" style=""position:fixed;top:50%; left:50%; transform: translate(-50%, -50%); border:5px solid black"">","","","","","","","",""
"","41.234999999636784","sequential-stimulus-presentation-old","86","1071160","0.0-21.0-1.5","SS1619740074027","trial","","40","500","541.2349999996368","images/stimuli/spore_stims/simple_13_A_a.gif","images/stimuli/spore_stims/simple_19_A_b.gif","forced_long","","6","simple_dissimilar","images/stimuli/spore_stims/simple_19_A_b.gif","","","","",""
"","2726.9599999999627","survey-multi-choice","87","1073889","0.0-22.0","SS1619740074027","math_question","","","","","","","","","","","","{""Q0"":""12""}","[0]","12","",""
"","null","html-keyboard-response","88","1074966","0.0-23.0-0.0","SS1619740074027","","","null","","","","","","<p><img src= images/blank.png width =""600"" height = ""600"" style=""position:fixed;top:50%; left:50%; transform: translate(-50%, -50%); border:5px solid black"">","","","","","","","",""
"","562.3300000005402","sequential-stimulus-presentation-old","89","1076033","0.0-23.0-1.0","SS1619740074027","trial","","40","500","1062.3300000005402","images/stimuli/spore_stims/complex_12_A_b.gif","images/stimuli/spore_stims/complex_20_A_a.gif","forced_short","","7","complex_dissimilar","images/stimuli/spore_stims/complex_20_A_a.gif","","","","",""
"","null","html-keyboard-response","90","1076875","0.0-23.0-0.1","SS1619740074027","","","null","","","","","","<p><img src= images/blank.png width =""600"" height = ""600"" style=""position:fixed;top:50%; left:50%; transform: translate(-50%, -50%); border:5px solid black"">","","","","","","","",""
"","5501.970000000205","sequential-stimulus-presentation-old","91","1082880","0.0-23.0-1.1","SS1619740074027","trial","","40","500","6001.970000000205","images/stimuli/spore_stims/complex_12_A_b.gif","images/stimuli/spore_stims/complex_20_A_a.gif","forced_short","","7","complex_dissimilar","images/stimuli/spore_stims/complex_20_A_a.gif","","","","",""
"","null","html-keyboard-response","92","1083735","0.0-23.0-0.2","SS1619740074027","","","null","","","","","","<p><img src= images/blank.png width =""600"" height = ""600"" style=""position:fixed;top:50%; left:50%; transform: translate(-50%, -50%); border:5px solid black"">","","","","","","","",""
"","2161.16999999946","sequential-stimulus-presentation-old","93","1086400","0.0-23.0-1.2","SS1619740074027","trial","","40","500","2661.16999999946","images/stimuli/spore_stims/complex_12_A_b.gif","images/stimuli/spore_stims/complex_20_A_a.gif","forced_short","","7","complex_dissimilar","images/stimuli/spore_stims/complex_12_A_b.gif","","","","",""
"","null","html-keyboard-response","94","1087693","0.0-23.0-0.3","SS1619740074027","","","null","","","","","","<p><img src= images/blank.png width =""600"" height = ""600"" style=""position:fixed;top:50%; left:50%; transform: translate(-50%, -50%); border:5px solid black"">","","","","","","","",""
"","3836.0699999993667","sequential-stimulus-presentation-old","95","1092033","0.0-23.0-1.3","SS1619740074027","trial","","40","500","4336.069999999367","images/stimuli/spore_stims/complex_12_A_b.gif","images/stimuli/spore_stims/complex_20_A_a.gif","forced_short","","7","complex_dissimilar","images/stimuli/spore_stims/complex_20_A_a.gif","","","","",""
"","null","html-keyboard-response","96","1093037","0.0-23.0-0.4","SS1619740074027","","","null","","","","","","<p><img src= images/blank.png width =""600"" height = ""600"" style=""position:fixed;top:50%; left:50%; transform: translate(-50%, -50%); border:5px solid black"">","","","","","","","",""
"","34109.47000000044","sequential-stimulus-presentation-old","97","1127650","0.0-23.0-1.4","SS1619740074027","trial","","40","500","34609.47000000044","images/stimuli/spore_stims/complex_12_A_b.gif","images/stimuli/spore_stims/complex_20_A_a.gif","forced_short","","7","complex_dissimilar","images/stimuli/spore_stims/complex_12_A_b.gif","","","","",""
"","null","html-keyboard-response","98","1128895","0.0-23.0-0.5","SS1619740074027","","","null","","","","","","<p><img src= images/blank.png width =""600"" height = ""600"" style=""position:fixed;top:50%; left:50%; transform: translate(-50%, -50%); border:5px solid black"">","","","","","","","",""
"","3818.875","sequential-stimulus-presentation-old","99","1133218","0.0-23.0-1.5","SS1619740074027","trial","","40","500","4318.875","images/stimuli/spore_stims/complex_12_A_b.gif","images/stimuli/spore_stims/complex_20_A_a.gif","forced_short","","7","complex_dissimilar","images/stimuli/spore_stims/complex_20_A_a.gif","","","","",""
"","7013.810000000289","survey-multi-choice","100","1140234","0.0-24.0","SS1619740074027","math_question","","","","","","","","","","","","{""Q0"":""12""}","[0]","12","",""
"","null","html-keyboard-response","101","1141170","0.0-25.0-0.0","SS1619740074027","","","null","","","","","","<p><img src= images/blank.png width =""600"" height = ""600"" style=""position:fixed;top:50%; left:50%; transform: translate(-50%, -50%); border:5px solid black"">","","","","","","","",""
"","13086.545000000158","sequential-stimulus-presentation-old","102","1169260","0.0-25.0-1.0","SS1619740074027","trial","","40","500","13586.545000000158","images/stimuli/spore_stims/complex_11_A_a.gif","images/stimuli/spore_stims/complex_16_A_b.gif","forced_long","","8","complex_dissimilar","images/stimuli/spore_stims/complex_16_A_b.gif","","","","",""
"","null","html-keyboard-response","103","1170105","0.0-25.0-0.1","SS1619740074027","","","null","","","","","","<p><img src= images/blank.png width =""600"" height = ""600"" style=""position:fixed;top:50%; left:50%; transform: translate(-50%, -50%); border:5px solid black"">","","","","","","","",""
"","13144.970000000438","sequential-stimulus-presentation-old","104","1183756","0.0-25.0-1.1","SS1619740074027","trial","","40","500","13644.970000000438","images/stimuli/spore_stims/complex_11_A_a.gif","images/stimuli/spore_stims/complex_16_A_b.gif","forced_long","","8","complex_dissimilar","images/stimuli/spore_stims/complex_11_A_a.gif","","","","",""
"","null","html-keyboard-response","105","1185056","0.0-25.0-0.2","SS1619740074027","","","null","","","","","","<p><img src= images/blank.png width =""600"" height = ""600"" style=""position:fixed;top:50%; left:50%; transform: translate(-50%, -50%); border:5px solid black"">","","","","","","","",""
"","203.1950000000652","sequential-stimulus-presentation-old","106","1185763","0.0-25.0-1.2","SS1619740074027","trial","","40","500","703.1950000000652","images/stimuli/spore_stims/complex_11_A_a.gif","images/stimuli/spore_stims/complex_16_A_b.gif","forced_long","","8","complex_dissimilar","images/stimuli/spore_stims/complex_11_A_a.gif","","","","",""
"","null","html-keyboard-response","107","1186799","0.0-25.0-0.3","SS1619740074027","","","null","","","","","","<p><img src= images/blank.png width =""600"" height = ""600"" style=""position:fixed;top:50%; left:50%; transform: translate(-50%, -50%); border:5px solid black"">","","","","","","","",""
"","4.855000000214204","sequential-stimulus-presentation-old","108","1187307","0.0-25.0-1.3","SS1619740074027","trial","","40","500","504.8550000002142","images/stimuli/spore_stims/complex_11_A_a.gif","images/stimuli/spore_stims/complex_16_A_b.gif","forced_long","","8","complex_dissimilar","images/stimuli/spore_stims/complex_16_A_b.gif","","","","",""
"","null","html-keyboard-response","109","1188573","0.0-25.0-0.4","SS1619740074027","","","null","","","","","","<p><img src= images/blank.png width =""600"" height = ""600"" style=""position:fixed;top:50%; left:50%; transform: translate(-50%, -50%); border:5px solid black"">","","","","","","","",""
"","3319.3499999996275","sequential-stimulus-presentation-old","110","1192397","0.0-25.0-1.4","SS1619740074027","trial","","40","500","3819.3499999996275","images/stimuli/spore_stims/complex_11_A_a.gif","images/stimuli/spore_stims/complex_16_A_b.gif","forced_long","","8","complex_dissimilar","images/stimuli/spore_stims/complex_16_A_b.gif","","","","",""
"","null","html-keyboard-response","111","1193511","0.0-25.0-0.5","SS1619740074027","","","null","","","","","","<p><img src= images/blank.png width =""600"" height = ""600"" style=""position:fixed;top:50%; left:50%; transform: translate(-50%, -50%); border:5px solid black"">","","","","","","","",""
"","309.1750000002794","sequential-stimulus-presentation-old","112","1194324","0.0-25.0-1.5","SS1619740074027","trial","","40","500","809.1750000002794","images/stimuli/spore_stims/complex_11_A_a.gif","images/stimuli/spore_stims/complex_16_A_b.gif","forced_long","","8","complex_dissimilar","images/stimuli/spore_stims/complex_16_A_b.gif","","","","",""
"","2358.0499999998137","survey-multi-choice","113","1196684","0.0-26.0","SS1619740074027","math_question","","","","","","","","","","","","{""Q0"":""4""}","[0]","4","",""
"","null","html-keyboard-response","114","1197889","0.0-27.0-0.0","SS1619740074027","","","null","","","","","","<p><img src= images/blank.png width =""600"" height = ""600"" style=""position:fixed;top:50%; left:50%; transform: translate(-50%, -50%); border:5px solid black"">","","","","","","","",""
"","29853.704999999376","sequential-stimulus-presentation-old","115","1228246","0.0-27.0-1.0","SS1619740074027","trial","","40","500","30353.704999999376","images/stimuli/spore_stims/simple_05_A_a.gif","images/stimuli/spore_stims/simple_11_A_b.gif","forced_short","","9","simple_dissimilar","images/stimuli/spore_stims/simple_11_A_b.gif","","","","",""
"","null","html-keyboard-response","116","1229482","0.0-27.0-0.1","SS1619740074027","","","null","","","","","","<p><img src= images/blank.png width =""600"" height = ""600"" style=""position:fixed;top:50%; left:50%; transform: translate(-50%, -50%); border:5px solid black"">","","","","","","","",""
"","36069.4850000001","sequential-stimulus-presentation-old","117","1266055","0.0-27.0-1.1","SS1619740074027","trial","","40","500","36569.4850000001","images/stimuli/spore_stims/simple_05_A_a.gif","images/stimuli/spore_stims/simple_11_A_b.gif","forced_short","","9","simple_dissimilar","images/stimuli/spore_stims/simple_05_A_a.gif","","","","",""
"","null","html-keyboard-response","118","1267171","0.0-27.0-0.2","SS1619740074027","","","null","","","","","","<p><img src= images/blank.png width =""600"" height = ""600"" style=""position:fixed;top:50%; left:50%; transform: translate(-50%, -50%); border:5px solid black"">","","","","","","","",""
"","12845.610000000335","sequential-stimulus-presentation-old","119","1280520","0.0-27.0-1.2","SS1619740074027","trial","","40","500","13345.610000000335","images/stimuli/spore_stims/simple_05_A_a.gif","images/stimuli/spore_stims/simple_11_A_b.gif","forced_short","","9","simple_dissimilar","images/stimuli/spore_stims/simple_11_A_b.gif","","","","",""
"","null","html-keyboard-response","120","1281632","0.0-27.0-0.3","SS1619740074027","","","null","","","","","","<p><img src= images/blank.png width =""600"" height = ""600"" style=""position:fixed;top:50%; left:50%; transform: translate(-50%, -50%); border:5px solid black"">","","","","","","","",""
"","46784.88500000001","sequential-stimulus-presentation-old","121","1328921","0.0-27.0-1.3","SS1619740074027","trial","","40","500","47284.88500000001","images/stimuli/spore_stims/simple_05_A_a.gif","images/stimuli/spore_stims/simple_11_A_b.gif","forced_short","","9","simple_dissimilar","images/stimuli/spore_stims/simple_11_A_b.gif","","","","",""
"","null","html-keyboard-response","122","1329821","0.0-27.0-0.4","SS1619740074027","","","null","","","","","","<p><img src= images/blank.png width =""600"" height = ""600"" style=""position:fixed;top:50%; left:50%; transform: translate(-50%, -50%); border:5px solid black"">","","","","","","","",""
"","24148.190000000875","sequential-stimulus-presentation-old","123","1354474","0.0-27.0-1.4","SS1619740074027","trial","","40","500","24648.190000000875","images/stimuli/spore_stims/simple_05_A_a.gif","images/stimuli/spore_stims/simple_11_A_b.gif","forced_short","","9","simple_dissimilar","images/stimuli/spore_stims/simple_11_A_b.gif","","","","",""
"","null","html-keyboard-response","124","1355765","0.0-27.0-0.5","SS1619740074027","","","null","","","","","","<p><img src= images/blank.png width =""600"" height = ""600"" style=""position:fixed;top:50%; left:50%; transform: translate(-50%, -50%); border:5px solid black"">","","","","","","","",""
"","10612.834999999963","sequential-stimulus-presentation-old","125","1366882","0.0-27.0-1.5","SS1619740074027","trial","","40","500","11112.834999999963","images/stimuli/spore_stims/simple_05_A_a.gif","images/stimuli/spore_stims/simple_11_A_b.gif","forced_short","","9","simple_dissimilar","images/stimuli/spore_stims/simple_11_A_b.gif","","","","",""
"","2957.8000000000466","survey-multi-choice","126","1369843","0.0-28.0","SS1619740074027","math_question","","","","","","","","","","","","{""Q0"":""8""}","[0]","8","",""
"","null","html-keyboard-response","127","1370662","0.0-29.0-0.0","SS1619740074027","","","null","","","","","","<p><img src= images/blank.png width =""600"" height = ""600"" style=""position:fixed;top:50%; left:50%; transform: translate(-50%, -50%); border:5px solid black"">","","","","","","","",""
"","41525.534999999916","sequential-stimulus-presentation-old","128","1412692","0.0-29.0-1.0","SS1619740074027","trial","","40","500","42025.534999999916","images/stimuli/spore_stims/simple_20_A_a.gif","images/stimuli/spore_stims/simple_03_A_b.gif","self_paced","","10","simple_dissimilar","images/stimuli/spore_stims/simple_03_A_b.gif","","","","",""
"","null","html-keyboard-response","129","1413757","0.0-29.0-0.1","SS1619740074027","","","null","","","","","","<p><img src= images/blank.png width =""600"" height = ""600"" style=""position:fixed;top:50%; left:50%; transform: translate(-50%, -50%); border:5px solid black"">","","","","","","","",""
"","28832.725000000326","sequential-stimulus-presentation-old","130","1443094","0.0-29.0-1.1","SS1619740074027","trial","","40","500","29332.725000000326","images/stimuli/spore_stims/simple_20_A_a.gif","images/stimuli/spore_stims/simple_03_A_b.gif","self_paced","","10","simple_dissimilar","images/stimuli/spore_stims/simple_20_A_a.gif","","","","",""
"","null","html-keyboard-response","131","1443991","0.0-29.0-0.2","SS1619740074027","","","null","","","","","","<p><img src= images/blank.png width =""600"" height = ""600"" style=""position:fixed;top:50%; left:50%; transform: translate(-50%, -50%); border:5px solid black"">","","","","","","","",""
"","34632.5699999996","sequential-stimulus-presentation-old","132","1479128","0.0-29.0-1.2","SS1619740074027","trial","","40","500","35132.5699999996","images/stimuli/spore_stims/simple_20_A_a.gif","images/stimuli/spore_stims/simple_03_A_b.gif","self_paced","","10","simple_dissimilar","images/stimuli/spore_stims/simple_03_A_b.gif","","","","",""
"","null","html-keyboard-response","133","1480181","0.0-29.0-0.3","SS1619740074027","","","null","","","","","","<p><img src= images/blank.png width =""600"" height = ""600"" style=""position:fixed;top:50%; left:50%; transform: translate(-50%, -50%); border:5px solid black"">","","","","","","","",""
"","30099.75499999919","sequential-stimulus-presentation-old","134","1510785","0.0-29.0-1.3","SS1619740074027","trial","","40","500","30599.75499999919","images/stimuli/spore_stims/simple_20_A_a.gif","images/stimuli/spore_stims/simple_03_A_b.gif","self_paced","","10","simple_dissimilar","images/stimuli/spore_stims/simple_03_A_b.gif","","","","",""
"","null","html-keyboard-response","135","1511873","0.0-29.0-0.4","SS1619740074027","","","null","","","","","","<p><img src= images/blank.png width =""600"" height = ""600"" style=""position:fixed;top:50%; left:50%; transform: translate(-50%, -50%); border:5px solid black"">","","","","","","","",""
"","109.69999999995343","sequential-stimulus-presentation-old","136","1512488","0.0-29.0-1.4","SS1619740074027","trial","","40","500","609.6999999999534","images/stimuli/spore_stims/simple_20_A_a.gif","images/stimuli/spore_stims/simple_03_A_b.gif","self_paced","","10","simple_dissimilar","images/stimuli/spore_stims/simple_03_A_b.gif","","","","",""
"","null","html-keyboard-response","137","1513565","0.0-29.0-0.5","SS1619740074027","","","null","","","","","","<p><img src= images/blank.png width =""600"" height = ""600"" style=""position:fixed;top:50%; left:50%; transform: translate(-50%, -50%); border:5px solid black"">","","","","","","","",""
"","45853.61499999999","sequential-stimulus-presentation-old","138","1559922","0.0-29.0-1.5","SS1619740074027","trial","","40","500","46353.61499999999","images/stimuli/spore_stims/simple_20_A_a.gif","images/stimuli/spore_stims/simple_03_A_b.gif","self_paced","","10","simple_dissimilar","images/stimuli/spore_stims/simple_03_A_b.gif","","","","",""
"","2732.6949999995995","survey-multi-choice","139","1562659","0.0-30.0","SS1619740074027","math_question","","","","","","","","","","","","{""Q0"":""5""}","[0]","5","",""
"","null","html-keyboard-response","140","1563656","0.0-31.0-0.0","SS1619740074027","","","null","","","","","","<p><img src= images/blank.png width =""600"" height = ""600"" style=""position:fixed;top:50%; left:50%; transform: translate(-50%, -50%); border:5px solid black"">","","","","","","","",""
"","454.15500000026077","sequential-stimulus-presentation-old","141","1579115","0.0-31.0-1.0","SS1619740074027","trial","","40","500","954.1550000002608","images/stimuli/spore_stims/simple_14_A_b.gif","images/stimuli/spore_stims/simple_11_A_a.gif","forced_long","","11","simple_dissimilar","images/stimuli/spore_stims/simple_11_A_a.gif","","","","",""
"","null","html-keyboard-response","142","1580408","0.0-31.0-0.1","SS1619740074027","","","null","","","","","","<p><img src= images/blank.png width =""600"" height = ""600"" style=""position:fixed;top:50%; left:50%; transform: translate(-50%, -50%); border:5px solid black"">","","","","","","","",""
"","1801.0950000006706","sequential-stimulus-presentation-old","143","1582715","0.0-31.0-1.1","SS1619740074027","trial","","40","500","2301.0950000006706","images/stimuli/spore_stims/simple_14_A_b.gif","images/stimuli/spore_stims/simple_11_A_a.gif","forced_long","","11","simple_dissimilar","images/stimuli/spore_stims/simple_11_A_a.gif","","","","",""
"","null","html-keyboard-response","144","1583809","0.0-31.0-0.2","SS1619740074027","","","null","","","","","","<p><img src= images/blank.png width =""600"" height = ""600"" style=""position:fixed;top:50%; left:50%; transform: translate(-50%, -50%); border:5px solid black"">","","","","","","","",""
"","1201.519999999553","sequential-stimulus-presentation-old","145","1585515","0.0-31.0-1.2","SS1619740074027","trial","","40","500","1701.519999999553","images/stimuli/spore_stims/simple_14_A_b.gif","images/stimuli/spore_stims/simple_11_A_a.gif","forced_long","","11","simple_dissimilar","images/stimuli/spore_stims/simple_11_A_a.gif","","","","",""
"","null","html-keyboard-response","146","1586666","0.0-31.0-0.3","SS1619740074027","","","null","","","","","","<p><img src= images/blank.png width =""600"" height = ""600"" style=""position:fixed;top:50%; left:50%; transform: translate(-50%, -50%); border:5px solid black"">","","","","","","","",""
"","41.08999999961816","sequential-stimulus-presentation-old","147","1587211","0.0-31.0-1.3","SS1619740074027","trial","","40","500","541.0899999996182","images/stimuli/spore_stims/simple_14_A_b.gif","images/stimuli/spore_stims/simple_11_A_a.gif","forced_long","","11","simple_dissimilar","images/stimuli/spore_stims/simple_11_A_a.gif","","","","",""
"[{""page_index"":0,""viewing_time"":6477.87000000081}]","6478.20500000054","instructions","148","1593692","0.0-32.0","SS1619740074027","instructions","","","","","","","","","","","","","","","",""
"","19484.829999999376","survey-likert","149","1613181","0.0-33.0","SS1619740074027","similarity_question","","","","","","","","","","","","{""Q0"":4}","[0]","","images/stimuli/spore_stims/complex_17_A_a.gif","images/stimuli/spore_stims/complex_01_A_b.gif"
"","2912.9050000002608","survey-likert","150","1616101","0.0-34.0","SS1619740074027","similarity_question","","","","","","","","","","","","{""Q0"":4}","[0]","","images/stimuli/spore_stims/complex_09_A_b.gif","images/stimuli/spore_stims/complex_02_A_a.gif"
"","3592.314999999944","survey-likert","151","1619701","0.0-35.0","SS1619740074027","similarity_question","","","","","","","","","","","","{""Q0"":6}","[0]","","images/stimuli/spore_stims/simple_14_A_b.gif","images/stimuli/spore_stims/simple_11_A_a.gif"
"","4065.0550000001676","survey-likert","152","1623774","0.0-36.0","SS1619740074027","similarity_question","","","","","","","","","","","","{""Q0"":0}","[0]","","images/stimuli/spore_stims/simple_06_A_b.gif","images/stimuli/spore_stims/simple_18_A_a.gif"
"","2655.515000000363","survey-likert","153","1626437","0.0-37.0","SS1619740074027","similarity_question","","","","","","","","","","","","{""Q0"":4}","[0]","","images/stimuli/spore_stims/simple_05_A_a.gif","images/stimuli/spore_stims/simple_11_A_b.gif"
"","3457.940000000177","survey-likert","154","1629902","0.0-38.0","SS1619740074027","similarity_question","","","","","","","","","","","","{""Q0"":0}","[0]","","images/stimuli/spore_stims/simple_10_A_a.gif","images/stimuli/spore_stims/simple_18_A_b.gif"
"","5080.520000000484","survey-likert","155","1634990","0.0-39.0","SS1619740074027","similarity_question","","","","","","","","","","","","{""Q0"":3}","[0]","","images/stimuli/spore_stims/complex_14_A_a.gif","images/stimuli/spore_stims/complex_07_A_b.gif"
"","3112.619999999879","survey-likert","156","1638110","0.0-40.0","SS1619740074027","similarity_question","","","","","","","","","","","","{""Q0"":1}","[0]","","images/stimuli/spore_stims/complex_20_A_a.gif","images/stimuli/spore_stims/complex_12_A_b.gif"
"","2552.829999999609","survey-likert","157","1640671","0.0-41.0","SS1619740074027","similarity_question","","","","","","","","","","","","{""Q0"":5}","[0]","","images/stimuli/spore_stims/simple_19_A_b.gif","images/stimuli/spore_stims/simple_13_A_a.gif"
"","2601.3549999997485","survey-likert","158","1643279","0.0-42.0","SS1619740074027","similarity_question","","","","","","","","","","","","{""Q0"":6}","[0]","","images/stimuli/spore_stims/simple_03_A_b.gif","images/stimuli/spore_stims/simple_20_A_a.gif"
"","3800.1649999995716","survey-likert","159","1647086","0.0-43.0","SS1619740074027","similarity_question","","","","","","","","","","","","{""Q0"":5}","[0]","","images/stimuli/spore_stims/complex_10_A_a.gif","images/stimuli/spore_stims/complex_14_A_b.gif"
"","5945.939999999711","survey-likert","160","1653039","0.0-44.0","SS1619740074027","similarity_question","","","","","","","","","","","","{""Q0"":2}","[0]","","images/stimuli/spore_stims/complex_16_A_b.gif","images/stimuli/spore_stims/complex_11_A_a.gif"
"[{""page_index"":0,""viewing_time"":1656.1899999994785}]","1656.4099999994505","instructions","161","1654702","0.0-45.0","SS1619740074027","instructions","","","","","","","","","","","","","","","",""
"","3133.0049999996554","survey-likert","162","1657839","0.0-46.0","SS1619740074027","","","","","","","","","images/stimuli/spore_stims/simple_18_A_a.gif","","","","{""Q0"":0}","[0]","","",""
"","2729.3499999996275","survey-likert","163","1660576","0.0-47.0","SS1619740074027","","","","","","","","","images/stimuli/spore_stims/complex_14_A_a.gif","","","","{""Q0"":4}","[0]","","",""
"","2264.265000000829","survey-likert","164","1662847","0.0-48.0","SS1619740074027","","","","","","","","","images/stimuli/spore_stims/complex_14_A_b.gif","","","","{""Q0"":4}","[0]","","",""
"","5336.979999999981","survey-likert","165","1668192","0.0-49.0","SS1619740074027","","","","","","","","","images/stimuli/spore_stims/complex_11_A_a.gif","","","","{""Q0"":6}","[0]","","",""
"","2407.8349999999627","survey-likert","166","1670608","0.0-50.0","SS1619740074027","","","","","","","","","images/stimuli/spore_stims/simple_14_A_b.gif","","","","{""Q0"":0}","[0]","","",""
"","2080.0850000006612","survey-likert","167","1672695","0.0-51.0","SS1619740074027","","","","","","","","","images/stimuli/spore_stims/simple_10_A_a.gif","","","","{""Q0"":0}","[0]","","",""
"","1592.8050000004005","survey-likert","168","1674296","0.0-52.0","SS1619740074027","","","","","","","","","images/stimuli/spore_stims/simple_19_A_b.gif","","","","{""Q0"":0}","[0]","","",""
"","1409.1949999993667","survey-likert","169","1675712","0.0-53.0","SS1619740074027","","","","","","","","","images/stimuli/spore_stims/simple_05_A_a.gif","","","","{""Q0"":0}","[0]","","",""
"","2744.314999999944","survey-likert","170","1678463","0.0-54.0","SS1619740074027","","","","","","","","","images/stimuli/spore_stims/complex_02_A_a.gif","","","","{""Q0"":5}","[0]","","",""
"","1776.3499999991618","survey-likert","171","1680247","0.0-55.0","SS1619740074027","","","","","","","","","images/stimuli/spore_stims/complex_12_A_b.gif","","","","{""Q0"":6}","[0]","","",""
"","3041.3250000001863","survey-likert","172","1683295","0.0-56.0","SS1619740074027","","","","","","","","","images/stimuli/spore_stims/simple_03_A_b.gif","","","","{""Q0"":0}","[0]","","",""
"","4281.364999999758","survey-likert","173","1687584","0.0-57.0","SS1619740074027","","","","","","","","","images/stimuli/spore_stims/complex_01_A_b.gif","","","","{""Q0"":3}","[0]","","",""
"[{""page_index"":0,""viewing_time"":1113.0800000000745}]","1113.4350000000559","instructions","174","1688704","0.0-58.0","SS1619740074027","instructions","","","","","","","","","","","","","","","",""
"","2794.734999999637","demog-age","175","1691504","0.0-59.0","SS1619740074027","","","","","","","","","","","","","{""age"":""27""}","","","",""
"","2402.7800000002608","demog-ethnic-US","176","1693913","0.0-60.0","SS1619740074027","","","","","","","","","","","","","{""ethnicity"":[""Hispanic or Latino""]}","[0]","","",""
"","9928.614999999758","demog-gender-and-education","177","1703849","0.0-61.0","SS1619740074027","","","","","","","","","","","","","{""gender"":""Male"",""education"":""Associate Degree/Technical certification""}","[0,1]","","",""
"","8911.215000000084","survey-text","178","1712770","0.0-62.0","SS1619740074027","feedback","","","","","","","","","","","","{""Q0"":""No""}","","","",""
"[{""page_index"":0,""viewing_time"":2428.214999999851}]","2428.5749999999534","instructions","179","1715202","0.0-63.0","SS1619740074027","instructions","","","","","","","","","","","","","","","",""
