"view_history","rt","trial_type","trial_index","time_elapsed","internal_node_id","subject","stimulus_type","trial_stimulus","key_press","minimum_viewing_duration","trial_looking_time","block_deviant","block_background","exposure_type","stimulus","block_number","block_type","stimulus_displayed","responses","question_order","math_correct_answer","stimulus_left","stimulus_right"
"[{""page_index"":0,""viewing_time"":27043.395000044256}]","27046.085000038147","instructions","0","27055","0.0-0.0","SS1619739442485","","","","","","","","","","","","","","","","",""
"[{""page_index"":0,""viewing_time"":19811.374999932013},{""page_index"":1,""viewing_time"":8845.050000003539}]","28657.249999931082","instructions","1","57723","0.0-1.0","SS1619739442485","instructions","","","","","","","","","","","","","","","",""
"","9748.15999995917","sequential-stimulus-presentation-old","2","67989","0.0-2.0","SS1619739442485","","","40","500","10248.15999995917","null","null","self_paced","","","","","","","","",""
"","12775.04500001669","sequential-stimulus-presentation-old","3","81277","0.0-3.0","SS1619739442485","","","40","500","13275.04500001669","null","null","self_paced","","","","","","","","",""
"[{""page_index"":0,""viewing_time"":22958.134999964386}]","22959.069999982603","instructions","4","104243","0.0-4.0","SS1619739442485","instructions","","","","","","","","","","","","","","","",""
"","6267.055000062101","sequential-stimulus-presentation-old","5","125524","0.0-5.0","SS1619739442485","","","40","500","6767.055000062101","null","null","forced_long","","","","","","","","",""
"","5521.695000003092","sequential-stimulus-presentation-old","6","131562","0.0-6.0","SS1619739442485","","","40","500","6021.695000003092","null","null","forced_long","","","","","","","","",""
"[{""page_index"":0,""viewing_time"":4831.714999978431}]","4832.564999931492","instructions","7","136402","0.0-7.0","SS1619739442485","instructions","","","","","","","","","","","","","","","",""
"[{""page_index"":0,""viewing_time"":16851.175000076182},{""page_index"":1,""viewing_time"":24497.634999919683},{""page_index"":2,""viewing_time"":6676.674999995157},{""page_index"":3,""viewing_time"":2989.3200000515208},{""page_index"":4,""viewing_time"":3205.3150000283495}]","54221.10500000417","instructions","8","190627","0.0-8.0","SS1619739442485","instructions","","","","","","","","","","","","","","","",""
"","null","html-keyboard-response","9","191477","0.0-9.0-0.0","SS1619739442485","","","null","","","","","","<p><img src= images/blank.png width =""600"" height = ""600"" style=""position:fixed;top:50%; left:50%; transform: translate(-50%, -50%); border:5px solid black"">","","","","","","","",""
"","8818.630000110716","sequential-stimulus-presentation-old","10","200824","0.0-9.0-1.0","SS1619739442485","trial","","40","500","9318.630000110716","images/stimuli/spore_stims/simple_13_A_b.gif","images/stimuli/spore_stims/simple_17_A_a.gif","self_paced","","0","simple_dissimilar","images/stimuli/spore_stims/simple_17_A_a.gif","","","","",""
"","null","html-keyboard-response","11","201801","0.0-9.0-0.1","SS1619739442485","","","null","","","","","","<p><img src= images/blank.png width =""600"" height = ""600"" style=""position:fixed;top:50%; left:50%; transform: translate(-50%, -50%); border:5px solid black"">","","","","","","","",""
"","9878.550000023097","sequential-stimulus-presentation-old","12","212211","0.0-9.0-1.1","SS1619739442485","trial","","40","500","10378.550000023097","images/stimuli/spore_stims/simple_13_A_b.gif","images/stimuli/spore_stims/simple_17_A_a.gif","self_paced","","0","simple_dissimilar","images/stimuli/spore_stims/simple_17_A_a.gif","","","","",""
"","null","html-keyboard-response","13","213356","0.0-9.0-0.2","SS1619739442485","","","null","","","","","","<p><img src= images/blank.png width =""600"" height = ""600"" style=""position:fixed;top:50%; left:50%; transform: translate(-50%, -50%); border:5px solid black"">","","","","","","","",""
"","14715.545000042766","sequential-stimulus-presentation-old","14","228600","0.0-9.0-1.2","SS1619739442485","trial","","40","500","15215.545000042766","images/stimuli/spore_stims/simple_13_A_b.gif","images/stimuli/spore_stims/simple_17_A_a.gif","self_paced","","0","simple_dissimilar","images/stimuli/spore_stims/simple_17_A_a.gif","","","","",""
"","null","html-keyboard-response","15","229904","0.0-9.0-0.3","SS1619739442485","","","null","","","","","","<p><img src= images/blank.png width =""600"" height = ""600"" style=""position:fixed;top:50%; left:50%; transform: translate(-50%, -50%); border:5px solid black"">","","","","","","","",""
"","11807.845000061207","sequential-stimulus-presentation-old","16","242244","0.0-9.0-1.3","SS1619739442485","trial","","40","500","12307.845000061207","images/stimuli/spore_stims/simple_13_A_b.gif","images/stimuli/spore_stims/simple_17_A_a.gif","self_paced","","0","simple_dissimilar","images/stimuli/spore_stims/simple_17_A_a.gif","","","","",""
"","null","html-keyboard-response","17","243290","0.0-9.0-0.4","SS1619739442485","","","null","","","","","","<p><img src= images/blank.png width =""600"" height = ""600"" style=""position:fixed;top:50%; left:50%; transform: translate(-50%, -50%); border:5px solid black"">","","","","","","","",""
"","9054.015000001527","sequential-stimulus-presentation-old","18","252871","0.0-9.0-1.4","SS1619739442485","trial","","40","500","9554.015000001527","images/stimuli/spore_stims/simple_13_A_b.gif","images/stimuli/spore_stims/simple_17_A_a.gif","self_paced","","0","simple_dissimilar","images/stimuli/spore_stims/simple_17_A_a.gif","","","","",""
"","4500.344999949448","survey-multi-choice","19","257400","0.0-10.0","SS1619739442485","math_question","","","","","","","","","","","","{""Q0"":""10""}","[0]","10","",""
"","null","html-keyboard-response","20","258690","0.0-11.0-0.0","SS1619739442485","","","null","","","","","","<p><img src= images/blank.png width =""600"" height = ""600"" style=""position:fixed;top:50%; left:50%; transform: translate(-50%, -50%); border:5px solid black"">","","","","","","","",""
"","7867.194999940693","sequential-stimulus-presentation-old","21","267101","0.0-11.0-1.0","SS1619739442485","trial","","40","500","8367.194999940693","images/stimuli/spore_stims/simple_13_A_a.gif","images/stimuli/spore_stims/simple_07_A_b.gif","self_paced","","1","simple_dissimilar","images/stimuli/spore_stims/simple_07_A_b.gif","","","","",""
"","null","html-keyboard-response","22","268400","0.0-11.0-0.1","SS1619739442485","","","null","","","","","","<p><img src= images/blank.png width =""600"" height = ""600"" style=""position:fixed;top:50%; left:50%; transform: translate(-50%, -50%); border:5px solid black"">","","","","","","","",""
"","6950.040000025183","sequential-stimulus-presentation-old","23","275878","0.0-11.0-1.1","SS1619739442485","trial","","40","500","7450.040000025183","images/stimuli/spore_stims/simple_13_A_a.gif","images/stimuli/spore_stims/simple_07_A_b.gif","self_paced","","1","simple_dissimilar","images/stimuli/spore_stims/simple_07_A_b.gif","","","","",""
"","null","html-keyboard-response","24","276909","0.0-11.0-0.2","SS1619739442485","","","null","","","","","","<p><img src= images/blank.png width =""600"" height = ""600"" style=""position:fixed;top:50%; left:50%; transform: translate(-50%, -50%); border:5px solid black"">","","","","","","","",""
"","5186.929999967106","sequential-stimulus-presentation-old","25","282630","0.0-11.0-1.2","SS1619739442485","trial","","40","500","5686.929999967106","images/stimuli/spore_stims/simple_13_A_a.gif","images/stimuli/spore_stims/simple_07_A_b.gif","self_paced","","1","simple_dissimilar","images/stimuli/spore_stims/simple_07_A_b.gif","","","","",""
"","null","html-keyboard-response","26","283606","0.0-11.0-0.3","SS1619739442485","","","null","","","","","","<p><img src= images/blank.png width =""600"" height = ""600"" style=""position:fixed;top:50%; left:50%; transform: translate(-50%, -50%); border:5px solid black"">","","","","","","","",""
"","5970.695000025444","sequential-stimulus-presentation-old","27","290102","0.0-11.0-1.3","SS1619739442485","trial","","40","500","6470.695000025444","images/stimuli/spore_stims/simple_13_A_a.gif","images/stimuli/spore_stims/simple_07_A_b.gif","self_paced","","1","simple_dissimilar","images/stimuli/spore_stims/simple_07_A_b.gif","","","","",""
"","null","html-keyboard-response","28","290975","0.0-11.0-0.4","SS1619739442485","","","null","","","","","","<p><img src= images/blank.png width =""600"" height = ""600"" style=""position:fixed;top:50%; left:50%; transform: translate(-50%, -50%); border:5px solid black"">","","","","","","","",""
"","13868.52000001818","sequential-stimulus-presentation-old","29","305368","0.0-11.0-1.4","SS1619739442485","trial","","40","500","14368.52000001818","images/stimuli/spore_stims/simple_13_A_a.gif","images/stimuli/spore_stims/simple_07_A_b.gif","self_paced","","1","simple_dissimilar","images/stimuli/spore_stims/simple_07_A_b.gif","","","","",""
"","3754.9299999373034","survey-multi-choice","30","309139","0.0-12.0","SS1619739442485","math_question","","","","","","","","","","","","{""Q0"":""2""}","[0]","2","",""
"","null","html-keyboard-response","31","310412","0.0-13.0-0.0","SS1619739442485","","","null","","","","","","<p><img src= images/blank.png width =""600"" height = ""600"" style=""position:fixed;top:50%; left:50%; transform: translate(-50%, -50%); border:5px solid black"">","","","","","","","",""
"","3017.9549999302253","sequential-stimulus-presentation-old","32","313968","0.0-13.0-1.0","SS1619739442485","trial","","40","500","3517.9549999302253","images/stimuli/spore_stims/complex_08_A_a.gif","images/stimuli/spore_stims/complex_10_A_b.gif","forced_short","","2","complex_dissimilar","images/stimuli/spore_stims/complex_10_A_b.gif","","","","",""
"","null","html-keyboard-response","33","315190","0.0-13.0-0.1","SS1619739442485","","","null","","","","","","<p><img src= images/blank.png width =""600"" height = ""600"" style=""position:fixed;top:50%; left:50%; transform: translate(-50%, -50%); border:5px solid black"">","","","","","","","",""
"","9384.704999974929","sequential-stimulus-presentation-old","34","325100","0.0-13.0-1.1","SS1619739442485","trial","","40","500","9884.704999974929","images/stimuli/spore_stims/complex_08_A_a.gif","images/stimuli/spore_stims/complex_10_A_b.gif","forced_short","","2","complex_dissimilar","images/stimuli/spore_stims/complex_10_A_b.gif","","","","",""
"","null","html-keyboard-response","35","326300","0.0-13.0-0.2","SS1619739442485","","","null","","","","","","<p><img src= images/blank.png width =""600"" height = ""600"" style=""position:fixed;top:50%; left:50%; transform: translate(-50%, -50%); border:5px solid black"">","","","","","","","",""
"","16962.49499998521","sequential-stimulus-presentation-old","36","343792","0.0-13.0-1.2","SS1619739442485","trial","","40","500","17462.49499998521","images/stimuli/spore_stims/complex_08_A_a.gif","images/stimuli/spore_stims/complex_10_A_b.gif","forced_short","","2","complex_dissimilar","images/stimuli/spore_stims/complex_10_A_b.gif","","","","",""
"","null","html-keyboard-response","37","345049","0.0-13.0-0.3","SS1619739442485","","","null","","","","","","<p><img src= images/blank.png width =""600"" height = ""600"" style=""position:fixed;top:50%; left:50%; transform: translate(-50%, -50%); border:5px solid black"">","","","","","","","",""
"","5656.414999975823","sequential-stimulus-presentation-old","38","351234","0.0-13.0-1.3","SS1619739442485","trial","","40","500","6156.414999975823","images/stimuli/spore_stims/complex_08_A_a.gif","images/stimuli/spore_stims/complex_10_A_b.gif","forced_short","","2","complex_dissimilar","images/stimuli/spore_stims/complex_10_A_b.gif","","","","",""
"","null","html-keyboard-response","39","352122","0.0-13.0-0.4","SS1619739442485","","","null","","","","","","<p><img src= images/blank.png width =""600"" height = ""600"" style=""position:fixed;top:50%; left:50%; transform: translate(-50%, -50%); border:5px solid black"">","","","","","","","",""
"","4863.099999958649","sequential-stimulus-presentation-old","40","357523","0.0-13.0-1.4","SS1619739442485","trial","","40","500","5363.099999958649","images/stimuli/spore_stims/complex_08_A_a.gif","images/stimuli/spore_stims/complex_10_A_b.gif","forced_short","","2","complex_dissimilar","images/stimuli/spore_stims/complex_10_A_b.gif","","","","",""
"","null","html-keyboard-response","41","358689","0.0-13.0-0.5","SS1619739442485","","","null","","","","","","<p><img src= images/blank.png width =""600"" height = ""600"" style=""position:fixed;top:50%; left:50%; transform: translate(-50%, -50%); border:5px solid black"">","","","","","","","",""
"","8273.389999987558","sequential-stimulus-presentation-old","42","367489","0.0-13.0-1.5","SS1619739442485","trial","","40","500","8773.389999987558","images/stimuli/spore_stims/complex_08_A_a.gif","images/stimuli/spore_stims/complex_10_A_b.gif","forced_short","","2","complex_dissimilar","images/stimuli/spore_stims/complex_10_A_b.gif","","","","",""
"","4099.780000047758","survey-multi-choice","43","371606","0.0-14.0","SS1619739442485","math_question","","","","","","","","","","","","{""Q0"":""9""}","[0]","9","",""
"","null","html-keyboard-response","44","372487","0.0-15.0-0.0","SS1619739442485","","","null","","","","","","<p><img src= images/blank.png width =""600"" height = ""600"" style=""position:fixed;top:50%; left:50%; transform: translate(-50%, -50%); border:5px solid black"">","","","","","","","",""
"","5015.580000006594","sequential-stimulus-presentation-old","45","392540","0.0-15.0-1.0","SS1619739442485","trial","","40","500","5515.580000006594","images/stimuli/spore_stims/complex_18_A_b.gif","images/stimuli/spore_stims/complex_04_A_a.gif","forced_long","","3","complex_dissimilar","images/stimuli/spore_stims/complex_04_A_a.gif","","","","",""
"","null","html-keyboard-response","46","393410","0.0-15.0-0.1","SS1619739442485","","","null","","","","","","<p><img src= images/blank.png width =""600"" height = ""600"" style=""position:fixed;top:50%; left:50%; transform: translate(-50%, -50%); border:5px solid black"">","","","","","","","",""
"","8771.88000001479","sequential-stimulus-presentation-old","47","402708","0.0-15.0-1.1","SS1619739442485","trial","","40","500","9271.88000001479","images/stimuli/spore_stims/complex_18_A_b.gif","images/stimuli/spore_stims/complex_04_A_a.gif","forced_long","","3","complex_dissimilar","images/stimuli/spore_stims/complex_18_A_b.gif","","","","",""
"","null","html-keyboard-response","48","403851","0.0-15.0-0.2","SS1619739442485","","","null","","","","","","<p><img src= images/blank.png width =""600"" height = ""600"" style=""position:fixed;top:50%; left:50%; transform: translate(-50%, -50%); border:5px solid black"">","","","","","","","",""
"","4792.039999971166","sequential-stimulus-presentation-old","49","409173","0.0-15.0-1.2","SS1619739442485","trial","","40","500","5292.039999971166","images/stimuli/spore_stims/complex_18_A_b.gif","images/stimuli/spore_stims/complex_04_A_a.gif","forced_long","","3","complex_dissimilar","images/stimuli/spore_stims/complex_04_A_a.gif","","","","",""
"","null","html-keyboard-response","50","410236","0.0-15.0-0.3","SS1619739442485","","","null","","","","","","<p><img src= images/blank.png width =""600"" height = ""600"" style=""position:fixed;top:50%; left:50%; transform: translate(-50%, -50%); border:5px solid black"">","","","","","","","",""
"","1267.6800000481308","sequential-stimulus-presentation-old","51","412038","0.0-15.0-1.3","SS1619739442485","trial","","40","500","1767.6800000481308","images/stimuli/spore_stims/complex_18_A_b.gif","images/stimuli/spore_stims/complex_04_A_a.gif","forced_long","","3","complex_dissimilar","images/stimuli/spore_stims/complex_04_A_a.gif","","","","",""
"","null","html-keyboard-response","52","413158","0.0-15.0-0.4","SS1619739442485","","","null","","","","","","<p><img src= images/blank.png width =""600"" height = ""600"" style=""position:fixed;top:50%; left:50%; transform: translate(-50%, -50%); border:5px solid black"">","","","","","","","",""
"","3382.2399999480695","sequential-stimulus-presentation-old","53","417080","0.0-15.0-1.4","SS1619739442485","trial","","40","500","3882.2399999480695","images/stimuli/spore_stims/complex_18_A_b.gif","images/stimuli/spore_stims/complex_04_A_a.gif","forced_long","","3","complex_dissimilar","images/stimuli/spore_stims/complex_18_A_b.gif","","","","",""
"","3880.5549999233335","survey-multi-choice","54","420982","0.0-16.0","SS1619739442485","math_question","","","","","","","","","","","","{""Q0"":""3""}","[0]","3","",""
"","null","html-keyboard-response","55","421849","0.0-17.0-0.0","SS1619739442485","","","null","","","","","","<p><img src= images/blank.png width =""600"" height = ""600"" style=""position:fixed;top:50%; left:50%; transform: translate(-50%, -50%); border:5px solid black"">","","","","","","","",""
"","3745.7099999301136","sequential-stimulus-presentation-old","56","440629","0.0-17.0-1.0","SS1619739442485","trial","","40","500","4245.709999930114","images/stimuli/spore_stims/simple_14_A_b.gif","images/stimuli/spore_stims/simple_19_A_a.gif","forced_long","","4","simple_dissimilar","images/stimuli/spore_stims/simple_19_A_a.gif","","","","",""
"","null","html-keyboard-response","57","441818","0.0-17.0-0.1","SS1619739442485","","","null","","","","","","<p><img src= images/blank.png width =""600"" height = ""600"" style=""position:fixed;top:50%; left:50%; transform: translate(-50%, -50%); border:5px solid black"">","","","","","","","",""
"","6016.775000025518","sequential-stimulus-presentation-old","58","448377","0.0-17.0-1.1","SS1619739442485","trial","","40","500","6516.775000025518","images/stimuli/spore_stims/simple_14_A_b.gif","images/stimuli/spore_stims/simple_19_A_a.gif","forced_long","","4","simple_dissimilar","images/stimuli/spore_stims/simple_14_A_b.gif","","","","",""
"","null","html-keyboard-response","59","449430","0.0-17.0-0.2","SS1619739442485","","","null","","","","","","<p><img src= images/blank.png width =""600"" height = ""600"" style=""position:fixed;top:50%; left:50%; transform: translate(-50%, -50%); border:5px solid black"">","","","","","","","",""
"","9020.954999956302","sequential-stimulus-presentation-old","60","458978","0.0-17.0-1.2","SS1619739442485","trial","","40","500","9520.954999956302","images/stimuli/spore_stims/simple_14_A_b.gif","images/stimuli/spore_stims/simple_19_A_a.gif","forced_long","","4","simple_dissimilar","images/stimuli/spore_stims/simple_19_A_a.gif","","","","",""
"","null","html-keyboard-response","61","460181","0.0-17.0-0.3","SS1619739442485","","","null","","","","","","<p><img src= images/blank.png width =""600"" height = ""600"" style=""position:fixed;top:50%; left:50%; transform: translate(-50%, -50%); border:5px solid black"">","","","","","","","",""
"","3164.985000039451","sequential-stimulus-presentation-old","62","463895","0.0-17.0-1.3","SS1619739442485","trial","","40","500","3664.985000039451","images/stimuli/spore_stims/simple_14_A_b.gif","images/stimuli/spore_stims/simple_19_A_a.gif","forced_long","","4","simple_dissimilar","images/stimuli/spore_stims/simple_19_A_a.gif","","","","",""
"","3904.024999937974","survey-multi-choice","63","467819","0.0-18.0","SS1619739442485","math_question","","","","","","","","","","","","{""Q0"":""8""}","[0]","8","",""
"","null","html-keyboard-response","64","468922","0.0-19.0-0.0","SS1619739442485","","","null","","","","","","<p><img src= images/blank.png width =""600"" height = ""600"" style=""position:fixed;top:50%; left:50%; transform: translate(-50%, -50%); border:5px solid black"">","","","","","","","",""
"","2177.0699999760836","sequential-stimulus-presentation-old","65","486135","0.0-19.0-1.0","SS1619739442485","trial","","40","500","2677.0699999760836","images/stimuli/spore_stims/complex_16_A_a.gif","images/stimuli/spore_stims/complex_07_A_b.gif","forced_long","","5","complex_dissimilar","images/stimuli/spore_stims/complex_07_A_b.gif","","","","",""
"","null","html-keyboard-response","66","487206","0.0-19.0-0.1","SS1619739442485","","","null","","","","","","<p><img src= images/blank.png width =""600"" height = ""600"" style=""position:fixed;top:50%; left:50%; transform: translate(-50%, -50%); border:5px solid black"">","","","","","","","",""
"","1229.289999930188","sequential-stimulus-presentation-old","67","488958","0.0-19.0-1.1","SS1619739442485","trial","","40","500","1729.289999930188","images/stimuli/spore_stims/complex_16_A_a.gif","images/stimuli/spore_stims/complex_07_A_b.gif","forced_long","","5","complex_dissimilar","images/stimuli/spore_stims/complex_07_A_b.gif","","","","",""
"","null","html-keyboard-response","68","490121","0.0-19.0-0.2","SS1619739442485","","","null","","","","","","<p><img src= images/blank.png width =""600"" height = ""600"" style=""position:fixed;top:50%; left:50%; transform: translate(-50%, -50%); border:5px solid black"">","","","","","","","",""
"","5618.914999999106","sequential-stimulus-presentation-old","69","496276","0.0-19.0-1.2","SS1619739442485","trial","","40","500","6118.914999999106","images/stimuli/spore_stims/complex_16_A_a.gif","images/stimuli/spore_stims/complex_07_A_b.gif","forced_long","","5","complex_dissimilar","images/stimuli/spore_stims/complex_07_A_b.gif","","","","",""
"","null","html-keyboard-response","70","497249","0.0-19.0-0.3","SS1619739442485","","","null","","","","","","<p><img src= images/blank.png width =""600"" height = ""600"" style=""position:fixed;top:50%; left:50%; transform: translate(-50%, -50%); border:5px solid black"">","","","","","","","",""
"","4310.644999961369","sequential-stimulus-presentation-old","71","502099","0.0-19.0-1.3","SS1619739442485","trial","","40","500","4810.644999961369","images/stimuli/spore_stims/complex_16_A_a.gif","images/stimuli/spore_stims/complex_07_A_b.gif","forced_long","","5","complex_dissimilar","images/stimuli/spore_stims/complex_07_A_b.gif","","","","",""
"","null","html-keyboard-response","72","503039","0.0-19.0-0.4","SS1619739442485","","","null","","","","","","<p><img src= images/blank.png width =""600"" height = ""600"" style=""position:fixed;top:50%; left:50%; transform: translate(-50%, -50%); border:5px solid black"">","","","","","","","",""
"","5811.95000000298","sequential-stimulus-presentation-old","73","509387","0.0-19.0-1.4","SS1619739442485","trial","","40","500","6311.95000000298","images/stimuli/spore_stims/complex_16_A_a.gif","images/stimuli/spore_stims/complex_07_A_b.gif","forced_long","","5","complex_dissimilar","images/stimuli/spore_stims/complex_16_A_a.gif","","","","",""
"","null","html-keyboard-response","74","510442","0.0-19.0-0.5","SS1619739442485","","","null","","","","","","<p><img src= images/blank.png width =""600"" height = ""600"" style=""position:fixed;top:50%; left:50%; transform: translate(-50%, -50%); border:5px solid black"">","","","","","","","",""
"","1706.9749999791384","sequential-stimulus-presentation-old","75","512679","0.0-19.0-1.5","SS1619739442485","trial","","40","500","2206.9749999791384","images/stimuli/spore_stims/complex_16_A_a.gif","images/stimuli/spore_stims/complex_07_A_b.gif","forced_long","","5","complex_dissimilar","images/stimuli/spore_stims/complex_16_A_a.gif","","","","",""
"","3308.6350000230595","survey-multi-choice","76","516004","0.0-20.0","SS1619739442485","math_question","","","","","","","","","","","","{""Q0"":""11""}","[0]","11","",""
"","null","html-keyboard-response","77","516877","0.0-21.0-0.0","SS1619739442485","","","null","","","","","","<p><img src= images/blank.png width =""600"" height = ""600"" style=""position:fixed;top:50%; left:50%; transform: translate(-50%, -50%); border:5px solid black"">","","","","","","","",""
"","1342.1200000448152","sequential-stimulus-presentation-old","78","518764","0.0-21.0-1.0","SS1619739442485","trial","","40","500","1842.1200000448152","images/stimuli/spore_stims/simple_20_A_b.gif","images/stimuli/spore_stims/simple_06_A_a.gif","forced_short","","6","simple_dissimilar","images/stimuli/spore_stims/simple_06_A_a.gif","","","","",""
"","null","html-keyboard-response","79","519752","0.0-21.0-0.1","SS1619739442485","","","null","","","","","","<p><img src= images/blank.png width =""600"" height = ""600"" style=""position:fixed;top:50%; left:50%; transform: translate(-50%, -50%); border:5px solid black"">","","","","","","","",""
"","1334.3950000125915","sequential-stimulus-presentation-old","80","521618","0.0-21.0-1.1","SS1619739442485","trial","","40","500","1834.3950000125915","images/stimuli/spore_stims/simple_20_A_b.gif","images/stimuli/spore_stims/simple_06_A_a.gif","forced_short","","6","simple_dissimilar","images/stimuli/spore_stims/simple_20_A_b.gif","","","","",""
"","null","html-keyboard-response","81","522535","0.0-21.0-0.2","SS1619739442485","","","null","","","","","","<p><img src= images/blank.png width =""600"" height = ""600"" style=""position:fixed;top:50%; left:50%; transform: translate(-50%, -50%); border:5px solid black"">","","","","","","","",""
"","2879.2250000406057","sequential-stimulus-presentation-old","82","525947","0.0-21.0-1.2","SS1619739442485","trial","","40","500","3379.2250000406057","images/stimuli/spore_stims/simple_20_A_b.gif","images/stimuli/spore_stims/simple_06_A_a.gif","forced_short","","6","simple_dissimilar","images/stimuli/spore_stims/simple_06_A_a.gif","","","","",""
"","null","html-keyboard-response","83","527056","0.0-21.0-0.3","SS1619739442485","","","null","","","","","","<p><img src= images/blank.png width =""600"" height = ""600"" style=""position:fixed;top:50%; left:50%; transform: translate(-50%, -50%); border:5px solid black"">","","","","","","","",""
"","1015.7699999399483","sequential-stimulus-presentation-old","84","528604","0.0-21.0-1.3","SS1619739442485","trial","","40","500","1515.7699999399483","images/stimuli/spore_stims/simple_20_A_b.gif","images/stimuli/spore_stims/simple_06_A_a.gif","forced_short","","6","simple_dissimilar","images/stimuli/spore_stims/simple_06_A_a.gif","","","","",""
"","null","html-keyboard-response","85","529611","0.0-21.0-0.4","SS1619739442485","","","null","","","","","","<p><img src= images/blank.png width =""600"" height = ""600"" style=""position:fixed;top:50%; left:50%; transform: translate(-50%, -50%); border:5px solid black"">","","","","","","","",""
"","2406.8650000263005","sequential-stimulus-presentation-old","86","532528","0.0-21.0-1.4","SS1619739442485","trial","","40","500","2906.8650000263005","images/stimuli/spore_stims/simple_20_A_b.gif","images/stimuli/spore_stims/simple_06_A_a.gif","forced_short","","6","simple_dissimilar","images/stimuli/spore_stims/simple_20_A_b.gif","","","","",""
"","2948.3750000363216","survey-multi-choice","87","535500","0.0-22.0","SS1619739442485","math_question","","","","","","","","","","","","{""Q0"":""4""}","[0]","4","",""
"","null","html-keyboard-response","88","536616","0.0-23.0-0.0","SS1619739442485","","","null","","","","","","<p><img src= images/blank.png width =""600"" height = ""600"" style=""position:fixed;top:50%; left:50%; transform: translate(-50%, -50%); border:5px solid black"">","","","","","","","",""
"","4097.535000066273","sequential-stimulus-presentation-old","89","541262","0.0-23.0-1.0","SS1619739442485","trial","","40","500","4597.535000066273","images/stimuli/spore_stims/complex_15_A_a.gif","images/stimuli/spore_stims/complex_13_A_b.gif","self_paced","","7","complex_dissimilar","images/stimuli/spore_stims/complex_13_A_b.gif","","","","",""
"","null","html-keyboard-response","90","542251","0.0-23.0-0.1","SS1619739442485","","","null","","","","","","<p><img src= images/blank.png width =""600"" height = ""600"" style=""position:fixed;top:50%; left:50%; transform: translate(-50%, -50%); border:5px solid black"">","","","","","","","",""
"","2654.314999934286","sequential-stimulus-presentation-old","91","545442","0.0-23.0-1.1","SS1619739442485","trial","","40","500","3154.314999934286","images/stimuli/spore_stims/complex_15_A_a.gif","images/stimuli/spore_stims/complex_13_A_b.gif","self_paced","","7","complex_dissimilar","images/stimuli/spore_stims/complex_13_A_b.gif","","","","",""
"","null","html-keyboard-response","92","546496","0.0-23.0-0.2","SS1619739442485","","","null","","","","","","<p><img src= images/blank.png width =""600"" height = ""600"" style=""position:fixed;top:50%; left:50%; transform: translate(-50%, -50%); border:5px solid black"">","","","","","","","",""
"","3690.3800000436604","sequential-stimulus-presentation-old","93","550727","0.0-23.0-1.2","SS1619739442485","trial","","40","500","4190.38000004366","images/stimuli/spore_stims/complex_15_A_a.gif","images/stimuli/spore_stims/complex_13_A_b.gif","self_paced","","7","complex_dissimilar","images/stimuli/spore_stims/complex_13_A_b.gif","","","","",""
"","null","html-keyboard-response","94","551747","0.0-23.0-0.3","SS1619739442485","","","null","","","","","","<p><img src= images/blank.png width =""600"" height = ""600"" style=""position:fixed;top:50%; left:50%; transform: translate(-50%, -50%); border:5px solid black"">","","","","","","","",""
"","11021.88000001479","sequential-stimulus-presentation-old","95","563311","0.0-23.0-1.3","SS1619739442485","trial","","40","500","11521.88000001479","images/stimuli/spore_stims/complex_15_A_a.gif","images/stimuli/spore_stims/complex_13_A_b.gif","self_paced","","7","complex_dissimilar","images/stimuli/spore_stims/complex_13_A_b.gif","","","","",""
"","4548.999999999069","survey-multi-choice","96","567885","0.0-24.0","SS1619739442485","math_question","","","","","","","","","","","","{""Q0"":""3""}","[0]","3","",""
"","null","html-keyboard-response","97","568957","0.0-25.0-0.0","SS1619739442485","","","null","","","","","","<p><img src= images/blank.png width =""600"" height = ""600"" style=""position:fixed;top:50%; left:50%; transform: translate(-50%, -50%); border:5px solid black"">","","","","","","","",""
"","1867.255000048317","sequential-stimulus-presentation-old","98","571352","0.0-25.0-1.0","SS1619739442485","trial","","40","500","2367.255000048317","images/stimuli/spore_stims/simple_18_A_b.gif","images/stimuli/spore_stims/simple_14_A_a.gif","forced_short","","8","simple_dissimilar","images/stimuli/spore_stims/simple_14_A_a.gif","","","","",""
"","null","html-keyboard-response","99","572678","0.0-25.0-0.1","SS1619739442485","","","null","","","","","","<p><img src= images/blank.png width =""600"" height = ""600"" style=""position:fixed;top:50%; left:50%; transform: translate(-50%, -50%); border:5px solid black"">","","","","","","","",""
"","5189.954999950714","sequential-stimulus-presentation-old","100","578396","0.0-25.0-1.1","SS1619739442485","trial","","40","500","5689.954999950714","images/stimuli/spore_stims/simple_18_A_b.gif","images/stimuli/spore_stims/simple_14_A_a.gif","forced_short","","8","simple_dissimilar","images/stimuli/spore_stims/simple_14_A_a.gif","","","","",""
"","null","html-keyboard-response","101","579677","0.0-25.0-0.2","SS1619739442485","","","null","","","","","","<p><img src= images/blank.png width =""600"" height = ""600"" style=""position:fixed;top:50%; left:50%; transform: translate(-50%, -50%); border:5px solid black"">","","","","","","","",""
"","2765.849999967031","sequential-stimulus-presentation-old","102","582978","0.0-25.0-1.2","SS1619739442485","trial","","40","500","3265.849999967031","images/stimuli/spore_stims/simple_18_A_b.gif","images/stimuli/spore_stims/simple_14_A_a.gif","forced_short","","8","simple_dissimilar","images/stimuli/spore_stims/simple_18_A_b.gif","","","","",""
"","null","html-keyboard-response","103","584223","0.0-25.0-0.3","SS1619739442485","","","null","","","","","","<p><img src= images/blank.png width =""600"" height = ""600"" style=""position:fixed;top:50%; left:50%; transform: translate(-50%, -50%); border:5px solid black"">","","","","","","","",""
"","3172.870000009425","sequential-stimulus-presentation-old","104","587924","0.0-25.0-1.3","SS1619739442485","trial","","40","500","3672.870000009425","images/stimuli/spore_stims/simple_18_A_b.gif","images/stimuli/spore_stims/simple_14_A_a.gif","forced_short","","8","simple_dissimilar","images/stimuli/spore_stims/simple_18_A_b.gif","","","","",""
"","null","html-keyboard-response","105","588803","0.0-25.0-0.4","SS1619739442485","","","null","","","","","","<p><img src= images/blank.png width =""600"" height = ""600"" style=""position:fixed;top:50%; left:50%; transform: translate(-50%, -50%); border:5px solid black"">","","","","","","","",""
"","1952.1349999122322","sequential-stimulus-presentation-old","106","591293","0.0-25.0-1.4","SS1619739442485","trial","","40","500","2452.134999912232","images/stimuli/spore_stims/simple_18_A_b.gif","images/stimuli/spore_stims/simple_14_A_a.gif","forced_short","","8","simple_dissimilar","images/stimuli/spore_stims/simple_14_A_a.gif","","","","",""
"","null","html-keyboard-response","107","592347","0.0-25.0-0.5","SS1619739442485","","","null","","","","","","<p><img src= images/blank.png width =""600"" height = ""600"" style=""position:fixed;top:50%; left:50%; transform: translate(-50%, -50%); border:5px solid black"">","","","","","","","",""
"","358.14000002574176","sequential-stimulus-presentation-old","108","593254","0.0-25.0-1.5","SS1619739442485","trial","","40","500","858.1400000257418","images/stimuli/spore_stims/simple_18_A_b.gif","images/stimuli/spore_stims/simple_14_A_a.gif","forced_short","","8","simple_dissimilar","images/stimuli/spore_stims/simple_14_A_a.gif","","","","",""
"","5456.665000063367","survey-multi-choice","109","598735","0.0-26.0","SS1619739442485","math_question","","","","","","","","","","","","{""Q0"":""14""}","[0]","14","",""
"","null","html-keyboard-response","110","599954","0.0-27.0-0.0","SS1619739442485","","","null","","","","","","<p><img src= images/blank.png width =""600"" height = ""600"" style=""position:fixed;top:50%; left:50%; transform: translate(-50%, -50%); border:5px solid black"">","","","","","","","",""
"","3224.0900000324473","sequential-stimulus-presentation-old","111","603728","0.0-27.0-1.0","SS1619739442485","trial","","40","500","3724.0900000324473","images/stimuli/spore_stims/complex_09_A_b.gif","images/stimuli/spore_stims/complex_18_A_a.gif","self_paced","","9","complex_dissimilar","images/stimuli/spore_stims/complex_18_A_a.gif","","","","",""
"","null","html-keyboard-response","112","604861","0.0-27.0-0.1","SS1619739442485","","","null","","","","","","<p><img src= images/blank.png width =""600"" height = ""600"" style=""position:fixed;top:50%; left:50%; transform: translate(-50%, -50%); border:5px solid black"">","","","","","","","",""
"","588.1450000451878","sequential-stimulus-presentation-old","113","605996","0.0-27.0-1.1","SS1619739442485","trial","","40","500","1088.1450000451878","images/stimuli/spore_stims/complex_09_A_b.gif","images/stimuli/spore_stims/complex_18_A_a.gif","self_paced","","9","complex_dissimilar","images/stimuli/spore_stims/complex_18_A_a.gif","","","","",""
"","null","html-keyboard-response","114","607127","0.0-27.0-0.2","SS1619739442485","","","null","","","","","","<p><img src= images/blank.png width =""600"" height = ""600"" style=""position:fixed;top:50%; left:50%; transform: translate(-50%, -50%); border:5px solid black"">","","","","","","","",""
"","815.7150000333786","sequential-stimulus-presentation-old","115","608482","0.0-27.0-1.2","SS1619739442485","trial","","40","500","1315.7150000333786","images/stimuli/spore_stims/complex_09_A_b.gif","images/stimuli/spore_stims/complex_18_A_a.gif","self_paced","","9","complex_dissimilar","images/stimuli/spore_stims/complex_18_A_a.gif","","","","",""
"","null","html-keyboard-response","116","609549","0.0-27.0-0.3","SS1619739442485","","","null","","","","","","<p><img src= images/blank.png width =""600"" height = ""600"" style=""position:fixed;top:50%; left:50%; transform: translate(-50%, -50%); border:5px solid black"">","","","","","","","",""
"","919.7550000390038","sequential-stimulus-presentation-old","117","611008","0.0-27.0-1.3","SS1619739442485","trial","","40","500","1419.7550000390038","images/stimuli/spore_stims/complex_09_A_b.gif","images/stimuli/spore_stims/complex_18_A_a.gif","self_paced","","9","complex_dissimilar","images/stimuli/spore_stims/complex_18_A_a.gif","","","","",""
"","3632.714999956079","survey-multi-choice","118","614669","0.0-28.0","SS1619739442485","math_question","","","","","","","","","","","","{""Q0"":""18""}","[0]","18","",""
"","null","html-keyboard-response","119","615506","0.0-29.0-0.0","SS1619739442485","","","null","","","","","","<p><img src= images/blank.png width =""600"" height = ""600"" style=""position:fixed;top:50%; left:50%; transform: translate(-50%, -50%); border:5px solid black"">","","","","","","","",""
"","1779.1100000031292","sequential-stimulus-presentation-old","120","617827","0.0-29.0-1.0","SS1619739442485","trial","","40","500","2279.1100000031292","images/stimuli/spore_stims/complex_17_A_a.gif","images/stimuli/spore_stims/complex_14_A_b.gif","forced_short","","10","complex_dissimilar","images/stimuli/spore_stims/complex_14_A_b.gif","","","","",""
"","null","html-keyboard-response","121","618693","0.0-29.0-0.1","SS1619739442485","","","null","","","","","","<p><img src= images/blank.png width =""600"" height = ""600"" style=""position:fixed;top:50%; left:50%; transform: translate(-50%, -50%); border:5px solid black"">","","","","","","","",""
"","3630.174999940209","sequential-stimulus-presentation-old","122","622867","0.0-29.0-1.1","SS1619739442485","trial","","40","500","4130.174999940209","images/stimuli/spore_stims/complex_17_A_a.gif","images/stimuli/spore_stims/complex_14_A_b.gif","forced_short","","10","complex_dissimilar","images/stimuli/spore_stims/complex_14_A_b.gif","","","","",""
"","null","html-keyboard-response","123","623801","0.0-29.0-0.2","SS1619739442485","","","null","","","","","","<p><img src= images/blank.png width =""600"" height = ""600"" style=""position:fixed;top:50%; left:50%; transform: translate(-50%, -50%); border:5px solid black"">","","","","","","","",""
"","92.3949999269098","sequential-stimulus-presentation-old","124","624431","0.0-29.0-1.2","SS1619739442485","trial","","40","500","592.3949999269098","images/stimuli/spore_stims/complex_17_A_a.gif","images/stimuli/spore_stims/complex_14_A_b.gif","forced_short","","10","complex_dissimilar","images/stimuli/spore_stims/complex_14_A_b.gif","","","","",""
"","null","html-keyboard-response","125","625475","0.0-29.0-0.3","SS1619739442485","","","null","","","","","","<p><img src= images/blank.png width =""600"" height = ""600"" style=""position:fixed;top:50%; left:50%; transform: translate(-50%, -50%); border:5px solid black"">","","","","","","","",""
"","70.2199999941513","sequential-stimulus-presentation-old","126","626075","0.0-29.0-1.3","SS1619739442485","trial","","40","500","570.2199999941513","images/stimuli/spore_stims/complex_17_A_a.gif","images/stimuli/spore_stims/complex_14_A_b.gif","forced_short","","10","complex_dissimilar","images/stimuli/spore_stims/complex_14_A_b.gif","","","","",""
"","null","html-keyboard-response","127","627285","0.0-29.0-0.4","SS1619739442485","","","null","","","","","","<p><img src= images/blank.png width =""600"" height = ""600"" style=""position:fixed;top:50%; left:50%; transform: translate(-50%, -50%); border:5px solid black"">","","","","","","","",""
"","3478.2699999632314","sequential-stimulus-presentation-old","128","631302","0.0-29.0-1.4","SS1619739442485","trial","","40","500","3978.2699999632314","images/stimuli/spore_stims/complex_17_A_a.gif","images/stimuli/spore_stims/complex_14_A_b.gif","forced_short","","10","complex_dissimilar","images/stimuli/spore_stims/complex_17_A_a.gif","","","","",""
"","null","html-keyboard-response","129","632236","0.0-29.0-0.5","SS1619739442485","","","null","","","","","","<p><img src= images/blank.png width =""600"" height = ""600"" style=""position:fixed;top:50%; left:50%; transform: translate(-50%, -50%); border:5px solid black"">","","","","","","","",""
"","1802.4100000038743","sequential-stimulus-presentation-old","130","634592","0.0-29.0-1.5","SS1619739442485","trial","","40","500","2302.4100000038743","images/stimuli/spore_stims/complex_17_A_a.gif","images/stimuli/spore_stims/complex_14_A_b.gif","forced_short","","10","complex_dissimilar","images/stimuli/spore_stims/complex_14_A_b.gif","","","","",""
"","5020.2200000640005","survey-multi-choice","131","639650","0.0-30.0","SS1619739442485","math_question","","","","","","","","","","","","{""Q0"":""12""}","[0]","12","",""
"","null","html-keyboard-response","132","640805","0.0-31.0-0.0","SS1619739442485","","","null","","","","","","<p><img src= images/blank.png width =""600"" height = ""600"" style=""position:fixed;top:50%; left:50%; transform: translate(-50%, -50%); border:5px solid black"">","","","","","","","",""
"","1377.5100000202656","sequential-stimulus-presentation-old","133","657230","0.0-31.0-1.0","SS1619739442485","trial","","40","500","1877.5100000202656","images/stimuli/spore_stims/simple_10_A_a.gif","images/stimuli/spore_stims/simple_19_A_b.gif","forced_long","","11","simple_dissimilar","images/stimuli/spore_stims/simple_19_A_b.gif","","","","",""
"","null","html-keyboard-response","134","658242","0.0-31.0-0.1","SS1619739442485","","","null","","","","","","<p><img src= images/blank.png width =""600"" height = ""600"" style=""position:fixed;top:50%; left:50%; transform: translate(-50%, -50%); border:5px solid black"">","","","","","","","",""
"","1439.8299999302253","sequential-stimulus-presentation-old","135","660226","0.0-31.0-1.1","SS1619739442485","trial","","40","500","1939.8299999302253","images/stimuli/spore_stims/simple_10_A_a.gif","images/stimuli/spore_stims/simple_19_A_b.gif","forced_long","","11","simple_dissimilar","images/stimuli/spore_stims/simple_10_A_a.gif","","","","",""
"","null","html-keyboard-response","136","661448","0.0-31.0-0.2","SS1619739442485","","","null","","","","","","<p><img src= images/blank.png width =""600"" height = ""600"" style=""position:fixed;top:50%; left:50%; transform: translate(-50%, -50%); border:5px solid black"">","","","","","","","",""
"","383.4150000475347","sequential-stimulus-presentation-old","137","662386","0.0-31.0-1.2","SS1619739442485","trial","","40","500","883.4150000475347","images/stimuli/spore_stims/simple_10_A_a.gif","images/stimuli/spore_stims/simple_19_A_b.gif","forced_long","","11","simple_dissimilar","images/stimuli/spore_stims/simple_19_A_b.gif","","","","",""
"","null","html-keyboard-response","138","663473","0.0-31.0-0.3","SS1619739442485","","","null","","","","","","<p><img src= images/blank.png width =""600"" height = ""600"" style=""position:fixed;top:50%; left:50%; transform: translate(-50%, -50%); border:5px solid black"">","","","","","","","",""
"","456.8499999586493","sequential-stimulus-presentation-old","139","664457","0.0-31.0-1.3","SS1619739442485","trial","","40","500","956.8499999586493","images/stimuli/spore_stims/simple_10_A_a.gif","images/stimuli/spore_stims/simple_19_A_b.gif","forced_long","","11","simple_dissimilar","images/stimuli/spore_stims/simple_10_A_a.gif","","","","",""
"","null","html-keyboard-response","140","665635","0.0-31.0-0.4","SS1619739442485","","","null","","","","","","<p><img src= images/blank.png width =""600"" height = ""600"" style=""position:fixed;top:50%; left:50%; transform: translate(-50%, -50%); border:5px solid black"">","","","","","","","",""
"","163.95499999634922","sequential-stimulus-presentation-old","141","666344","0.0-31.0-1.4","SS1619739442485","trial","","40","500","663.9549999963492","images/stimuli/spore_stims/simple_10_A_a.gif","images/stimuli/spore_stims/simple_19_A_b.gif","forced_long","","11","simple_dissimilar","images/stimuli/spore_stims/simple_19_A_b.gif","","","","",""
"","null","html-keyboard-response","142","667456","0.0-31.0-0.5","SS1619739442485","","","null","","","","","","<p><img src= images/blank.png width =""600"" height = ""600"" style=""position:fixed;top:50%; left:50%; transform: translate(-50%, -50%); border:5px solid black"">","","","","","","","",""
"","1946.52999995742","sequential-stimulus-presentation-old","143","669934","0.0-31.0-1.5","SS1619739442485","trial","","40","500","2446.52999995742","images/stimuli/spore_stims/simple_10_A_a.gif","images/stimuli/spore_stims/simple_19_A_b.gif","forced_long","","11","simple_dissimilar","images/stimuli/spore_stims/simple_19_A_b.gif","","","","",""
"[{""page_index"":0,""viewing_time"":7295.799999963492}]","7296.824999968521","instructions","144","677260","0.0-32.0","SS1619739442485","instructions","","","","","","","","","","","","","","","",""
"","14965.459999977611","survey-likert","145","692245","0.0-33.0","SS1619739442485","similarity_question","","","","","","","","","","","","{""Q0"":1}","[0]","","images/stimuli/spore_stims/simple_19_A_b.gif","images/stimuli/spore_stims/simple_10_A_a.gif"
"","12849.37000006903","survey-likert","146","705112","0.0-34.0","SS1619739442485","similarity_question","","","","","","","","","","","","{""Q0"":1}","[0]","","images/stimuli/spore_stims/complex_09_A_b.gif","images/stimuli/spore_stims/complex_18_A_a.gif"
"","7385.435000061989","survey-likert","147","712516","0.0-35.0","SS1619739442485","similarity_question","","","","","","","","","","","","{""Q0"":1}","[0]","","images/stimuli/spore_stims/complex_13_A_b.gif","images/stimuli/spore_stims/complex_15_A_a.gif"
"","7092.9299999261275","survey-likert","148","719627","0.0-36.0","SS1619739442485","similarity_question","","","","","","","","","","","","{""Q0"":0}","[0]","","images/stimuli/spore_stims/complex_10_A_b.gif","images/stimuli/spore_stims/complex_08_A_a.gif"
"","7634.289999958128","survey-likert","149","727282","0.0-37.0","SS1619739442485","similarity_question","","","","","","","","","","","","{""Q0"":0}","[0]","","images/stimuli/spore_stims/simple_14_A_b.gif","images/stimuli/spore_stims/simple_19_A_a.gif"
"","5325.395000050776","survey-likert","150","732626","0.0-38.0","SS1619739442485","similarity_question","","","","","","","","","","","","{""Q0"":0}","[0]","","images/stimuli/spore_stims/simple_13_A_a.gif","images/stimuli/spore_stims/simple_07_A_b.gif"
"","4395.85500000976","survey-likert","151","737039","0.0-39.0","SS1619739442485","similarity_question","","","","","","","","","","","","{""Q0"":0}","[0]","","images/stimuli/spore_stims/simple_14_A_a.gif","images/stimuli/spore_stims/simple_18_A_b.gif"
"","14072.594999917783","survey-likert","152","751131","0.0-40.0","SS1619739442485","similarity_question","","","","","","","","","","","","{""Q0"":0}","[0]","","images/stimuli/spore_stims/simple_06_A_a.gif","images/stimuli/spore_stims/simple_20_A_b.gif"
"","4863.299999968149","survey-likert","153","756013","0.0-41.0","SS1619739442485","similarity_question","","","","","","","","","","","","{""Q0"":0}","[0]","","images/stimuli/spore_stims/complex_07_A_b.gif","images/stimuli/spore_stims/complex_16_A_a.gif"
"","5228.069999953732","survey-likert","154","761258","0.0-42.0","SS1619739442485","similarity_question","","","","","","","","","","","","{""Q0"":0}","[0]","","images/stimuli/spore_stims/complex_04_A_a.gif","images/stimuli/spore_stims/complex_18_A_b.gif"
"","4780.705000041053","survey-likert","155","766057","0.0-43.0","SS1619739442485","similarity_question","","","","","","","","","","","","{""Q0"":0}","[0]","","images/stimuli/spore_stims/complex_14_A_b.gif","images/stimuli/spore_stims/complex_17_A_a.gif"
"","5113.0600000033155","survey-likert","156","771189","0.0-44.0","SS1619739442485","similarity_question","","","","","","","","","","","","{""Q0"":1}","[0]","","images/stimuli/spore_stims/simple_17_A_a.gif","images/stimuli/spore_stims/simple_13_A_b.gif"
"[{""page_index"":0,""viewing_time"":6542.214999906719}]","6543.3599998941645","instructions","157","777749","0.0-45.0","SS1619739442485","instructions","","","","","","","","","","","","","","","",""
"","7965.409999946132","survey-likert","158","785730","0.0-46.0","SS1619739442485","","","","","","","","","images/stimuli/spore_stims/complex_18_A_a.gif","","","","{""Q0"":5}","[0]","","",""
"","3852.7849999954924","survey-likert","159","789598","0.0-47.0","SS1619739442485","","","","","","","","","images/stimuli/spore_stims/complex_13_A_b.gif","","","","{""Q0"":4}","[0]","","",""
"","5755.290000000969","survey-likert","160","795370","0.0-48.0","SS1619739442485","","","","","","","","","images/stimuli/spore_stims/simple_14_A_a.gif","","","","{""Q0"":2}","[0]","","",""
"","3446.5049999998882","survey-likert","161","798837","0.0-49.0","SS1619739442485","","","","","","","","","images/stimuli/spore_stims/simple_19_A_a.gif","","","","{""Q0"":2}","[0]","","",""
"","2636.5699999732897","survey-likert","162","801491","0.0-50.0","SS1619739442485","","","","","","","","","images/stimuli/spore_stims/simple_06_A_a.gif","","","","{""Q0"":1}","[0]","","",""
"","4148.739999975078","survey-likert","163","805661","0.0-51.0","SS1619739442485","","","","","","","","","images/stimuli/spore_stims/simple_19_A_b.gif","","","","{""Q0"":2}","[0]","","",""
"","2843.815000029281","survey-likert","164","808524","0.0-52.0","SS1619739442485","","","","","","","","","images/stimuli/spore_stims/complex_16_A_a.gif","","","","{""Q0"":5}","[0]","","",""
"","4000.08499994874","survey-likert","165","812542","0.0-53.0","SS1619739442485","","","","","","","","","images/stimuli/spore_stims/simple_07_A_b.gif","","","","{""Q0"":2}","[0]","","",""
"","2983.585000038147","survey-likert","166","815545","0.0-54.0","SS1619739442485","","","","","","","","","images/stimuli/spore_stims/complex_18_A_b.gif","","","","{""Q0"":5}","[0]","","",""
"","3248.145000077784","survey-likert","167","818810","0.0-55.0","SS1619739442485","","","","","","","","","images/stimuli/spore_stims/simple_17_A_a.gif","","","","{""Q0"":1}","[0]","","",""
"","2998.5250000609085","survey-likert","168","821825","0.0-56.0","SS1619739442485","","","","","","","","","images/stimuli/spore_stims/complex_14_A_b.gif","","","","{""Q0"":4}","[0]","","",""
"","2534.7000000765547","survey-likert","169","824379","0.0-57.0","SS1619739442485","","","","","","","","","images/stimuli/spore_stims/complex_10_A_b.gif","","","","{""Q0"":5}","[0]","","",""
"[{""page_index"":0,""viewing_time"":3553.870000061579}]","3554.5599999604747","instructions","170","827945","0.0-58.0","SS1619739442485","instructions","","","","","","","","","","","","","","","",""
"","2651.399999973364","demog-age","171","830621","0.0-59.0","SS1619739442485","","","","","","","","","","","","","{""age"":""25""}","","","",""
"","7547.404999961145","demog-ethnic-US","172","838195","0.0-60.0","SS1619739442485","","","","","","","","","","","","","{""ethnicity"":[""Hispanic or Latino""]}","[0]","","",""
"","8726.475000032224","demog-gender-and-education","173","846942","0.0-61.0","SS1619739442485","","","","","","","","","","","","","{""gender"":""Male"",""education"":""Bachelor's Degree""}","[0,1]","","",""
"","18628.234999952838","survey-text","174","865592","0.0-62.0","SS1619739442485","feedback","","","","","","","","","","","","{""Q0"":""The experiment runs perfect""}","","","",""
"[{""page_index"":0,""viewing_time"":4323.629999998957}]","4324.68499999959","instructions","175","869930","0.0-63.0","SS1619739442485","instructions","","","","","","","","","","","","","","","",""
