"view_history","rt","trial_type","trial_index","time_elapsed","internal_node_id","subject","stimulus_type","trial_stimulus","key_press","minimum_viewing_duration","trial_looking_time","block_deviant","block_background","exposure_type","stimulus","block_number","block_type","stimulus_displayed","responses","question_order","math_correct_answer","stimulus_left","stimulus_right"
"[{""page_index"":0,""viewing_time"":17681.124999999156}]","17681.75499999961","instructions","0","17684","0.0-0.0","SS1619740264980","","","","","","","","","","","","","","","","",""
"[{""page_index"":0,""viewing_time"":14940.844999999172},{""page_index"":1,""viewing_time"":15137.174999999843}]","30078.239999998914","instructions","1","49776","0.0-1.0","SS1619740264980","instructions","","","","","","","","","","","","","","","",""
"","8749.104999998963","sequential-stimulus-presentation-old","2","59028","0.0-2.0","SS1619740264980","","","40","500","9249.104999998963","null","null","self_paced","","","","","","","","",""
"","21125.989999998637","sequential-stimulus-presentation-old","3","80655","0.0-3.0","SS1619740264980","","","40","500","21625.989999998637","null","null","self_paced","","","","","","","","",""
"[{""page_index"":0,""viewing_time"":19364.870000001247}]","19365.085000001272","instructions","4","100021","0.0-4.0","SS1619740264980","instructions","","","","","","","","","","","","","","","",""
"","792.0349999985774","sequential-stimulus-presentation-old","5","115829","0.0-5.0","SS1619740264980","","","40","500","1292.0349999985774","null","null","forced_long","","","","","","","","",""
"","7613.040000000183","sequential-stimulus-presentation-old","6","123944","0.0-6.0","SS1619740264980","","","40","500","8113.040000000183","null","null","forced_long","","","","","","","","",""
"[{""page_index"":0,""viewing_time"":3618.689999999333}]","3618.8450000008743","instructions","7","127564","0.0-7.0","SS1619740264980","instructions","","","","","","","","","","","","","","","",""
"[{""page_index"":0,""viewing_time"":7247.424999999581},{""page_index"":1,""viewing_time"":9597.975000000588},{""page_index"":2,""viewing_time"":6105.480000000185},{""page_index"":3,""viewing_time"":1977.7299999987008},{""page_index"":4,""viewing_time"":1037.1200000008685}]","25965.964999999444","instructions","8","153531","0.0-8.0","SS1619740264980","instructions","","","","","","","","","","","","","","","",""
"","null","html-keyboard-response","9","154469","0.0-9.0-0.0","SS1619740264980","","","null","","","","","","<p><img src= images/blank.png width =""600"" height = ""600"" style=""position:fixed;top:50%; left:50%; transform: translate(-50%, -50%); border:5px solid black"">","","","","","","","",""
"","4486.245000000054","sequential-stimulus-presentation-old","10","159457","0.0-9.0-1.0","SS1619740264980","trial","","40","500","4986.245000000054","images/stimuli/spore_stims/complex_08_A_b.gif","images/stimuli/spore_stims/complex_02_A_a.gif","forced_short","","0","complex_dissimilar","images/stimuli/spore_stims/complex_02_A_a.gif","","","","",""
"","null","html-keyboard-response","11","160350","0.0-9.0-0.1","SS1619740264980","","","null","","","","","","<p><img src= images/blank.png width =""600"" height = ""600"" style=""position:fixed;top:50%; left:50%; transform: translate(-50%, -50%); border:5px solid black"">","","","","","","","",""
"","21193.030000000348","sequential-stimulus-presentation-old","12","182058","0.0-9.0-1.1","SS1619740264980","trial","","40","500","21693.030000000348","images/stimuli/spore_stims/complex_08_A_b.gif","images/stimuli/spore_stims/complex_02_A_a.gif","forced_short","","0","complex_dissimilar","images/stimuli/spore_stims/complex_02_A_a.gif","","","","",""
"","null","html-keyboard-response","13","183129","0.0-9.0-0.2","SS1619740264980","","","null","","","","","","<p><img src= images/blank.png width =""600"" height = ""600"" style=""position:fixed;top:50%; left:50%; transform: translate(-50%, -50%); border:5px solid black"">","","","","","","","",""
"","7044.925000000134","sequential-stimulus-presentation-old","14","190684","0.0-9.0-1.2","SS1619740264980","trial","","40","500","7544.925000000134","images/stimuli/spore_stims/complex_08_A_b.gif","images/stimuli/spore_stims/complex_02_A_a.gif","forced_short","","0","complex_dissimilar","images/stimuli/spore_stims/complex_02_A_a.gif","","","","",""
"","null","html-keyboard-response","15","191491","0.0-9.0-0.3","SS1619740264980","","","null","","","","","","<p><img src= images/blank.png width =""600"" height = ""600"" style=""position:fixed;top:50%; left:50%; transform: translate(-50%, -50%); border:5px solid black"">","","","","","","","",""
"","6606.589999999414","sequential-stimulus-presentation-old","16","198599","0.0-9.0-1.3","SS1619740264980","trial","","40","500","7106.589999999414","images/stimuli/spore_stims/complex_08_A_b.gif","images/stimuli/spore_stims/complex_02_A_a.gif","forced_short","","0","complex_dissimilar","images/stimuli/spore_stims/complex_08_A_b.gif","","","","",""
"","null","html-keyboard-response","17","199696","0.0-9.0-0.4","SS1619740264980","","","null","","","","","","<p><img src= images/blank.png width =""600"" height = ""600"" style=""position:fixed;top:50%; left:50%; transform: translate(-50%, -50%); border:5px solid black"">","","","","","","","",""
"","11556.275000000838","sequential-stimulus-presentation-old","18","211765","0.0-9.0-1.4","SS1619740264980","trial","","40","500","12056.275000000838","images/stimuli/spore_stims/complex_08_A_b.gif","images/stimuli/spore_stims/complex_02_A_a.gif","forced_short","","0","complex_dissimilar","images/stimuli/spore_stims/complex_08_A_b.gif","","","","",""
"","4430.135000000504","survey-multi-choice","19","216198","0.0-10.0","SS1619740264980","math_question","","","","","","","","","","","","{""Q0"":""9""}","[0]","9","",""
"","null","html-keyboard-response","20","217233","0.0-11.0-0.0","SS1619740264980","","","null","","","","","","<p><img src= images/blank.png width =""600"" height = ""600"" style=""position:fixed;top:50%; left:50%; transform: translate(-50%, -50%); border:5px solid black"">","","","","","","","",""
"","1634.2850000000908","sequential-stimulus-presentation-old","21","219370","0.0-11.0-1.0","SS1619740264980","trial","","40","500","2134.285000000091","images/stimuli/spore_stims/simple_16_A_b.gif","images/stimuli/spore_stims/simple_15_A_a.gif","forced_short","","1","simple_dissimilar","images/stimuli/spore_stims/simple_15_A_a.gif","","","","",""
"","null","html-keyboard-response","22","220190","0.0-11.0-0.1","SS1619740264980","","","null","","","","","","<p><img src= images/blank.png width =""600"" height = ""600"" style=""position:fixed;top:50%; left:50%; transform: translate(-50%, -50%); border:5px solid black"">","","","","","","","",""
"","5751.540000001085","sequential-stimulus-presentation-old","23","226444","0.0-11.0-1.1","SS1619740264980","trial","","40","500","6251.540000001085","images/stimuli/spore_stims/simple_16_A_b.gif","images/stimuli/spore_stims/simple_15_A_a.gif","forced_short","","1","simple_dissimilar","images/stimuli/spore_stims/simple_15_A_a.gif","","","","",""
"","null","html-keyboard-response","24","227737","0.0-11.0-0.2","SS1619740264980","","","null","","","","","","<p><img src= images/blank.png width =""600"" height = ""600"" style=""position:fixed;top:50%; left:50%; transform: translate(-50%, -50%); border:5px solid black"">","","","","","","","",""
"","1863.9649999986577","sequential-stimulus-presentation-old","25","230104","0.0-11.0-1.2","SS1619740264980","trial","","40","500","2363.9649999986577","images/stimuli/spore_stims/simple_16_A_b.gif","images/stimuli/spore_stims/simple_15_A_a.gif","forced_short","","1","simple_dissimilar","images/stimuli/spore_stims/simple_16_A_b.gif","","","","",""
"","null","html-keyboard-response","26","231312","0.0-11.0-0.3","SS1619740264980","","","null","","","","","","<p><img src= images/blank.png width =""600"" height = ""600"" style=""position:fixed;top:50%; left:50%; transform: translate(-50%, -50%); border:5px solid black"">","","","","","","","",""
"","1927.1050000006799","sequential-stimulus-presentation-old","27","233757","0.0-11.0-1.3","SS1619740264980","trial","","40","500","2427.10500000068","images/stimuli/spore_stims/simple_16_A_b.gif","images/stimuli/spore_stims/simple_15_A_a.gif","forced_short","","1","simple_dissimilar","images/stimuli/spore_stims/simple_15_A_a.gif","","","","",""
"","null","html-keyboard-response","28","234765","0.0-11.0-0.4","SS1619740264980","","","null","","","","","","<p><img src= images/blank.png width =""600"" height = ""600"" style=""position:fixed;top:50%; left:50%; transform: translate(-50%, -50%); border:5px solid black"">","","","","","","","",""
"","2465.2749999986845","sequential-stimulus-presentation-old","29","237733","0.0-11.0-1.4","SS1619740264980","trial","","40","500","2965.2749999986845","images/stimuli/spore_stims/simple_16_A_b.gif","images/stimuli/spore_stims/simple_15_A_a.gif","forced_short","","1","simple_dissimilar","images/stimuli/spore_stims/simple_15_A_a.gif","","","","",""
"","2712.9249999998137","survey-multi-choice","30","240447","0.0-12.0","SS1619740264980","math_question","","","","","","","","","","","","{""Q0"":""7""}","[0]","7","",""
"","null","html-keyboard-response","31","241387","0.0-13.0-0.0","SS1619740264980","","","null","","","","","","<p><img src= images/blank.png width =""600"" height = ""600"" style=""position:fixed;top:50%; left:50%; transform: translate(-50%, -50%); border:5px solid black"">","","","","","","","",""
"","1172.8350000012433","sequential-stimulus-presentation-old","32","257563","0.0-13.0-1.0","SS1619740264980","trial","","40","500","1672.8350000012433","images/stimuli/spore_stims/simple_17_A_a.gif","images/stimuli/spore_stims/simple_07_A_b.gif","forced_long","","2","simple_dissimilar","images/stimuli/spore_stims/simple_07_A_b.gif","","","","",""
"","null","html-keyboard-response","33","258616","0.0-13.0-0.1","SS1619740264980","","","null","","","","","","<p><img src= images/blank.png width =""600"" height = ""600"" style=""position:fixed;top:50%; left:50%; transform: translate(-50%, -50%); border:5px solid black"">","","","","","","","",""
"","466.1599999999744","sequential-stimulus-presentation-old","34","259584","0.0-13.0-1.1","SS1619740264980","trial","","40","500","966.1599999999744","images/stimuli/spore_stims/simple_17_A_a.gif","images/stimuli/spore_stims/simple_07_A_b.gif","forced_long","","2","simple_dissimilar","images/stimuli/spore_stims/simple_07_A_b.gif","","","","",""
"","null","html-keyboard-response","35","260527","0.0-13.0-0.2","SS1619740264980","","","null","","","","","","<p><img src= images/blank.png width =""600"" height = ""600"" style=""position:fixed;top:50%; left:50%; transform: translate(-50%, -50%); border:5px solid black"">","","","","","","","",""
"","841.8749999982538","sequential-stimulus-presentation-old","36","261885","0.0-13.0-1.2","SS1619740264980","trial","","40","500","1341.8749999982538","images/stimuli/spore_stims/simple_17_A_a.gif","images/stimuli/spore_stims/simple_07_A_b.gif","forced_long","","2","simple_dissimilar","images/stimuli/spore_stims/simple_07_A_b.gif","","","","",""
"","null","html-keyboard-response","37","262744","0.0-13.0-0.3","SS1619740264980","","","null","","","","","","<p><img src= images/blank.png width =""600"" height = ""600"" style=""position:fixed;top:50%; left:50%; transform: translate(-50%, -50%); border:5px solid black"">","","","","","","","",""
"","1091.539999999397","sequential-stimulus-presentation-old","38","264338","0.0-13.0-1.3","SS1619740264980","trial","","40","500","1591.539999999397","images/stimuli/spore_stims/simple_17_A_a.gif","images/stimuli/spore_stims/simple_07_A_b.gif","forced_long","","2","simple_dissimilar","images/stimuli/spore_stims/simple_17_A_a.gif","","","","",""
"","null","html-keyboard-response","39","265210","0.0-13.0-0.4","SS1619740264980","","","null","","","","","","<p><img src= images/blank.png width =""600"" height = ""600"" style=""position:fixed;top:50%; left:50%; transform: translate(-50%, -50%); border:5px solid black"">","","","","","","","",""
"","1086.3549999994575","sequential-stimulus-presentation-old","40","266798","0.0-13.0-1.4","SS1619740264980","trial","","40","500","1586.3549999994575","images/stimuli/spore_stims/simple_17_A_a.gif","images/stimuli/spore_stims/simple_07_A_b.gif","forced_long","","2","simple_dissimilar","images/stimuli/spore_stims/simple_07_A_b.gif","","","","",""
"","2218.464999999909","survey-multi-choice","41","269017","0.0-14.0","SS1619740264980","math_question","","","","","","","","","","","","{""Q0"":""9""}","[0]","9","",""
"","null","html-keyboard-response","42","270180","0.0-15.0-0.0","SS1619740264980","","","null","","","","","","<p><img src= images/blank.png width =""600"" height = ""600"" style=""position:fixed;top:50%; left:50%; transform: translate(-50%, -50%); border:5px solid black"">","","","","","","","",""
"","337.4449999992503","sequential-stimulus-presentation-old","43","285527","0.0-15.0-1.0","SS1619740264980","trial","","40","500","837.4449999992503","images/stimuli/spore_stims/complex_20_A_b.gif","images/stimuli/spore_stims/complex_03_A_a.gif","forced_long","","3","complex_dissimilar","images/stimuli/spore_stims/complex_03_A_a.gif","","","","",""
"","null","html-keyboard-response","44","286573","0.0-15.0-0.1","SS1619740264980","","","null","","","","","","<p><img src= images/blank.png width =""600"" height = ""600"" style=""position:fixed;top:50%; left:50%; transform: translate(-50%, -50%); border:5px solid black"">","","","","","","","",""
"","540.9999999992433","sequential-stimulus-presentation-old","45","287616","0.0-15.0-1.1","SS1619740264980","trial","","40","500","1040.9999999992433","images/stimuli/spore_stims/complex_20_A_b.gif","images/stimuli/spore_stims/complex_03_A_a.gif","forced_long","","3","complex_dissimilar","images/stimuli/spore_stims/complex_03_A_a.gif","","","","",""
"","null","html-keyboard-response","46","288542","0.0-15.0-0.2","SS1619740264980","","","null","","","","","","<p><img src= images/blank.png width =""600"" height = ""600"" style=""position:fixed;top:50%; left:50%; transform: translate(-50%, -50%); border:5px solid black"">","","","","","","","",""
"","1357.6649999995134","sequential-stimulus-presentation-old","47","290401","0.0-15.0-1.2","SS1619740264980","trial","","40","500","1857.6649999995134","images/stimuli/spore_stims/complex_20_A_b.gif","images/stimuli/spore_stims/complex_03_A_a.gif","forced_long","","3","complex_dissimilar","images/stimuli/spore_stims/complex_03_A_a.gif","","","","",""
"","null","html-keyboard-response","48","291404","0.0-15.0-0.3","SS1619740264980","","","null","","","","","","<p><img src= images/blank.png width =""600"" height = ""600"" style=""position:fixed;top:50%; left:50%; transform: translate(-50%, -50%); border:5px solid black"">","","","","","","","",""
"","1140.9700000003795","sequential-stimulus-presentation-old","49","293047","0.0-15.0-1.3","SS1619740264980","trial","","40","500","1640.9700000003795","images/stimuli/spore_stims/complex_20_A_b.gif","images/stimuli/spore_stims/complex_03_A_a.gif","forced_long","","3","complex_dissimilar","images/stimuli/spore_stims/complex_20_A_b.gif","","","","",""
"","null","html-keyboard-response","50","293974","0.0-15.0-0.4","SS1619740264980","","","null","","","","","","<p><img src= images/blank.png width =""600"" height = ""600"" style=""position:fixed;top:50%; left:50%; transform: translate(-50%, -50%); border:5px solid black"">","","","","","","","",""
"","683.9199999994598","sequential-stimulus-presentation-old","51","295160","0.0-15.0-1.4","SS1619740264980","trial","","40","500","1183.9199999994598","images/stimuli/spore_stims/complex_20_A_b.gif","images/stimuli/spore_stims/complex_03_A_a.gif","forced_long","","3","complex_dissimilar","images/stimuli/spore_stims/complex_20_A_b.gif","","","","",""
"","2735.2150000006077","survey-multi-choice","52","297897","0.0-16.0","SS1619740264980","math_question","","","","","","","","","","","","{""Q0"":""10""}","[0]","10","",""
"","null","html-keyboard-response","53","298771","0.0-17.0-0.0","SS1619740264980","","","null","","","","","","<p><img src= images/blank.png width =""600"" height = ""600"" style=""position:fixed;top:50%; left:50%; transform: translate(-50%, -50%); border:5px solid black"">","","","","","","","",""
"","739.835000000312","sequential-stimulus-presentation-old","54","300013","0.0-17.0-1.0","SS1619740264980","trial","","40","500","1239.835000000312","images/stimuli/spore_stims/complex_09_A_b.gif","images/stimuli/spore_stims/complex_19_A_a.gif","forced_short","","4","complex_dissimilar","images/stimuli/spore_stims/complex_19_A_a.gif","","","","",""
"","null","html-keyboard-response","55","300944","0.0-17.0-0.1","SS1619740264980","","","null","","","","","","<p><img src= images/blank.png width =""600"" height = ""600"" style=""position:fixed;top:50%; left:50%; transform: translate(-50%, -50%); border:5px solid black"">","","","","","","","",""
"","549.5099999989034","sequential-stimulus-presentation-old","56","301995","0.0-17.0-1.1","SS1619740264980","trial","","40","500","1049.5099999989034","images/stimuli/spore_stims/complex_09_A_b.gif","images/stimuli/spore_stims/complex_19_A_a.gif","forced_short","","4","complex_dissimilar","images/stimuli/spore_stims/complex_19_A_a.gif","","","","",""
"","null","html-keyboard-response","57","302828","0.0-17.0-0.2","SS1619740264980","","","null","","","","","","<p><img src= images/blank.png width =""600"" height = ""600"" style=""position:fixed;top:50%; left:50%; transform: translate(-50%, -50%); border:5px solid black"">","","","","","","","",""
"","1512.1299999991315","sequential-stimulus-presentation-old","58","304842","0.0-17.0-1.2","SS1619740264980","trial","","40","500","2012.1299999991315","images/stimuli/spore_stims/complex_09_A_b.gif","images/stimuli/spore_stims/complex_19_A_a.gif","forced_short","","4","complex_dissimilar","images/stimuli/spore_stims/complex_19_A_a.gif","","","","",""
"","null","html-keyboard-response","59","305955","0.0-17.0-0.3","SS1619740264980","","","null","","","","","","<p><img src= images/blank.png width =""600"" height = ""600"" style=""position:fixed;top:50%; left:50%; transform: translate(-50%, -50%); border:5px solid black"">","","","","","","","",""
"","1008.6299999984913","sequential-stimulus-presentation-old","60","307467","0.0-17.0-1.3","SS1619740264980","trial","","40","500","1508.6299999984913","images/stimuli/spore_stims/complex_09_A_b.gif","images/stimuli/spore_stims/complex_19_A_a.gif","forced_short","","4","complex_dissimilar","images/stimuli/spore_stims/complex_19_A_a.gif","","","","",""
"","2671.175000001327","survey-multi-choice","61","310139","0.0-18.0","SS1619740264980","math_question","","","","","","","","","","","","{""Q0"":""9""}","[0]","9","",""
"","null","html-keyboard-response","62","311290","0.0-19.0-0.0","SS1619740264980","","","null","","","","","","<p><img src= images/blank.png width =""600"" height = ""600"" style=""position:fixed;top:50%; left:50%; transform: translate(-50%, -50%); border:5px solid black"">","","","","","","","",""
"","2569.0400000003283","sequential-stimulus-presentation-old","63","314361","0.0-19.0-1.0","SS1619740264980","trial","","40","500","3069.0400000003283","images/stimuli/spore_stims/complex_07_A_a.gif","images/stimuli/spore_stims/complex_04_A_b.gif","self_paced","","5","complex_dissimilar","images/stimuli/spore_stims/complex_04_A_b.gif","","","","",""
"","null","html-keyboard-response","64","315455","0.0-19.0-0.1","SS1619740264980","","","null","","","","","","<p><img src= images/blank.png width =""600"" height = ""600"" style=""position:fixed;top:50%; left:50%; transform: translate(-50%, -50%); border:5px solid black"">","","","","","","","",""
"","106.34500000014668","sequential-stimulus-presentation-old","65","316064","0.0-19.0-1.1","SS1619740264980","trial","","40","500","606.3450000001467","images/stimuli/spore_stims/complex_07_A_a.gif","images/stimuli/spore_stims/complex_04_A_b.gif","self_paced","","5","complex_dissimilar","images/stimuli/spore_stims/complex_04_A_b.gif","","","","",""
"","null","html-keyboard-response","66","317222","0.0-19.0-0.2","SS1619740264980","","","null","","","","","","<p><img src= images/blank.png width =""600"" height = ""600"" style=""position:fixed;top:50%; left:50%; transform: translate(-50%, -50%); border:5px solid black"">","","","","","","","",""
"","565.5849999984493","sequential-stimulus-presentation-old","67","318300","0.0-19.0-1.2","SS1619740264980","trial","","40","500","1065.5849999984493","images/stimuli/spore_stims/complex_07_A_a.gif","images/stimuli/spore_stims/complex_04_A_b.gif","self_paced","","5","complex_dissimilar","images/stimuli/spore_stims/complex_04_A_b.gif","","","","",""
"","null","html-keyboard-response","68","319388","0.0-19.0-0.3","SS1619740264980","","","null","","","","","","<p><img src= images/blank.png width =""600"" height = ""600"" style=""position:fixed;top:50%; left:50%; transform: translate(-50%, -50%); border:5px solid black"">","","","","","","","",""
"","3718.0299999999697","sequential-stimulus-presentation-old","69","323608","0.0-19.0-1.3","SS1619740264980","trial","","40","500","4218.02999999997","images/stimuli/spore_stims/complex_07_A_a.gif","images/stimuli/spore_stims/complex_04_A_b.gif","self_paced","","5","complex_dissimilar","images/stimuli/spore_stims/complex_07_A_a.gif","","","","",""
"","null","html-keyboard-response","70","324801","0.0-19.0-0.4","SS1619740264980","","","null","","","","","","<p><img src= images/blank.png width =""600"" height = ""600"" style=""position:fixed;top:50%; left:50%; transform: translate(-50%, -50%); border:5px solid black"">","","","","","","","",""
"","171.00500000012107","sequential-stimulus-presentation-old","71","325474","0.0-19.0-1.4","SS1619740264980","trial","","40","500","671.0050000001211","images/stimuli/spore_stims/complex_07_A_a.gif","images/stimuli/spore_stims/complex_04_A_b.gif","self_paced","","5","complex_dissimilar","images/stimuli/spore_stims/complex_04_A_b.gif","","","","",""
"","null","html-keyboard-response","72","326756","0.0-19.0-0.5","SS1619740264980","","","null","","","","","","<p><img src= images/blank.png width =""600"" height = ""600"" style=""position:fixed;top:50%; left:50%; transform: translate(-50%, -50%); border:5px solid black"">","","","","","","","",""
"","9103.779999999446","sequential-stimulus-presentation-old","73","336367","0.0-19.0-1.5","SS1619740264980","trial","","40","500","9603.779999999446","images/stimuli/spore_stims/complex_07_A_a.gif","images/stimuli/spore_stims/complex_04_A_b.gif","self_paced","","5","complex_dissimilar","images/stimuli/spore_stims/complex_04_A_b.gif","","","","",""
"","3084.0449999995762","survey-multi-choice","74","339453","0.0-20.0","SS1619740264980","math_question","","","","","","","","","","","","{""Q0"":""7""}","[0]","7","",""
"","null","html-keyboard-response","75","340347","0.0-21.0-0.0","SS1619740264980","","","null","","","","","","<p><img src= images/blank.png width =""600"" height = ""600"" style=""position:fixed;top:50%; left:50%; transform: translate(-50%, -50%); border:5px solid black"">","","","","","","","",""
"","10928.205000000191","sequential-stimulus-presentation-old","76","366278","0.0-21.0-1.0","SS1619740264980","trial","","40","500","11428.205000000191","images/stimuli/spore_stims/complex_17_A_a.gif","images/stimuli/spore_stims/complex_15_A_b.gif","forced_long","","6","complex_dissimilar","images/stimuli/spore_stims/complex_15_A_b.gif","","","","",""
"","null","html-keyboard-response","77","367281","0.0-21.0-0.1","SS1619740264980","","","null","","","","","","<p><img src= images/blank.png width =""600"" height = ""600"" style=""position:fixed;top:50%; left:50%; transform: translate(-50%, -50%); border:5px solid black"">","","","","","","","",""
"","523.0400000000373","sequential-stimulus-presentation-old","78","368308","0.0-21.0-1.1","SS1619740264980","trial","","40","500","1023.0400000000373","images/stimuli/spore_stims/complex_17_A_a.gif","images/stimuli/spore_stims/complex_15_A_b.gif","forced_long","","6","complex_dissimilar","images/stimuli/spore_stims/complex_15_A_b.gif","","","","",""
"","null","html-keyboard-response","79","369408","0.0-21.0-0.2","SS1619740264980","","","null","","","","","","<p><img src= images/blank.png width =""600"" height = ""600"" style=""position:fixed;top:50%; left:50%; transform: translate(-50%, -50%); border:5px solid black"">","","","","","","","",""
"","276.00999999960186","sequential-stimulus-presentation-old","80","370186","0.0-21.0-1.2","SS1619740264980","trial","","40","500","776.0099999996019","images/stimuli/spore_stims/complex_17_A_a.gif","images/stimuli/spore_stims/complex_15_A_b.gif","forced_long","","6","complex_dissimilar","images/stimuli/spore_stims/complex_15_A_b.gif","","","","",""
"","null","html-keyboard-response","81","371069","0.0-21.0-0.3","SS1619740264980","","","null","","","","","","<p><img src= images/blank.png width =""600"" height = ""600"" style=""position:fixed;top:50%; left:50%; transform: translate(-50%, -50%); border:5px solid black"">","","","","","","","",""
"","312.63500000024214","sequential-stimulus-presentation-old","82","371885","0.0-21.0-1.3","SS1619740264980","trial","","40","500","812.6350000002421","images/stimuli/spore_stims/complex_17_A_a.gif","images/stimuli/spore_stims/complex_15_A_b.gif","forced_long","","6","complex_dissimilar","images/stimuli/spore_stims/complex_15_A_b.gif","","","","",""
"","null","html-keyboard-response","83","372796","0.0-21.0-0.4","SS1619740264980","","","null","","","","","","<p><img src= images/blank.png width =""600"" height = ""600"" style=""position:fixed;top:50%; left:50%; transform: translate(-50%, -50%); border:5px solid black"">","","","","","","","",""
"","135.8500000005588","sequential-stimulus-presentation-old","84","373448","0.0-21.0-1.4","SS1619740264980","trial","","40","500","635.8500000005588","images/stimuli/spore_stims/complex_17_A_a.gif","images/stimuli/spore_stims/complex_15_A_b.gif","forced_long","","6","complex_dissimilar","images/stimuli/spore_stims/complex_15_A_b.gif","","","","",""
"","3412.0700000003562","survey-multi-choice","85","376862","0.0-22.0","SS1619740264980","math_question","","","","","","","","","","","","{""Q0"":""17""}","[0]","17","",""
"","null","html-keyboard-response","86","377693","0.0-23.0-0.0","SS1619740264980","","","null","","","","","","<p><img src= images/blank.png width =""600"" height = ""600"" style=""position:fixed;top:50%; left:50%; transform: translate(-50%, -50%); border:5px solid black"">","","","","","","","",""
"","13357.920000000391","sequential-stimulus-presentation-old","87","406178","0.0-23.0-1.0","SS1619740264980","trial","","40","500","13857.920000000391","images/stimuli/spore_stims/simple_11_A_a.gif","images/stimuli/spore_stims/simple_08_A_b.gif","forced_long","","7","simple_dissimilar","images/stimuli/spore_stims/simple_08_A_b.gif","","","","",""
"","null","html-keyboard-response","88","407224","0.0-23.0-0.1","SS1619740264980","","","null","","","","","","<p><img src= images/blank.png width =""600"" height = ""600"" style=""position:fixed;top:50%; left:50%; transform: translate(-50%, -50%); border:5px solid black"">","","","","","","","",""
"","528.7250000001513","sequential-stimulus-presentation-old","89","408255","0.0-23.0-1.1","SS1619740264980","trial","","40","500","1028.7250000001513","images/stimuli/spore_stims/simple_11_A_a.gif","images/stimuli/spore_stims/simple_08_A_b.gif","forced_long","","7","simple_dissimilar","images/stimuli/spore_stims/simple_08_A_b.gif","","","","",""
"","null","html-keyboard-response","90","409181","0.0-23.0-0.2","SS1619740264980","","","null","","","","","","<p><img src= images/blank.png width =""600"" height = ""600"" style=""position:fixed;top:50%; left:50%; transform: translate(-50%, -50%); border:5px solid black"">","","","","","","","",""
"","824.0299999997951","sequential-stimulus-presentation-old","91","410508","0.0-23.0-1.2","SS1619740264980","trial","","40","500","1324.029999999795","images/stimuli/spore_stims/simple_11_A_a.gif","images/stimuli/spore_stims/simple_08_A_b.gif","forced_long","","7","simple_dissimilar","images/stimuli/spore_stims/simple_08_A_b.gif","","","","",""
"","null","html-keyboard-response","92","411728","0.0-23.0-0.3","SS1619740264980","","","null","","","","","","<p><img src= images/blank.png width =""600"" height = ""600"" style=""position:fixed;top:50%; left:50%; transform: translate(-50%, -50%); border:5px solid black"">","","","","","","","",""
"","386.16499999992084","sequential-stimulus-presentation-old","93","412617","0.0-23.0-1.3","SS1619740264980","trial","","40","500","886.1649999999208","images/stimuli/spore_stims/simple_11_A_a.gif","images/stimuli/spore_stims/simple_08_A_b.gif","forced_long","","7","simple_dissimilar","images/stimuli/spore_stims/simple_08_A_b.gif","","","","",""
"","null","html-keyboard-response","94","413611","0.0-23.0-0.4","SS1619740264980","","","null","","","","","","<p><img src= images/blank.png width =""600"" height = ""600"" style=""position:fixed;top:50%; left:50%; transform: translate(-50%, -50%); border:5px solid black"">","","","","","","","",""
"","575.4500000002445","sequential-stimulus-presentation-old","95","414695","0.0-23.0-1.4","SS1619740264980","trial","","40","500","1075.4500000002445","images/stimuli/spore_stims/simple_11_A_a.gif","images/stimuli/spore_stims/simple_08_A_b.gif","forced_long","","7","simple_dissimilar","images/stimuli/spore_stims/simple_11_A_a.gif","","","","",""
"","3338.939999999653","survey-multi-choice","96","418035","0.0-24.0","SS1619740264980","math_question","","","","","","","","","","","","{""Q0"":""15""}","[0]","15","",""
"","null","html-keyboard-response","97","419311","0.0-25.0-0.0","SS1619740264980","","","null","","","","","","<p><img src= images/blank.png width =""600"" height = ""600"" style=""position:fixed;top:50%; left:50%; transform: translate(-50%, -50%); border:5px solid black"">","","","","","","","",""
"","449.945000000298","sequential-stimulus-presentation-old","98","420265","0.0-25.0-1.0","SS1619740264980","trial","","40","500","949.945000000298","images/stimuli/spore_stims/complex_10_A_a.gif","images/stimuli/spore_stims/complex_16_A_b.gif","self_paced","","8","complex_dissimilar","images/stimuli/spore_stims/complex_16_A_b.gif","","","","",""
"","null","html-keyboard-response","99","421094","0.0-25.0-0.1","SS1619740264980","","","null","","","","","","<p><img src= images/blank.png width =""600"" height = ""600"" style=""position:fixed;top:50%; left:50%; transform: translate(-50%, -50%); border:5px solid black"">","","","","","","","",""
"","1068.8649999992922","sequential-stimulus-presentation-old","100","422666","0.0-25.0-1.1","SS1619740264980","trial","","40","500","1568.8649999992922","images/stimuli/spore_stims/complex_10_A_a.gif","images/stimuli/spore_stims/complex_16_A_b.gif","self_paced","","8","complex_dissimilar","images/stimuli/spore_stims/complex_10_A_a.gif","","","","",""
"","null","html-keyboard-response","101","423679","0.0-25.0-0.2","SS1619740264980","","","null","","","","","","<p><img src= images/blank.png width =""600"" height = ""600"" style=""position:fixed;top:50%; left:50%; transform: translate(-50%, -50%); border:5px solid black"">","","","","","","","",""
"","11507.294999999402","sequential-stimulus-presentation-old","102","435689","0.0-25.0-1.2","SS1619740264980","trial","","40","500","12007.294999999402","images/stimuli/spore_stims/complex_10_A_a.gif","images/stimuli/spore_stims/complex_16_A_b.gif","self_paced","","8","complex_dissimilar","images/stimuli/spore_stims/complex_16_A_b.gif","","","","",""
"","null","html-keyboard-response","103","436705","0.0-25.0-0.3","SS1619740264980","","","null","","","","","","<p><img src= images/blank.png width =""600"" height = ""600"" style=""position:fixed;top:50%; left:50%; transform: translate(-50%, -50%); border:5px solid black"">","","","","","","","",""
"","494.49500000081025","sequential-stimulus-presentation-old","104","437703","0.0-25.0-1.3","SS1619740264980","trial","","40","500","994.4950000008103","images/stimuli/spore_stims/complex_10_A_a.gif","images/stimuli/spore_stims/complex_16_A_b.gif","self_paced","","8","complex_dissimilar","images/stimuli/spore_stims/complex_16_A_b.gif","","","","",""
"","6392.240000001038","survey-multi-choice","105","444097","0.0-26.0","SS1619740264980","math_question","","","","","","","","","","","","{""Q0"":""14""}","[0]","14","",""
"","null","html-keyboard-response","106","445093","0.0-27.0-0.0","SS1619740264980","","","null","","","","","","<p><img src= images/blank.png width =""600"" height = ""600"" style=""position:fixed;top:50%; left:50%; transform: translate(-50%, -50%); border:5px solid black"">","","","","","","","",""
"","19632.72499999951","sequential-stimulus-presentation-old","107","465229","0.0-27.0-1.0","SS1619740264980","trial","","40","500","20132.72499999951","images/stimuli/spore_stims/simple_05_A_b.gif","images/stimuli/spore_stims/simple_09_A_a.gif","self_paced","","9","simple_dissimilar","images/stimuli/spore_stims/simple_09_A_a.gif","","","","",""
"","null","html-keyboard-response","108","466225","0.0-27.0-0.1","SS1619740264980","","","null","","","","","","<p><img src= images/blank.png width =""600"" height = ""600"" style=""position:fixed;top:50%; left:50%; transform: translate(-50%, -50%); border:5px solid black"">","","","","","","","",""
"","402.5450000008568","sequential-stimulus-presentation-old","109","467131","0.0-27.0-1.1","SS1619740264980","trial","","40","500","902.5450000008568","images/stimuli/spore_stims/simple_05_A_b.gif","images/stimuli/spore_stims/simple_09_A_a.gif","self_paced","","9","simple_dissimilar","images/stimuli/spore_stims/simple_05_A_b.gif","","","","",""
"","null","html-keyboard-response","110","468169","0.0-27.0-0.2","SS1619740264980","","","null","","","","","","<p><img src= images/blank.png width =""600"" height = ""600"" style=""position:fixed;top:50%; left:50%; transform: translate(-50%, -50%); border:5px solid black"">","","","","","","","",""
"","233.3799999996554","sequential-stimulus-presentation-old","111","468905","0.0-27.0-1.2","SS1619740264980","trial","","40","500","733.3799999996554","images/stimuli/spore_stims/simple_05_A_b.gif","images/stimuli/spore_stims/simple_09_A_a.gif","self_paced","","9","simple_dissimilar","images/stimuli/spore_stims/simple_09_A_a.gif","","","","",""
"","null","html-keyboard-response","112","470148","0.0-27.0-0.3","SS1619740264980","","","null","","","","","","<p><img src= images/blank.png width =""600"" height = ""600"" style=""position:fixed;top:50%; left:50%; transform: translate(-50%, -50%); border:5px solid black"">","","","","","","","",""
"","276.4050000005518","sequential-stimulus-presentation-old","113","470927","0.0-27.0-1.3","SS1619740264980","trial","","40","500","776.4050000005518","images/stimuli/spore_stims/simple_05_A_b.gif","images/stimuli/spore_stims/simple_09_A_a.gif","self_paced","","9","simple_dissimilar","images/stimuli/spore_stims/simple_09_A_a.gif","","","","",""
"","4367.795000000158","survey-multi-choice","114","475296","0.0-28.0","SS1619740264980","math_question","","","","","","","","","","","","{""Q0"":""15""}","[0]","15","",""
"","null","html-keyboard-response","115","476309","0.0-29.0-0.0","SS1619740264980","","","null","","","","","","<p><img src= images/blank.png width =""600"" height = ""600"" style=""position:fixed;top:50%; left:50%; transform: translate(-50%, -50%); border:5px solid black"">","","","","","","","",""
"","609.2399999997579","sequential-stimulus-presentation-old","116","477422","0.0-29.0-1.0","SS1619740264980","trial","","40","500","1109.2399999997579","images/stimuli/spore_stims/simple_10_A_b.gif","images/stimuli/spore_stims/simple_12_A_a.gif","forced_short","","10","simple_dissimilar","images/stimuli/spore_stims/simple_12_A_a.gif","","","","",""
"","null","html-keyboard-response","117","478470","0.0-29.0-0.1","SS1619740264980","","","null","","","","","","<p><img src= images/blank.png width =""600"" height = ""600"" style=""position:fixed;top:50%; left:50%; transform: translate(-50%, -50%); border:5px solid black"">","","","","","","","",""
"","467.8349999994389","sequential-stimulus-presentation-old","118","479440","0.0-29.0-1.1","SS1619740264980","trial","","40","500","967.8349999994389","images/stimuli/spore_stims/simple_10_A_b.gif","images/stimuli/spore_stims/simple_12_A_a.gif","forced_short","","10","simple_dissimilar","images/stimuli/spore_stims/simple_12_A_a.gif","","","","",""
"","null","html-keyboard-response","119","480335","0.0-29.0-0.2","SS1619740264980","","","null","","","","","","<p><img src= images/blank.png width =""600"" height = ""600"" style=""position:fixed;top:50%; left:50%; transform: translate(-50%, -50%); border:5px solid black"">","","","","","","","",""
"","6.585000001010485","sequential-stimulus-presentation-old","120","480844","0.0-29.0-1.2","SS1619740264980","trial","","40","500","506.5850000010105","images/stimuli/spore_stims/simple_10_A_b.gif","images/stimuli/spore_stims/simple_12_A_a.gif","forced_short","","10","simple_dissimilar","images/stimuli/spore_stims/simple_12_A_a.gif","","","","",""
"","null","html-keyboard-response","121","482033","0.0-29.0-0.3","SS1619740264980","","","null","","","","","","<p><img src= images/blank.png width =""600"" height = ""600"" style=""position:fixed;top:50%; left:50%; transform: translate(-50%, -50%); border:5px solid black"">","","","","","","","",""
"","16965.129999998666","sequential-stimulus-presentation-old","122","499784","0.0-29.0-1.3","SS1619740264980","trial","","40","500","17465.129999998666","images/stimuli/spore_stims/simple_10_A_b.gif","images/stimuli/spore_stims/simple_12_A_a.gif","forced_short","","10","simple_dissimilar","images/stimuli/spore_stims/simple_12_A_a.gif","","","","",""
"","null","html-keyboard-response","123","500737","0.0-29.0-0.4","SS1619740264980","","","null","","","","","","<p><img src= images/blank.png width =""600"" height = ""600"" style=""position:fixed;top:50%; left:50%; transform: translate(-50%, -50%); border:5px solid black"">","","","","","","","",""
"","5123.610000000568","sequential-stimulus-presentation-old","124","506364","0.0-29.0-1.4","SS1619740264980","trial","","40","500","5623.610000000568","images/stimuli/spore_stims/simple_10_A_b.gif","images/stimuli/spore_stims/simple_12_A_a.gif","forced_short","","10","simple_dissimilar","images/stimuli/spore_stims/simple_12_A_a.gif","","","","",""
"","null","html-keyboard-response","125","507234","0.0-29.0-0.5","SS1619740264980","","","null","","","","","","<p><img src= images/blank.png width =""600"" height = ""600"" style=""position:fixed;top:50%; left:50%; transform: translate(-50%, -50%); border:5px solid black"">","","","","","","","",""
"","353.6399999993737","sequential-stimulus-presentation-old","126","508091","0.0-29.0-1.5","SS1619740264980","trial","","40","500","853.6399999993737","images/stimuli/spore_stims/simple_10_A_b.gif","images/stimuli/spore_stims/simple_12_A_a.gif","forced_short","","10","simple_dissimilar","images/stimuli/spore_stims/simple_12_A_a.gif","","","","",""
"","4648.820000000298","survey-multi-choice","127","512741","0.0-30.0","SS1619740264980","math_question","","","","","","","","","","","","{""Q0"":""3""}","[0]","3","",""
"","null","html-keyboard-response","128","513964","0.0-31.0-0.0","SS1619740264980","","","null","","","","","","<p><img src= images/blank.png width =""600"" height = ""600"" style=""position:fixed;top:50%; left:50%; transform: translate(-50%, -50%); border:5px solid black"">","","","","","","","",""
"","171.6600000000326","sequential-stimulus-presentation-old","129","514638","0.0-31.0-1.0","SS1619740264980","trial","","40","500","671.6600000000326","images/stimuli/spore_stims/simple_04_A_a.gif","images/stimuli/spore_stims/simple_09_A_b.gif","self_paced","","11","simple_dissimilar","images/stimuli/spore_stims/simple_09_A_b.gif","","","","",""
"","null","html-keyboard-response","130","515443","0.0-31.0-0.1","SS1619740264980","","","null","","","","","","<p><img src= images/blank.png width =""600"" height = ""600"" style=""position:fixed;top:50%; left:50%; transform: translate(-50%, -50%); border:5px solid black"">","","","","","","","",""
"","954.7050000000745","sequential-stimulus-presentation-old","131","516900","0.0-31.0-1.1","SS1619740264980","trial","","40","500","1454.7050000000745","images/stimuli/spore_stims/simple_04_A_a.gif","images/stimuli/spore_stims/simple_09_A_b.gif","self_paced","","11","simple_dissimilar","images/stimuli/spore_stims/simple_09_A_b.gif","","","","",""
"","null","html-keyboard-response","132","518138","0.0-31.0-0.2","SS1619740264980","","","null","","","","","","<p><img src= images/blank.png width =""600"" height = ""600"" style=""position:fixed;top:50%; left:50%; transform: translate(-50%, -50%); border:5px solid black"">","","","","","","","",""
"","103.82999999995809","sequential-stimulus-presentation-old","133","518745","0.0-31.0-1.2","SS1619740264980","trial","","40","500","603.8299999999581","images/stimuli/spore_stims/simple_04_A_a.gif","images/stimuli/spore_stims/simple_09_A_b.gif","self_paced","","11","simple_dissimilar","images/stimuli/spore_stims/simple_09_A_b.gif","","","","",""
"","null","html-keyboard-response","134","519962","0.0-31.0-0.3","SS1619740264980","","","null","","","","","","<p><img src= images/blank.png width =""600"" height = ""600"" style=""position:fixed;top:50%; left:50%; transform: translate(-50%, -50%); border:5px solid black"">","","","","","","","",""
"","879.5300000001444","sequential-stimulus-presentation-old","135","521345","0.0-31.0-1.3","SS1619740264980","trial","","40","500","1379.5300000001444","images/stimuli/spore_stims/simple_04_A_a.gif","images/stimuli/spore_stims/simple_09_A_b.gif","self_paced","","11","simple_dissimilar","images/stimuli/spore_stims/simple_09_A_b.gif","","","","",""
"","null","html-keyboard-response","136","522451","0.0-31.0-0.4","SS1619740264980","","","null","","","","","","<p><img src= images/blank.png width =""600"" height = ""600"" style=""position:fixed;top:50%; left:50%; transform: translate(-50%, -50%); border:5px solid black"">","","","","","","","",""
"","93.12000000139233","sequential-stimulus-presentation-old","137","523047","0.0-31.0-1.4","SS1619740264980","trial","","40","500","593.1200000013923","images/stimuli/spore_stims/simple_04_A_a.gif","images/stimuli/spore_stims/simple_09_A_b.gif","self_paced","","11","simple_dissimilar","images/stimuli/spore_stims/simple_09_A_b.gif","","","","",""
"","null","html-keyboard-response","138","523932","0.0-31.0-0.5","SS1619740264980","","","null","","","","","","<p><img src= images/blank.png width =""600"" height = ""600"" style=""position:fixed;top:50%; left:50%; transform: translate(-50%, -50%); border:5px solid black"">","","","","","","","",""
"","2201.6999999997206","sequential-stimulus-presentation-old","139","526636","0.0-31.0-1.5","SS1619740264980","trial","","40","500","2701.6999999997206","images/stimuli/spore_stims/simple_04_A_a.gif","images/stimuli/spore_stims/simple_09_A_b.gif","self_paced","","11","simple_dissimilar","images/stimuli/spore_stims/simple_09_A_b.gif","","","","",""
"[{""page_index"":0,""viewing_time"":9182.989999999292}]","9183.559999999474","instructions","140","535821","0.0-32.0","SS1619740264980","instructions","","","","","","","","","","","","","","","",""
"","10230.360000001383","survey-likert","141","546055","0.0-33.0","SS1619740264980","similarity_question","","","","","","","","","","","","{""Q0"":5}","[0]","","images/stimuli/spore_stims/simple_09_A_b.gif","images/stimuli/spore_stims/simple_04_A_a.gif"
"","6538.214999998687","survey-likert","142","552596","0.0-34.0","SS1619740264980","similarity_question","","","","","","","","","","","","{""Q0"":3}","[0]","","images/stimuli/spore_stims/simple_12_A_a.gif","images/stimuli/spore_stims/simple_10_A_b.gif"
"","4222.309999999241","survey-likert","143","556821","0.0-35.0","SS1619740264980","similarity_question","","","","","","","","","","","","{""Q0"":2}","[0]","","images/stimuli/spore_stims/complex_08_A_b.gif","images/stimuli/spore_stims/complex_02_A_a.gif"
"","3687.6049999991665","survey-likert","144","560511","0.0-36.0","SS1619740264980","similarity_question","","","","","","","","","","","","{""Q0"":1}","[0]","","images/stimuli/spore_stims/simple_08_A_b.gif","images/stimuli/spore_stims/simple_11_A_a.gif"
"","2517.9950000001118","survey-likert","145","563032","0.0-37.0","SS1619740264980","similarity_question","","","","","","","","","","","","{""Q0"":2}","[0]","","images/stimuli/spore_stims/complex_04_A_b.gif","images/stimuli/spore_stims/complex_07_A_a.gif"
"","2848.115000000689","survey-likert","146","565883","0.0-38.0","SS1619740264980","similarity_question","","","","","","","","","","","","{""Q0"":4}","[0]","","images/stimuli/spore_stims/simple_16_A_b.gif","images/stimuli/spore_stims/simple_15_A_a.gif"
"","5023.129999999539","survey-likert","147","570909","0.0-39.0","SS1619740264980","similarity_question","","","","","","","","","","","","{""Q0"":3}","[0]","","images/stimuli/spore_stims/simple_09_A_a.gif","images/stimuli/spore_stims/simple_05_A_b.gif"
"","1854.7999999991152","survey-likert","148","572767","0.0-40.0","SS1619740264980","similarity_question","","","","","","","","","","","","{""Q0"":3}","[0]","","images/stimuli/spore_stims/complex_17_A_a.gif","images/stimuli/spore_stims/complex_15_A_b.gif"
"","3104.0900000007823","survey-likert","149","575874","0.0-41.0","SS1619740264980","similarity_question","","","","","","","","","","","","{""Q0"":4}","[0]","","images/stimuli/spore_stims/complex_03_A_a.gif","images/stimuli/spore_stims/complex_20_A_b.gif"
"","2048.419999999227","survey-likert","150","577925","0.0-42.0","SS1619740264980","similarity_question","","","","","","","","","","","","{""Q0"":3}","[0]","","images/stimuli/spore_stims/complex_10_A_a.gif","images/stimuli/spore_stims/complex_16_A_b.gif"
"","2723.0149999995483","survey-likert","151","580651","0.0-43.0","SS1619740264980","similarity_question","","","","","","","","","","","","{""Q0"":3}","[0]","","images/stimuli/spore_stims/simple_17_A_a.gif","images/stimuli/spore_stims/simple_07_A_b.gif"
"","5986.129999999306","survey-likert","152","586640","0.0-44.0","SS1619740264980","similarity_question","","","","","","","","","","","","{""Q0"":3}","[0]","","images/stimuli/spore_stims/complex_19_A_a.gif","images/stimuli/spore_stims/complex_09_A_b.gif"
"[{""page_index"":0,""viewing_time"":1330.625000000582}]","1330.8600000001024","instructions","153","587973","0.0-45.0","SS1619740264980","instructions","","","","","","","","","","","","","","","",""
"","7419.68999999878","survey-likert","154","595395","0.0-46.0","SS1619740264980","","","","","","","","","images/stimuli/spore_stims/simple_05_A_b.gif","","","","{""Q0"":0}","[0]","","",""
"","7731.294999999576","survey-likert","155","603129","0.0-47.0","SS1619740264980","","","","","","","","","images/stimuli/spore_stims/complex_03_A_a.gif","","","","{""Q0"":5}","[0]","","",""
"","2811.265000000363","survey-likert","156","605943","0.0-48.0","SS1619740264980","","","","","","","","","images/stimuli/spore_stims/complex_09_A_b.gif","","","","{""Q0"":5}","[0]","","",""
"","2539.6799999998184","survey-likert","157","608485","0.0-49.0","SS1619740264980","","","","","","","","","images/stimuli/spore_stims/simple_15_A_a.gif","","","","{""Q0"":1}","[0]","","",""
"","1717.189999999362","survey-likert","158","610205","0.0-50.0","SS1619740264980","","","","","","","","","images/stimuli/spore_stims/simple_07_A_b.gif","","","","{""Q0"":1}","[0]","","",""
"","2357.074999999837","survey-likert","159","612565","0.0-51.0","SS1619740264980","","","","","","","","","images/stimuli/spore_stims/complex_16_A_b.gif","","","","{""Q0"":6}","[0]","","",""
"","2000.4050000007264","survey-likert","160","614568","0.0-52.0","SS1619740264980","","","","","","","","","images/stimuli/spore_stims/simple_09_A_b.gif","","","","{""Q0"":1}","[0]","","",""
"","2046.139999998617","survey-likert","161","616618","0.0-53.0","SS1619740264980","","","","","","","","","images/stimuli/spore_stims/simple_11_A_a.gif","","","","{""Q0"":2}","[0]","","",""
"","1962.0399999985239","survey-likert","162","618583","0.0-54.0","SS1619740264980","","","","","","","","","images/stimuli/spore_stims/complex_08_A_b.gif","","","","{""Q0"":4}","[0]","","",""
"","1446.4750000006752","survey-likert","163","620032","0.0-55.0","SS1619740264980","","","","","","","","","images/stimuli/spore_stims/simple_12_A_a.gif","","","","{""Q0"":1}","[0]","","",""
"","2325.1650000001537","survey-likert","164","622360","0.0-56.0","SS1619740264980","","","","","","","","","images/stimuli/spore_stims/complex_17_A_a.gif","","","","{""Q0"":5}","[0]","","",""
"","1679.1699999994598","survey-likert","165","624042","0.0-57.0","SS1619740264980","","","","","","","","","images/stimuli/spore_stims/complex_07_A_a.gif","","","","{""Q0"":6}","[0]","","",""
"[{""page_index"":0,""viewing_time"":2475.6300000008196}]","2475.910000000964","instructions","166","626520","0.0-58.0","SS1619740264980","instructions","","","","","","","","","","","","","","","",""
"","8731.955000001122","demog-age","167","635255","0.0-59.0","SS1619740264980","","","","","","","","","","","","","{""age"":""28""}","","","",""
"","7507.250000000582","demog-ethnic-US","168","642767","0.0-60.0","SS1619740264980","","","","","","","","","","","","","{""ethnicity"":[""White""]}","[0]","","",""
"","8929.05499999877","demog-gender-and-education","169","651699","0.0-61.0","SS1619740264980","","","","","","","","","","","","","{""gender"":""Male"",""education"":""Master's Degree""}","[0,1]","","",""
"","28965.89999999921","survey-text","170","680668","0.0-62.0","SS1619740264980","feedback","","","","","","","","","","","","{""Q0"":""nothing, is war a good experiment no laggy very clear !""}","","","",""
"[{""page_index"":0,""viewing_time"":2829.354999999865}]","2829.5949999992736","instructions","171","683500","0.0-63.0","SS1619740264980","instructions","","","","","","","","","","","","","","","",""
