"view_history","rt","trial_type","trial_index","time_elapsed","internal_node_id","subject","stimulus_type","trial_stimulus","key_press","minimum_viewing_duration","trial_looking_time","block_deviant","block_background","exposure_type","stimulus","block_number","block_type","stimulus_displayed","responses","question_order","math_correct_answer","stimulus_left","stimulus_right"
"[{""page_index"":0,""viewing_time"":10311}]","10311","instructions","0","10315","0.0-0.0","SS1619740024427","","","","","","","","","","","","","","","","",""
"[{""page_index"":0,""viewing_time"":20044},{""page_index"":1,""viewing_time"":9945}]","29989","instructions","1","42313","0.0-1.0","SS1619740024427","instructions","","","","","","","","","","","","","","","",""
"","12923","sequential-stimulus-presentation-old","2","55746","0.0-2.0","SS1619740024427","","","40","500","13423","null","null","self_paced","","","","","","","","",""
"","8435","sequential-stimulus-presentation-old","3","64686","0.0-3.0","SS1619740024427","","","40","500","8935","null","null","self_paced","","","","","","","","",""
"[{""page_index"":0,""viewing_time"":38900}]","38900","instructions","4","103591","0.0-4.0","SS1619740024427","instructions","","","","","","","","","","","","","","","",""
"","2179","sequential-stimulus-presentation-old","5","120779","0.0-5.0","SS1619740024427","","","40","500","2679","null","null","forced_long","","","","","","","","",""
"","5575","sequential-stimulus-presentation-old","6","126865","0.0-6.0","SS1619740024427","","","40","500","6075","null","null","forced_long","","","","","","","","",""
"[{""page_index"":0,""viewing_time"":28985}]","28986","instructions","7","155855","0.0-7.0","SS1619740024427","instructions","","","","","","","","","","","","","","","",""
"[{""page_index"":0,""viewing_time"":13771},{""page_index"":1,""viewing_time"":19736},{""page_index"":2,""viewing_time"":11271},{""page_index"":3,""viewing_time"":1976},{""page_index"":4,""viewing_time"":1792}]","48547","instructions","8","204406","0.0-8.0","SS1619740024427","instructions","","","","","","","","","","","","","","","",""
"","null","html-keyboard-response","9","205289","0.0-9.0-0.0","SS1619740024427","","","null","","","","","","<p><img src= images/blank.png width =""600"" height = ""600"" style=""position:fixed;top:50%; left:50%; transform: translate(-50%, -50%); border:5px solid black"">","","","","","","","",""
"","9364","sequential-stimulus-presentation-old","10","215162","0.0-9.0-1.0","SS1619740024427","trial","","40","500","9864","images/stimuli/spore_stims/complex_12_A_a.gif","images/stimuli/spore_stims/complex_13_A_b.gif","self_paced","","0","complex_dissimilar","images/stimuli/spore_stims/complex_13_A_b.gif","","","","",""
"","null","html-keyboard-response","11","216288","0.0-9.0-0.1","SS1619740024427","","","null","","","","","","<p><img src= images/blank.png width =""600"" height = ""600"" style=""position:fixed;top:50%; left:50%; transform: translate(-50%, -50%); border:5px solid black"">","","","","","","","",""
"","13154","sequential-stimulus-presentation-old","12","229952","0.0-9.0-1.1","SS1619740024427","trial","","40","500","13654","images/stimuli/spore_stims/complex_12_A_a.gif","images/stimuli/spore_stims/complex_13_A_b.gif","self_paced","","0","complex_dissimilar","images/stimuli/spore_stims/complex_13_A_b.gif","","","","",""
"","null","html-keyboard-response","13","230989","0.0-9.0-0.2","SS1619740024427","","","null","","","","","","<p><img src= images/blank.png width =""600"" height = ""600"" style=""position:fixed;top:50%; left:50%; transform: translate(-50%, -50%); border:5px solid black"">","","","","","","","",""
"","3904","sequential-stimulus-presentation-old","14","235403","0.0-9.0-1.2","SS1619740024427","trial","","40","500","4404","images/stimuli/spore_stims/complex_12_A_a.gif","images/stimuli/spore_stims/complex_13_A_b.gif","self_paced","","0","complex_dissimilar","images/stimuli/spore_stims/complex_12_A_a.gif","","","","",""
"","null","html-keyboard-response","15","236268","0.0-9.0-0.3","SS1619740024427","","","null","","","","","","<p><img src= images/blank.png width =""600"" height = ""600"" style=""position:fixed;top:50%; left:50%; transform: translate(-50%, -50%); border:5px solid black"">","","","","","","","",""
"","2474","sequential-stimulus-presentation-old","16","239253","0.0-9.0-1.3","SS1619740024427","trial","","40","500","2974","images/stimuli/spore_stims/complex_12_A_a.gif","images/stimuli/spore_stims/complex_13_A_b.gif","self_paced","","0","complex_dissimilar","images/stimuli/spore_stims/complex_13_A_b.gif","","","","",""
"","null","html-keyboard-response","17","240288","0.0-9.0-0.4","SS1619740024427","","","null","","","","","","<p><img src= images/blank.png width =""600"" height = ""600"" style=""position:fixed;top:50%; left:50%; transform: translate(-50%, -50%); border:5px solid black"">","","","","","","","",""
"","6106","sequential-stimulus-presentation-old","18","246905","0.0-9.0-1.4","SS1619740024427","trial","","40","500","6606","images/stimuli/spore_stims/complex_12_A_a.gif","images/stimuli/spore_stims/complex_13_A_b.gif","self_paced","","0","complex_dissimilar","images/stimuli/spore_stims/complex_13_A_b.gif","","","","",""
"","null","html-keyboard-response","19","247918","0.0-9.0-0.5","SS1619740024427","","","null","","","","","","<p><img src= images/blank.png width =""600"" height = ""600"" style=""position:fixed;top:50%; left:50%; transform: translate(-50%, -50%); border:5px solid black"">","","","","","","","",""
"","23674","sequential-stimulus-presentation-old","20","272104","0.0-9.0-1.5","SS1619740024427","trial","","40","500","24174","images/stimuli/spore_stims/complex_12_A_a.gif","images/stimuli/spore_stims/complex_13_A_b.gif","self_paced","","0","complex_dissimilar","images/stimuli/spore_stims/complex_13_A_b.gif","","","","",""
"","10016","survey-multi-choice","21","282124","0.0-10.0","SS1619740024427","math_question","","","","","","","","","","","","{""Q0"":""3""}","[0]","3","",""
"","null","html-keyboard-response","22","283078","0.0-11.0-0.0","SS1619740024427","","","null","","","","","","<p><img src= images/blank.png width =""600"" height = ""600"" style=""position:fixed;top:50%; left:50%; transform: translate(-50%, -50%); border:5px solid black"">","","","","","","","",""
"","2186","sequential-stimulus-presentation-old","23","300274","0.0-11.0-1.0","SS1619740024427","trial","","40","500","2686","images/stimuli/spore_stims/simple_18_A_a.gif","images/stimuli/spore_stims/simple_20_A_b.gif","forced_long","","1","simple_dissimilar","images/stimuli/spore_stims/simple_20_A_b.gif","","","","",""
"","null","html-keyboard-response","24","301477","0.0-11.0-0.1","SS1619740024427","","","null","","","","","","<p><img src= images/blank.png width =""600"" height = ""600"" style=""position:fixed;top:50%; left:50%; transform: translate(-50%, -50%); border:5px solid black"">","","","","","","","",""
"","17843","sequential-stimulus-presentation-old","25","319830","0.0-11.0-1.1","SS1619740024427","trial","","40","500","18343","images/stimuli/spore_stims/simple_18_A_a.gif","images/stimuli/spore_stims/simple_20_A_b.gif","forced_long","","1","simple_dissimilar","images/stimuli/spore_stims/simple_18_A_a.gif","","","","",""
"","null","html-keyboard-response","26","321027","0.0-11.0-0.2","SS1619740024427","","","null","","","","","","<p><img src= images/blank.png width =""600"" height = ""600"" style=""position:fixed;top:50%; left:50%; transform: translate(-50%, -50%); border:5px solid black"">","","","","","","","",""
"","6702","sequential-stimulus-presentation-old","27","328239","0.0-11.0-1.2","SS1619740024427","trial","","40","500","7202","images/stimuli/spore_stims/simple_18_A_a.gif","images/stimuli/spore_stims/simple_20_A_b.gif","forced_long","","1","simple_dissimilar","images/stimuli/spore_stims/simple_20_A_b.gif","","","","",""
"","null","html-keyboard-response","28","329107","0.0-11.0-0.3","SS1619740024427","","","null","","","","","","<p><img src= images/blank.png width =""600"" height = ""600"" style=""position:fixed;top:50%; left:50%; transform: translate(-50%, -50%); border:5px solid black"">","","","","","","","",""
"","6343","sequential-stimulus-presentation-old","29","335960","0.0-11.0-1.3","SS1619740024427","trial","","40","500","6843","images/stimuli/spore_stims/simple_18_A_a.gif","images/stimuli/spore_stims/simple_20_A_b.gif","forced_long","","1","simple_dissimilar","images/stimuli/spore_stims/simple_18_A_a.gif","","","","",""
"","null","html-keyboard-response","30","337187","0.0-11.0-0.4","SS1619740024427","","","null","","","","","","<p><img src= images/blank.png width =""600"" height = ""600"" style=""position:fixed;top:50%; left:50%; transform: translate(-50%, -50%); border:5px solid black"">","","","","","","","",""
"","10904","sequential-stimulus-presentation-old","31","348601","0.0-11.0-1.4","SS1619740024427","trial","","40","500","11404","images/stimuli/spore_stims/simple_18_A_a.gif","images/stimuli/spore_stims/simple_20_A_b.gif","forced_long","","1","simple_dissimilar","images/stimuli/spore_stims/simple_20_A_b.gif","","","","",""
"","null","html-keyboard-response","32","349776","0.0-11.0-0.5","SS1619740024427","","","null","","","","","","<p><img src= images/blank.png width =""600"" height = ""600"" style=""position:fixed;top:50%; left:50%; transform: translate(-50%, -50%); border:5px solid black"">","","","","","","","",""
"","12072","sequential-stimulus-presentation-old","33","362359","0.0-11.0-1.5","SS1619740024427","trial","","40","500","12572","images/stimuli/spore_stims/simple_18_A_a.gif","images/stimuli/spore_stims/simple_20_A_b.gif","forced_long","","1","simple_dissimilar","images/stimuli/spore_stims/simple_20_A_b.gif","","","","",""
"","8432","survey-multi-choice","34","370797","0.0-12.0","SS1619740024427","math_question","","","","","","","","","","","","{""Q0"":""3""}","[0]","3","",""
"","null","html-keyboard-response","35","371858","0.0-13.0-0.0","SS1619740024427","","","null","","","","","","<p><img src= images/blank.png width =""600"" height = ""600"" style=""position:fixed;top:50%; left:50%; transform: translate(-50%, -50%); border:5px solid black"">","","","","","","","",""
"","5519","sequential-stimulus-presentation-old","36","392386","0.0-13.0-1.0","SS1619740024427","trial","","40","500","6019","images/stimuli/spore_stims/complex_08_A_b.gif","images/stimuli/spore_stims/complex_01_A_a.gif","forced_long","","2","complex_dissimilar","images/stimuli/spore_stims/complex_01_A_a.gif","","","","",""
"","null","html-keyboard-response","37","393457","0.0-13.0-0.1","SS1619740024427","","","null","","","","","","<p><img src= images/blank.png width =""600"" height = ""600"" style=""position:fixed;top:50%; left:50%; transform: translate(-50%, -50%); border:5px solid black"">","","","","","","","",""
"","3972","sequential-stimulus-presentation-old","38","397940","0.0-13.0-1.1","SS1619740024427","trial","","40","500","4472","images/stimuli/spore_stims/complex_08_A_b.gif","images/stimuli/spore_stims/complex_01_A_a.gif","forced_long","","2","complex_dissimilar","images/stimuli/spore_stims/complex_01_A_a.gif","","","","",""
"","null","html-keyboard-response","39","399126","0.0-13.0-0.2","SS1619740024427","","","null","","","","","","<p><img src= images/blank.png width =""600"" height = ""600"" style=""position:fixed;top:50%; left:50%; transform: translate(-50%, -50%); border:5px solid black"">","","","","","","","",""
"","742","sequential-stimulus-presentation-old","40","400380","0.0-13.0-1.2","SS1619740024427","trial","","40","500","1242","images/stimuli/spore_stims/complex_08_A_b.gif","images/stimuli/spore_stims/complex_01_A_a.gif","forced_long","","2","complex_dissimilar","images/stimuli/spore_stims/complex_01_A_a.gif","","","","",""
"","null","html-keyboard-response","41","401346","0.0-13.0-0.3","SS1619740024427","","","null","","","","","","<p><img src= images/blank.png width =""600"" height = ""600"" style=""position:fixed;top:50%; left:50%; transform: translate(-50%, -50%); border:5px solid black"">","","","","","","","",""
"","3456","sequential-stimulus-presentation-old","42","405314","0.0-13.0-1.3","SS1619740024427","trial","","40","500","3956","images/stimuli/spore_stims/complex_08_A_b.gif","images/stimuli/spore_stims/complex_01_A_a.gif","forced_long","","2","complex_dissimilar","images/stimuli/spore_stims/complex_08_A_b.gif","","","","",""
"","null","html-keyboard-response","43","406316","0.0-13.0-0.4","SS1619740024427","","","null","","","","","","<p><img src= images/blank.png width =""600"" height = ""600"" style=""position:fixed;top:50%; left:50%; transform: translate(-50%, -50%); border:5px solid black"">","","","","","","","",""
"","1701","sequential-stimulus-presentation-old","44","408527","0.0-13.0-1.4","SS1619740024427","trial","","40","500","2201","images/stimuli/spore_stims/complex_08_A_b.gif","images/stimuli/spore_stims/complex_01_A_a.gif","forced_long","","2","complex_dissimilar","images/stimuli/spore_stims/complex_08_A_b.gif","","","","",""
"","20726","survey-multi-choice","45","429258","0.0-14.0","SS1619740024427","math_question","","","","","","","","","","","","{""Q0"":""14""}","[0]","14","",""
"","null","html-keyboard-response","46","430106","0.0-15.0-0.0","SS1619740024427","","","null","","","","","","<p><img src= images/blank.png width =""600"" height = ""600"" style=""position:fixed;top:50%; left:50%; transform: translate(-50%, -50%); border:5px solid black"">","","","","","","","",""
"","1405","sequential-stimulus-presentation-old","47","432023","0.0-15.0-1.0","SS1619740024427","trial","","40","500","1905","images/stimuli/spore_stims/complex_07_A_a.gif","images/stimuli/spore_stims/complex_02_A_b.gif","forced_short","","3","complex_dissimilar","images/stimuli/spore_stims/complex_02_A_b.gif","","","","",""
"","null","html-keyboard-response","48","432927","0.0-15.0-0.1","SS1619740024427","","","null","","","","","","<p><img src= images/blank.png width =""600"" height = ""600"" style=""position:fixed;top:50%; left:50%; transform: translate(-50%, -50%); border:5px solid black"">","","","","","","","",""
"","7976","sequential-stimulus-presentation-old","49","441412","0.0-15.0-1.1","SS1619740024427","trial","","40","500","8476","images/stimuli/spore_stims/complex_07_A_a.gif","images/stimuli/spore_stims/complex_02_A_b.gif","forced_short","","3","complex_dissimilar","images/stimuli/spore_stims/complex_02_A_b.gif","","","","",""
"","null","html-keyboard-response","50","442566","0.0-15.0-0.2","SS1619740024427","","","null","","","","","","<p><img src= images/blank.png width =""600"" height = ""600"" style=""position:fixed;top:50%; left:50%; transform: translate(-50%, -50%); border:5px solid black"">","","","","","","","",""
"","5764","sequential-stimulus-presentation-old","51","448840","0.0-15.0-1.2","SS1619740024427","trial","","40","500","6264","images/stimuli/spore_stims/complex_07_A_a.gif","images/stimuli/spore_stims/complex_02_A_b.gif","forced_short","","3","complex_dissimilar","images/stimuli/spore_stims/complex_02_A_b.gif","","","","",""
"","null","html-keyboard-response","52","449805","0.0-15.0-0.3","SS1619740024427","","","null","","","","","","<p><img src= images/blank.png width =""600"" height = ""600"" style=""position:fixed;top:50%; left:50%; transform: translate(-50%, -50%); border:5px solid black"">","","","","","","","",""
"","8826","sequential-stimulus-presentation-old","53","459142","0.0-15.0-1.3","SS1619740024427","trial","","40","500","9326","images/stimuli/spore_stims/complex_07_A_a.gif","images/stimuli/spore_stims/complex_02_A_b.gif","forced_short","","3","complex_dissimilar","images/stimuli/spore_stims/complex_07_A_a.gif","","","","",""
"","null","html-keyboard-response","54","460185","0.0-15.0-0.4","SS1619740024427","","","null","","","","","","<p><img src= images/blank.png width =""600"" height = ""600"" style=""position:fixed;top:50%; left:50%; transform: translate(-50%, -50%); border:5px solid black"">","","","","","","","",""
"","3878","sequential-stimulus-presentation-old","55","464574","0.0-15.0-1.4","SS1619740024427","trial","","40","500","4378","images/stimuli/spore_stims/complex_07_A_a.gif","images/stimuli/spore_stims/complex_02_A_b.gif","forced_short","","3","complex_dissimilar","images/stimuli/spore_stims/complex_07_A_a.gif","","","","",""
"","null","html-keyboard-response","56","465656","0.0-15.0-0.5","SS1619740024427","","","null","","","","","","<p><img src= images/blank.png width =""600"" height = ""600"" style=""position:fixed;top:50%; left:50%; transform: translate(-50%, -50%); border:5px solid black"">","","","","","","","",""
"","849","sequential-stimulus-presentation-old","57","467014","0.0-15.0-1.5","SS1619740024427","trial","","40","500","1349","images/stimuli/spore_stims/complex_07_A_a.gif","images/stimuli/spore_stims/complex_02_A_b.gif","forced_short","","3","complex_dissimilar","images/stimuli/spore_stims/complex_02_A_b.gif","","","","",""
"","6430","survey-multi-choice","58","473450","0.0-16.0","SS1619740024427","math_question","","","","","","","","","","","","{""Q0"":""6""}","[0]","6","",""
"","null","html-keyboard-response","59","474405","0.0-17.0-0.0","SS1619740024427","","","null","","","","","","<p><img src= images/blank.png width =""600"" height = ""600"" style=""position:fixed;top:50%; left:50%; transform: translate(-50%, -50%); border:5px solid black"">","","","","","","","",""
"","830","sequential-stimulus-presentation-old","60","490245","0.0-17.0-1.0","SS1619740024427","trial","","40","500","1330","images/stimuli/spore_stims/simple_04_A_a.gif","images/stimuli/spore_stims/simple_15_A_b.gif","forced_long","","4","simple_dissimilar","images/stimuli/spore_stims/simple_15_A_b.gif","","","","",""
"","null","html-keyboard-response","61","491355","0.0-17.0-0.1","SS1619740024427","","","null","","","","","","<p><img src= images/blank.png width =""600"" height = ""600"" style=""position:fixed;top:50%; left:50%; transform: translate(-50%, -50%); border:5px solid black"">","","","","","","","",""
"","4398","sequential-stimulus-presentation-old","62","496263","0.0-17.0-1.1","SS1619740024427","trial","","40","500","4898","images/stimuli/spore_stims/simple_04_A_a.gif","images/stimuli/spore_stims/simple_15_A_b.gif","forced_long","","4","simple_dissimilar","images/stimuli/spore_stims/simple_04_A_a.gif","","","","",""
"","null","html-keyboard-response","63","497435","0.0-17.0-0.2","SS1619740024427","","","null","","","","","","<p><img src= images/blank.png width =""600"" height = ""600"" style=""position:fixed;top:50%; left:50%; transform: translate(-50%, -50%); border:5px solid black"">","","","","","","","",""
"","4181","sequential-stimulus-presentation-old","64","502126","0.0-17.0-1.2","SS1619740024427","trial","","40","500","4681","images/stimuli/spore_stims/simple_04_A_a.gif","images/stimuli/spore_stims/simple_15_A_b.gif","forced_long","","4","simple_dissimilar","images/stimuli/spore_stims/simple_15_A_b.gif","","","","",""
"","null","html-keyboard-response","65","503335","0.0-17.0-0.3","SS1619740024427","","","null","","","","","","<p><img src= images/blank.png width =""600"" height = ""600"" style=""position:fixed;top:50%; left:50%; transform: translate(-50%, -50%); border:5px solid black"">","","","","","","","",""
"","3834","sequential-stimulus-presentation-old","66","507679","0.0-17.0-1.3","SS1619740024427","trial","","40","500","4334","images/stimuli/spore_stims/simple_04_A_a.gif","images/stimuli/spore_stims/simple_15_A_b.gif","forced_long","","4","simple_dissimilar","images/stimuli/spore_stims/simple_15_A_b.gif","","","","",""
"","null","html-keyboard-response","67","508765","0.0-17.0-0.4","SS1619740024427","","","null","","","","","","<p><img src= images/blank.png width =""600"" height = ""600"" style=""position:fixed;top:50%; left:50%; transform: translate(-50%, -50%); border:5px solid black"">","","","","","","","",""
"","4233","sequential-stimulus-presentation-old","68","513508","0.0-17.0-1.4","SS1619740024427","trial","","40","500","4733","images/stimuli/spore_stims/simple_04_A_a.gif","images/stimuli/spore_stims/simple_15_A_b.gif","forced_long","","4","simple_dissimilar","images/stimuli/spore_stims/simple_04_A_a.gif","","","","",""
"","9687","survey-multi-choice","69","523201","0.0-18.0","SS1619740024427","math_question","","","","","","","","","","","","{""Q0"":""13""}","[0]","13","",""
"","null","html-keyboard-response","70","524505","0.0-19.0-0.0","SS1619740024427","","","null","","","","","","<p><img src= images/blank.png width =""600"" height = ""600"" style=""position:fixed;top:50%; left:50%; transform: translate(-50%, -50%); border:5px solid black"">","","","","","","","",""
"","5881","sequential-stimulus-presentation-old","71","530896","0.0-19.0-1.0","SS1619740024427","trial","","40","500","6381","images/stimuli/spore_stims/simple_16_A_a.gif","images/stimuli/spore_stims/simple_05_A_b.gif","self_paced","","5","simple_dissimilar","images/stimuli/spore_stims/simple_05_A_b.gif","","","","",""
"","null","html-keyboard-response","72","532004","0.0-19.0-0.1","SS1619740024427","","","null","","","","","","<p><img src= images/blank.png width =""600"" height = ""600"" style=""position:fixed;top:50%; left:50%; transform: translate(-50%, -50%); border:5px solid black"">","","","","","","","",""
"","10144","sequential-stimulus-presentation-old","73","542660","0.0-19.0-1.1","SS1619740024427","trial","","40","500","10644","images/stimuli/spore_stims/simple_16_A_a.gif","images/stimuli/spore_stims/simple_05_A_b.gif","self_paced","","5","simple_dissimilar","images/stimuli/spore_stims/simple_05_A_b.gif","","","","",""
"","null","html-keyboard-response","74","543904","0.0-19.0-0.2","SS1619740024427","","","null","","","","","","<p><img src= images/blank.png width =""600"" height = ""600"" style=""position:fixed;top:50%; left:50%; transform: translate(-50%, -50%); border:5px solid black"">","","","","","","","",""
"","2629","sequential-stimulus-presentation-old","75","547043","0.0-19.0-1.2","SS1619740024427","trial","","40","500","3129","images/stimuli/spore_stims/simple_16_A_a.gif","images/stimuli/spore_stims/simple_05_A_b.gif","self_paced","","5","simple_dissimilar","images/stimuli/spore_stims/simple_05_A_b.gif","","","","",""
"","null","html-keyboard-response","76","548154","0.0-19.0-0.3","SS1619740024427","","","null","","","","","","<p><img src= images/blank.png width =""600"" height = ""600"" style=""position:fixed;top:50%; left:50%; transform: translate(-50%, -50%); border:5px solid black"">","","","","","","","",""
"","5653","sequential-stimulus-presentation-old","77","554317","0.0-19.0-1.3","SS1619740024427","trial","","40","500","6153","images/stimuli/spore_stims/simple_16_A_a.gif","images/stimuli/spore_stims/simple_05_A_b.gif","self_paced","","5","simple_dissimilar","images/stimuli/spore_stims/simple_05_A_b.gif","","","","",""
"","null","html-keyboard-response","78","555424","0.0-19.0-0.4","SS1619740024427","","","null","","","","","","<p><img src= images/blank.png width =""600"" height = ""600"" style=""position:fixed;top:50%; left:50%; transform: translate(-50%, -50%); border:5px solid black"">","","","","","","","",""
"","3609","sequential-stimulus-presentation-old","79","559543","0.0-19.0-1.4","SS1619740024427","trial","","40","500","4109","images/stimuli/spore_stims/simple_16_A_a.gif","images/stimuli/spore_stims/simple_05_A_b.gif","self_paced","","5","simple_dissimilar","images/stimuli/spore_stims/simple_05_A_b.gif","","","","",""
"","7866","survey-multi-choice","80","567415","0.0-20.0","SS1619740024427","math_question","","","","","","","","","","","","{""Q0"":""13""}","[0]","13","",""
"","null","html-keyboard-response","81","568353","0.0-21.0-0.0","SS1619740024427","","","null","","","","","","<p><img src= images/blank.png width =""600"" height = ""600"" style=""position:fixed;top:50%; left:50%; transform: translate(-50%, -50%); border:5px solid black"">","","","","","","","",""
"","1289","sequential-stimulus-presentation-old","82","570153","0.0-21.0-1.0","SS1619740024427","trial","","40","500","1789","images/stimuli/spore_stims/simple_08_A_a.gif","images/stimuli/spore_stims/simple_11_A_b.gif","forced_short","","6","simple_dissimilar","images/stimuli/spore_stims/simple_11_A_b.gif","","","","",""
"","null","html-keyboard-response","83","571423","0.0-21.0-0.1","SS1619740024427","","","null","","","","","","<p><img src= images/blank.png width =""600"" height = ""600"" style=""position:fixed;top:50%; left:50%; transform: translate(-50%, -50%); border:5px solid black"">","","","","","","","",""
"","4994","sequential-stimulus-presentation-old","84","576928","0.0-21.0-1.1","SS1619740024427","trial","","40","500","5494","images/stimuli/spore_stims/simple_08_A_a.gif","images/stimuli/spore_stims/simple_11_A_b.gif","forced_short","","6","simple_dissimilar","images/stimuli/spore_stims/simple_11_A_b.gif","","","","",""
"","null","html-keyboard-response","85","577824","0.0-21.0-0.2","SS1619740024427","","","null","","","","","","<p><img src= images/blank.png width =""600"" height = ""600"" style=""position:fixed;top:50%; left:50%; transform: translate(-50%, -50%); border:5px solid black"">","","","","","","","",""
"","4234","sequential-stimulus-presentation-old","86","582567","0.0-21.0-1.2","SS1619740024427","trial","","40","500","4734","images/stimuli/spore_stims/simple_08_A_a.gif","images/stimuli/spore_stims/simple_11_A_b.gif","forced_short","","6","simple_dissimilar","images/stimuli/spore_stims/simple_08_A_a.gif","","","","",""
"","null","html-keyboard-response","87","583723","0.0-21.0-0.3","SS1619740024427","","","null","","","","","","<p><img src= images/blank.png width =""600"" height = ""600"" style=""position:fixed;top:50%; left:50%; transform: translate(-50%, -50%); border:5px solid black"">","","","","","","","",""
"","3923","sequential-stimulus-presentation-old","88","588155","0.0-21.0-1.3","SS1619740024427","trial","","40","500","4423","images/stimuli/spore_stims/simple_08_A_a.gif","images/stimuli/spore_stims/simple_11_A_b.gif","forced_short","","6","simple_dissimilar","images/stimuli/spore_stims/simple_11_A_b.gif","","","","",""
"","null","html-keyboard-response","89","589103","0.0-21.0-0.4","SS1619740024427","","","null","","","","","","<p><img src= images/blank.png width =""600"" height = ""600"" style=""position:fixed;top:50%; left:50%; transform: translate(-50%, -50%); border:5px solid black"">","","","","","","","",""
"","3287","sequential-stimulus-presentation-old","90","592900","0.0-21.0-1.4","SS1619740024427","trial","","40","500","3787","images/stimuli/spore_stims/simple_08_A_a.gif","images/stimuli/spore_stims/simple_11_A_b.gif","forced_short","","6","simple_dissimilar","images/stimuli/spore_stims/simple_11_A_b.gif","","","","",""
"","5220","survey-multi-choice","91","598127","0.0-22.0","SS1619740024427","math_question","","","","","","","","","","","","{""Q0"":""8""}","[0]","8","",""
"","null","html-keyboard-response","92","599384","0.0-23.0-0.0","SS1619740024427","","","null","","","","","","<p><img src= images/blank.png width =""600"" height = ""600"" style=""position:fixed;top:50%; left:50%; transform: translate(-50%, -50%); border:5px solid black"">","","","","","","","",""
"","3979","sequential-stimulus-presentation-old","93","603872","0.0-23.0-1.0","SS1619740024427","trial","","40","500","4479","images/stimuli/spore_stims/simple_07_A_b.gif","images/stimuli/spore_stims/simple_11_A_a.gif","self_paced","","7","simple_dissimilar","images/stimuli/spore_stims/simple_11_A_a.gif","","","","",""
"","null","html-keyboard-response","94","605123","0.0-23.0-0.1","SS1619740024427","","","null","","","","","","<p><img src= images/blank.png width =""600"" height = ""600"" style=""position:fixed;top:50%; left:50%; transform: translate(-50%, -50%); border:5px solid black"">","","","","","","","",""
"","6097","sequential-stimulus-presentation-old","95","611730","0.0-23.0-1.1","SS1619740024427","trial","","40","500","6597","images/stimuli/spore_stims/simple_07_A_b.gif","images/stimuli/spore_stims/simple_11_A_a.gif","self_paced","","7","simple_dissimilar","images/stimuli/spore_stims/simple_11_A_a.gif","","","","",""
"","null","html-keyboard-response","96","612833","0.0-23.0-0.2","SS1619740024427","","","null","","","","","","<p><img src= images/blank.png width =""600"" height = ""600"" style=""position:fixed;top:50%; left:50%; transform: translate(-50%, -50%); border:5px solid black"">","","","","","","","",""
"","6176","sequential-stimulus-presentation-old","97","619519","0.0-23.0-1.2","SS1619740024427","trial","","40","500","6676","images/stimuli/spore_stims/simple_07_A_b.gif","images/stimuli/spore_stims/simple_11_A_a.gif","self_paced","","7","simple_dissimilar","images/stimuli/spore_stims/simple_07_A_b.gif","","","","",""
"","null","html-keyboard-response","98","620373","0.0-23.0-0.3","SS1619740024427","","","null","","","","","","<p><img src= images/blank.png width =""600"" height = ""600"" style=""position:fixed;top:50%; left:50%; transform: translate(-50%, -50%); border:5px solid black"">","","","","","","","",""
"","3227","sequential-stimulus-presentation-old","99","624110","0.0-23.0-1.3","SS1619740024427","trial","","40","500","3727","images/stimuli/spore_stims/simple_07_A_b.gif","images/stimuli/spore_stims/simple_11_A_a.gif","self_paced","","7","simple_dissimilar","images/stimuli/spore_stims/simple_11_A_a.gif","","","","",""
"","null","html-keyboard-response","100","624983","0.0-23.0-0.4","SS1619740024427","","","null","","","","","","<p><img src= images/blank.png width =""600"" height = ""600"" style=""position:fixed;top:50%; left:50%; transform: translate(-50%, -50%); border:5px solid black"">","","","","","","","",""
"","5804","sequential-stimulus-presentation-old","101","631297","0.0-23.0-1.4","SS1619740024427","trial","","40","500","6304","images/stimuli/spore_stims/simple_07_A_b.gif","images/stimuli/spore_stims/simple_11_A_a.gif","self_paced","","7","simple_dissimilar","images/stimuli/spore_stims/simple_11_A_a.gif","","","","",""
"","11365","survey-multi-choice","102","642671","0.0-24.0","SS1619740024427","math_question","","","","","","","","","","","","{""Q0"":""9""}","[0]","9","",""
"","null","html-keyboard-response","103","643793","0.0-25.0-0.0","SS1619740024427","","","null","","","","","","<p><img src= images/blank.png width =""600"" height = ""600"" style=""position:fixed;top:50%; left:50%; transform: translate(-50%, -50%); border:5px solid black"">","","","","","","","",""
"","1958","sequential-stimulus-presentation-old","104","646260","0.0-25.0-1.0","SS1619740024427","trial","","40","500","2458","images/stimuli/spore_stims/complex_02_A_a.gif","images/stimuli/spore_stims/complex_15_A_b.gif","forced_short","","8","complex_dissimilar","images/stimuli/spore_stims/complex_15_A_b.gif","","","","",""
"","null","html-keyboard-response","105","647173","0.0-25.0-0.1","SS1619740024427","","","null","","","","","","<p><img src= images/blank.png width =""600"" height = ""600"" style=""position:fixed;top:50%; left:50%; transform: translate(-50%, -50%); border:5px solid black"">","","","","","","","",""
"","1912","sequential-stimulus-presentation-old","106","649595","0.0-25.0-1.1","SS1619740024427","trial","","40","500","2412","images/stimuli/spore_stims/complex_02_A_a.gif","images/stimuli/spore_stims/complex_15_A_b.gif","forced_short","","8","complex_dissimilar","images/stimuli/spore_stims/complex_02_A_a.gif","","","","",""
"","null","html-keyboard-response","107","650483","0.0-25.0-0.2","SS1619740024427","","","null","","","","","","<p><img src= images/blank.png width =""600"" height = ""600"" style=""position:fixed;top:50%; left:50%; transform: translate(-50%, -50%); border:5px solid black"">","","","","","","","",""
"","10297","sequential-stimulus-presentation-old","108","661289","0.0-25.0-1.2","SS1619740024427","trial","","40","500","10797","images/stimuli/spore_stims/complex_02_A_a.gif","images/stimuli/spore_stims/complex_15_A_b.gif","forced_short","","8","complex_dissimilar","images/stimuli/spore_stims/complex_15_A_b.gif","","","","",""
"","null","html-keyboard-response","109","662523","0.0-25.0-0.3","SS1619740024427","","","null","","","","","","<p><img src= images/blank.png width =""600"" height = ""600"" style=""position:fixed;top:50%; left:50%; transform: translate(-50%, -50%); border:5px solid black"">","","","","","","","",""
"","5754","sequential-stimulus-presentation-old","110","668787","0.0-25.0-1.3","SS1619740024427","trial","","40","500","6254","images/stimuli/spore_stims/complex_02_A_a.gif","images/stimuli/spore_stims/complex_15_A_b.gif","forced_short","","8","complex_dissimilar","images/stimuli/spore_stims/complex_15_A_b.gif","","","","",""
"","null","html-keyboard-response","111","670013","0.0-25.0-0.4","SS1619740024427","","","null","","","","","","<p><img src= images/blank.png width =""600"" height = ""600"" style=""position:fixed;top:50%; left:50%; transform: translate(-50%, -50%); border:5px solid black"">","","","","","","","",""
"","4109","sequential-stimulus-presentation-old","112","674633","0.0-25.0-1.4","SS1619740024427","trial","","40","500","4609","images/stimuli/spore_stims/complex_02_A_a.gif","images/stimuli/spore_stims/complex_15_A_b.gif","forced_short","","8","complex_dissimilar","images/stimuli/spore_stims/complex_15_A_b.gif","","","","",""
"","null","html-keyboard-response","113","675452","0.0-25.0-0.5","SS1619740024427","","","null","","","","","","<p><img src= images/blank.png width =""600"" height = ""600"" style=""position:fixed;top:50%; left:50%; transform: translate(-50%, -50%); border:5px solid black"">","","","","","","","",""
"","2349","sequential-stimulus-presentation-old","114","678311","0.0-25.0-1.5","SS1619740024427","trial","","40","500","2849","images/stimuli/spore_stims/complex_02_A_a.gif","images/stimuli/spore_stims/complex_15_A_b.gif","forced_short","","8","complex_dissimilar","images/stimuli/spore_stims/complex_15_A_b.gif","","","","",""
"","19134","survey-multi-choice","115","697453","0.0-26.0","SS1619740024427","math_question","","","","","","","","","","","","{""Q0"":""14""}","[0]","14","",""
"","null","html-keyboard-response","116","698702","0.0-27.0-0.0","SS1619740024427","","","null","","","","","","<p><img src= images/blank.png width =""600"" height = ""600"" style=""position:fixed;top:50%; left:50%; transform: translate(-50%, -50%); border:5px solid black"">","","","","","","","",""
"","6876","sequential-stimulus-presentation-old","117","706089","0.0-27.0-1.0","SS1619740024427","trial","","40","500","7376","images/stimuli/spore_stims/complex_17_A_a.gif","images/stimuli/spore_stims/complex_11_A_b.gif","self_paced","","9","complex_dissimilar","images/stimuli/spore_stims/complex_11_A_b.gif","","","","",""
"","null","html-keyboard-response","118","707133","0.0-27.0-0.1","SS1619740024427","","","null","","","","","","<p><img src= images/blank.png width =""600"" height = ""600"" style=""position:fixed;top:50%; left:50%; transform: translate(-50%, -50%); border:5px solid black"">","","","","","","","",""
"","1798","sequential-stimulus-presentation-old","119","709440","0.0-27.0-1.1","SS1619740024427","trial","","40","500","2298","images/stimuli/spore_stims/complex_17_A_a.gif","images/stimuli/spore_stims/complex_11_A_b.gif","self_paced","","9","complex_dissimilar","images/stimuli/spore_stims/complex_11_A_b.gif","","","","",""
"","null","html-keyboard-response","120","710482","0.0-27.0-0.2","SS1619740024427","","","null","","","","","","<p><img src= images/blank.png width =""600"" height = ""600"" style=""position:fixed;top:50%; left:50%; transform: translate(-50%, -50%); border:5px solid black"">","","","","","","","",""
"","4105","sequential-stimulus-presentation-old","121","715097","0.0-27.0-1.2","SS1619740024427","trial","","40","500","4605","images/stimuli/spore_stims/complex_17_A_a.gif","images/stimuli/spore_stims/complex_11_A_b.gif","self_paced","","9","complex_dissimilar","images/stimuli/spore_stims/complex_17_A_a.gif","","","","",""
"","null","html-keyboard-response","122","716082","0.0-27.0-0.3","SS1619740024427","","","null","","","","","","<p><img src= images/blank.png width =""600"" height = ""600"" style=""position:fixed;top:50%; left:50%; transform: translate(-50%, -50%); border:5px solid black"">","","","","","","","",""
"","3766","sequential-stimulus-presentation-old","123","720358","0.0-27.0-1.3","SS1619740024427","trial","","40","500","4266","images/stimuli/spore_stims/complex_17_A_a.gif","images/stimuli/spore_stims/complex_11_A_b.gif","self_paced","","9","complex_dissimilar","images/stimuli/spore_stims/complex_11_A_b.gif","","","","",""
"","null","html-keyboard-response","124","721612","0.0-27.0-0.4","SS1619740024427","","","null","","","","","","<p><img src= images/blank.png width =""600"" height = ""600"" style=""position:fixed;top:50%; left:50%; transform: translate(-50%, -50%); border:5px solid black"">","","","","","","","",""
"","3446","sequential-stimulus-presentation-old","125","725568","0.0-27.0-1.4","SS1619740024427","trial","","40","500","3946","images/stimuli/spore_stims/complex_17_A_a.gif","images/stimuli/spore_stims/complex_11_A_b.gif","self_paced","","9","complex_dissimilar","images/stimuli/spore_stims/complex_11_A_b.gif","","","","",""
"","7565","survey-multi-choice","126","733140","0.0-28.0","SS1619740024427","math_question","","","","","","","","","","","","{""Q0"":""4""}","[0]","4","",""
"","null","html-keyboard-response","127","734121","0.0-29.0-0.0","SS1619740024427","","","null","","","","","","<p><img src= images/blank.png width =""600"" height = ""600"" style=""position:fixed;top:50%; left:50%; transform: translate(-50%, -50%); border:5px solid black"">","","","","","","","",""
"","1271","sequential-stimulus-presentation-old","128","735903","0.0-29.0-1.0","SS1619740024427","trial","","40","500","1771","images/stimuli/spore_stims/simple_02_A_b.gif","images/stimuli/spore_stims/simple_01_A_a.gif","forced_short","","10","simple_dissimilar","images/stimuli/spore_stims/simple_01_A_a.gif","","","","",""
"","null","html-keyboard-response","129","736802","0.0-29.0-0.1","SS1619740024427","","","null","","","","","","<p><img src= images/blank.png width =""600"" height = ""600"" style=""position:fixed;top:50%; left:50%; transform: translate(-50%, -50%); border:5px solid black"">","","","","","","","",""
"","2648","sequential-stimulus-presentation-old","130","739960","0.0-29.0-1.1","SS1619740024427","trial","","40","500","3148","images/stimuli/spore_stims/simple_02_A_b.gif","images/stimuli/spore_stims/simple_01_A_a.gif","forced_short","","10","simple_dissimilar","images/stimuli/spore_stims/simple_01_A_a.gif","","","","",""
"","null","html-keyboard-response","131","740822","0.0-29.0-0.2","SS1619740024427","","","null","","","","","","<p><img src= images/blank.png width =""600"" height = ""600"" style=""position:fixed;top:50%; left:50%; transform: translate(-50%, -50%); border:5px solid black"">","","","","","","","",""
"","2101","sequential-stimulus-presentation-old","132","743432","0.0-29.0-1.2","SS1619740024427","trial","","40","500","2601","images/stimuli/spore_stims/simple_02_A_b.gif","images/stimuli/spore_stims/simple_01_A_a.gif","forced_short","","10","simple_dissimilar","images/stimuli/spore_stims/simple_01_A_a.gif","","","","",""
"","null","html-keyboard-response","133","744692","0.0-29.0-0.3","SS1619740024427","","","null","","","","","","<p><img src= images/blank.png width =""600"" height = ""600"" style=""position:fixed;top:50%; left:50%; transform: translate(-50%, -50%); border:5px solid black"">","","","","","","","",""
"","4025","sequential-stimulus-presentation-old","134","749226","0.0-29.0-1.3","SS1619740024427","trial","","40","500","4525","images/stimuli/spore_stims/simple_02_A_b.gif","images/stimuli/spore_stims/simple_01_A_a.gif","forced_short","","10","simple_dissimilar","images/stimuli/spore_stims/simple_02_A_b.gif","","","","",""
"","null","html-keyboard-response","135","750322","0.0-29.0-0.4","SS1619740024427","","","null","","","","","","<p><img src= images/blank.png width =""600"" height = ""600"" style=""position:fixed;top:50%; left:50%; transform: translate(-50%, -50%); border:5px solid black"">","","","","","","","",""
"","3362","sequential-stimulus-presentation-old","136","754195","0.0-29.0-1.4","SS1619740024427","trial","","40","500","3862","images/stimuli/spore_stims/simple_02_A_b.gif","images/stimuli/spore_stims/simple_01_A_a.gif","forced_short","","10","simple_dissimilar","images/stimuli/spore_stims/simple_01_A_a.gif","","","","",""
"","5602","survey-multi-choice","137","759804","0.0-30.0","SS1619740024427","math_question","","","","","","","","","","","","{""Q0"":""8""}","[0]","8","",""
"","null","html-keyboard-response","138","760761","0.0-31.0-0.0","SS1619740024427","","","null","","","","","","<p><img src= images/blank.png width =""600"" height = ""600"" style=""position:fixed;top:50%; left:50%; transform: translate(-50%, -50%); border:5px solid black"">","","","","","","","",""
"","999","sequential-stimulus-presentation-old","139","776769","0.0-31.0-1.0","SS1619740024427","trial","","40","500","1499","images/stimuli/spore_stims/complex_04_A_b.gif","images/stimuli/spore_stims/complex_06_A_a.gif","forced_long","","11","complex_dissimilar","images/stimuli/spore_stims/complex_06_A_a.gif","","","","",""
"","null","html-keyboard-response","140","778031","0.0-31.0-0.1","SS1619740024427","","","null","","","","","","<p><img src= images/blank.png width =""600"" height = ""600"" style=""position:fixed;top:50%; left:50%; transform: translate(-50%, -50%); border:5px solid black"">","","","","","","","",""
"","3404","sequential-stimulus-presentation-old","141","781944","0.0-31.0-1.1","SS1619740024427","trial","","40","500","3904","images/stimuli/spore_stims/complex_04_A_b.gif","images/stimuli/spore_stims/complex_06_A_a.gif","forced_long","","11","complex_dissimilar","images/stimuli/spore_stims/complex_04_A_b.gif","","","","",""
"","null","html-keyboard-response","142","783171","0.0-31.0-0.2","SS1619740024427","","","null","","","","","","<p><img src= images/blank.png width =""600"" height = ""600"" style=""position:fixed;top:50%; left:50%; transform: translate(-50%, -50%); border:5px solid black"">","","","","","","","",""
"","790","sequential-stimulus-presentation-old","143","784471","0.0-31.0-1.2","SS1619740024427","trial","","40","500","1290","images/stimuli/spore_stims/complex_04_A_b.gif","images/stimuli/spore_stims/complex_06_A_a.gif","forced_long","","11","complex_dissimilar","images/stimuli/spore_stims/complex_06_A_a.gif","","","","",""
"","null","html-keyboard-response","144","785771","0.0-31.0-0.3","SS1619740024427","","","null","","","","","","<p><img src= images/blank.png width =""600"" height = ""600"" style=""position:fixed;top:50%; left:50%; transform: translate(-50%, -50%); border:5px solid black"">","","","","","","","",""
"","1627","sequential-stimulus-presentation-old","145","787908","0.0-31.0-1.3","SS1619740024427","trial","","40","500","2127","images/stimuli/spore_stims/complex_04_A_b.gif","images/stimuli/spore_stims/complex_06_A_a.gif","forced_long","","11","complex_dissimilar","images/stimuli/spore_stims/complex_06_A_a.gif","","","","",""
"","null","html-keyboard-response","146","789061","0.0-31.0-0.4","SS1619740024427","","","null","","","","","","<p><img src= images/blank.png width =""600"" height = ""600"" style=""position:fixed;top:50%; left:50%; transform: translate(-50%, -50%); border:5px solid black"">","","","","","","","",""
"","3185","sequential-stimulus-presentation-old","147","792756","0.0-31.0-1.4","SS1619740024427","trial","","40","500","3685","images/stimuli/spore_stims/complex_04_A_b.gif","images/stimuli/spore_stims/complex_06_A_a.gif","forced_long","","11","complex_dissimilar","images/stimuli/spore_stims/complex_06_A_a.gif","","","","",""
"","null","html-keyboard-response","148","793921","0.0-31.0-0.5","SS1619740024427","","","null","","","","","","<p><img src= images/blank.png width =""600"" height = ""600"" style=""position:fixed;top:50%; left:50%; transform: translate(-50%, -50%); border:5px solid black"">","","","","","","","",""
"","1212","sequential-stimulus-presentation-old","149","795643","0.0-31.0-1.5","SS1619740024427","trial","","40","500","1712","images/stimuli/spore_stims/complex_04_A_b.gif","images/stimuli/spore_stims/complex_06_A_a.gif","forced_long","","11","complex_dissimilar","images/stimuli/spore_stims/complex_06_A_a.gif","","","","",""
"[{""page_index"":0,""viewing_time"":12238}]","12239","instructions","150","807890","0.0-32.0","SS1619740024427","instructions","","","","","","","","","","","","","","","",""
"","17211","survey-likert","151","825116","0.0-33.0","SS1619740024427","similarity_question","","","","","","","","","","","","{""Q0"":2}","[0]","","images/stimuli/spore_stims/complex_08_A_b.gif","images/stimuli/spore_stims/complex_01_A_a.gif"
"","6716","survey-likert","152","831844","0.0-34.0","SS1619740024427","similarity_question","","","","","","","","","","","","{""Q0"":5}","[0]","","images/stimuli/spore_stims/simple_15_A_b.gif","images/stimuli/spore_stims/simple_04_A_a.gif"
"","5211","survey-likert","153","837067","0.0-35.0","SS1619740024427","similarity_question","","","","","","","","","","","","{""Q0"":5}","[0]","","images/stimuli/spore_stims/simple_08_A_a.gif","images/stimuli/spore_stims/simple_11_A_b.gif"
"","6168","survey-likert","154","843251","0.0-36.0","SS1619740024427","similarity_question","","","","","","","","","","","","{""Q0"":1}","[0]","","images/stimuli/spore_stims/simple_20_A_b.gif","images/stimuli/spore_stims/simple_18_A_a.gif"
"","6924","survey-likert","155","850187","0.0-37.0","SS1619740024427","similarity_question","","","","","","","","","","","","{""Q0"":6}","[0]","","images/stimuli/spore_stims/simple_01_A_a.gif","images/stimuli/spore_stims/simple_02_A_b.gif"
"","9324","survey-likert","156","859523","0.0-38.0","SS1619740024427","similarity_question","","","","","","","","","","","","{""Q0"":2}","[0]","","images/stimuli/spore_stims/simple_16_A_a.gif","images/stimuli/spore_stims/simple_05_A_b.gif"
"","4292","survey-likert","157","863827","0.0-39.0","SS1619740024427","similarity_question","","","","","","","","","","","","{""Q0"":1}","[0]","","images/stimuli/spore_stims/simple_07_A_b.gif","images/stimuli/spore_stims/simple_11_A_a.gif"
"","7716","survey-likert","158","871555","0.0-40.0","SS1619740024427","similarity_question","","","","","","","","","","","","{""Q0"":2}","[0]","","images/stimuli/spore_stims/complex_04_A_b.gif","images/stimuli/spore_stims/complex_06_A_a.gif"
"","9365","survey-likert","159","880931","0.0-41.0","SS1619740024427","similarity_question","","","","","","","","","","","","{""Q0"":2}","[0]","","images/stimuli/spore_stims/complex_17_A_a.gif","images/stimuli/spore_stims/complex_11_A_b.gif"
"","5147","survey-likert","160","886091","0.0-42.0","SS1619740024427","similarity_question","","","","","","","","","","","","{""Q0"":1}","[0]","","images/stimuli/spore_stims/complex_07_A_a.gif","images/stimuli/spore_stims/complex_02_A_b.gif"
"","4922","survey-likert","161","891026","0.0-43.0","SS1619740024427","similarity_question","","","","","","","","","","","","{""Q0"":1}","[0]","","images/stimuli/spore_stims/complex_15_A_b.gif","images/stimuli/spore_stims/complex_02_A_a.gif"
"","6124","survey-likert","162","897162","0.0-44.0","SS1619740024427","similarity_question","","","","","","","","","","","","{""Q0"":4}","[0]","","images/stimuli/spore_stims/complex_12_A_a.gif","images/stimuli/spore_stims/complex_13_A_b.gif"
"[{""page_index"":0,""viewing_time"":9244}]","9244","instructions","163","906416","0.0-45.0","SS1619740024427","instructions","","","","","","","","","","","","","","","",""
"","5981","survey-likert","164","912410","0.0-46.0","SS1619740024427","","","","","","","","","images/stimuli/spore_stims/complex_01_A_a.gif","","","","{""Q0"":5}","[0]","","",""
"","2859","survey-likert","165","915281","0.0-47.0","SS1619740024427","","","","","","","","","images/stimuli/spore_stims/complex_04_A_b.gif","","","","{""Q0"":5}","[0]","","",""
"","6500","survey-likert","166","921794","0.0-48.0","SS1619740024427","","","","","","","","","images/stimuli/spore_stims/simple_11_A_a.gif","","","","{""Q0"":2}","[0]","","",""
"","2659","survey-likert","167","924465","0.0-49.0","SS1619740024427","","","","","","","","","images/stimuli/spore_stims/complex_02_A_b.gif","","","","{""Q0"":4}","[0]","","",""
"","2234","survey-likert","168","926713","0.0-50.0","SS1619740024427","","","","","","","","","images/stimuli/spore_stims/simple_05_A_b.gif","","","","{""Q0"":2}","[0]","","",""
"","2066","survey-likert","169","928793","0.0-51.0","SS1619740024427","","","","","","","","","images/stimuli/spore_stims/complex_02_A_a.gif","","","","{""Q0"":4}","[0]","","",""
"","2372","survey-likert","170","931177","0.0-52.0","SS1619740024427","","","","","","","","","images/stimuli/spore_stims/simple_08_A_a.gif","","","","{""Q0"":1}","[0]","","",""
"","2266","survey-likert","171","933458","0.0-53.0","SS1619740024427","","","","","","","","","images/stimuli/spore_stims/simple_20_A_b.gif","","","","{""Q0"":1}","[0]","","",""
"","5475","survey-likert","172","938945","0.0-54.0","SS1619740024427","","","","","","","","","images/stimuli/spore_stims/complex_11_A_b.gif","","","","{""Q0"":5}","[0]","","",""
"","2858","survey-likert","173","941817","0.0-55.0","SS1619740024427","","","","","","","","","images/stimuli/spore_stims/simple_15_A_b.gif","","","","{""Q0"":0}","[0]","","",""
"","2066","survey-likert","174","943897","0.0-56.0","SS1619740024427","","","","","","","","","images/stimuli/spore_stims/simple_01_A_a.gif","","","","{""Q0"":0}","[0]","","",""
"","2650","survey-likert","175","946561","0.0-57.0","SS1619740024427","","","","","","","","","images/stimuli/spore_stims/complex_13_A_b.gif","","","","{""Q0"":5}","[0]","","",""
"[{""page_index"":0,""viewing_time"":5467}]","5467","instructions","176","952039","0.0-58.0","SS1619740024427","instructions","","","","","","","","","","","","","","","",""
"","4442","demog-age","177","956499","0.0-59.0","SS1619740024427","","","","","","","","","","","","","{""age"":""34""}","","","",""
"","11781","demog-ethnic-US","178","968298","0.0-60.0","SS1619740024427","","","","","","","","","","","","","{""ethnicity"":[""White""]}","[0]","","",""
"","15561","demog-gender-and-education","179","983872","0.0-61.0","SS1619740024427","","","","","","","","","","","","","{""gender"":""Male"",""education"":""Master's Degree""}","[0,1]","","",""
"","15969","survey-text","180","999856","0.0-62.0","SS1619740024427","feedback","","","","","","","","","","","","{""Q0"":""No""}","","","",""
"[{""page_index"":0,""viewing_time"":5635}]","5635","instructions","181","1005502","0.0-63.0","SS1619740024427","instructions","","","","","","","","","","","","","","","",""
