"view_history","rt","trial_type","trial_index","time_elapsed","internal_node_id","subject","stimulus_type","trial_stimulus","key_press","minimum_viewing_duration","trial_looking_time","block_deviant","block_background","exposure_type","stimulus","block_number","block_type","stimulus_displayed","responses","question_order","math_correct_answer","stimulus_left","stimulus_right"
"[{""page_index"":0,""viewing_time"":2273}]","2273","instructions","0","2273","0.0-0.0","SS1619739362581","","","","","","","","","","","","","","","","",""
"[{""page_index"":0,""viewing_time"":12961},{""page_index"":1,""viewing_time"":5210}]","18171","instructions","1","22457","0.0-1.0","SS1619739362581","instructions","","","","","","","","","","","","","","","",""
"","6828","sequential-stimulus-presentation-old","2","29790","0.0-2.0","SS1619739362581","","","40","500","7328","null","null","self_paced","","","","","","","","",""
"","4811","sequential-stimulus-presentation-old","3","35112","0.0-3.0","SS1619739362581","","","40","500","5311","null","null","self_paced","","","","","","","","",""
"[{""page_index"":0,""viewing_time"":13617}]","13617","instructions","4","48730","0.0-4.0","SS1619739362581","instructions","","","","","","","","","","","","","","","",""
"","745","sequential-stimulus-presentation-old","5","64488","0.0-5.0","SS1619739362581","","","40","500","1245","null","null","forced_long","","","","","","","","",""
"","2622","sequential-stimulus-presentation-old","6","67618","0.0-6.0","SS1619739362581","","","40","500","3122","null","null","forced_long","","","","","","","","",""
"[{""page_index"":0,""viewing_time"":2918}]","2918","instructions","7","70538","0.0-7.0","SS1619739362581","instructions","","","","","","","","","","","","","","","",""
"[{""page_index"":0,""viewing_time"":4793},{""page_index"":1,""viewing_time"":4697},{""page_index"":2,""viewing_time"":3123},{""page_index"":3,""viewing_time"":1102},{""page_index"":4,""viewing_time"":782}]","14497","instructions","8","85036","0.0-8.0","SS1619739362581","instructions","","","","","","","","","","","","","","","",""
"","null","html-keyboard-response","9","86018","0.0-9.0-0.0","SS1619739362581","","","null","","","","","","<p><img src= images/blank.png width =""600"" height = ""600"" style=""position:fixed;top:50%; left:50%; transform: translate(-50%, -50%); border:5px solid black"">","","","","","","","",""
"","5675","sequential-stimulus-presentation-old","10","92199","0.0-9.0-1.0","SS1619739362581","trial","","40","500","6175","images/stimuli/spore_stims/simple_09_A_a.gif","images/stimuli/spore_stims/simple_15_A_b.gif","self_paced","","0","simple_dissimilar","images/stimuli/spore_stims/simple_15_A_b.gif","","","","",""
"","null","html-keyboard-response","11","93487","0.0-9.0-0.1","SS1619739362581","","","null","","","","","","<p><img src= images/blank.png width =""600"" height = ""600"" style=""position:fixed;top:50%; left:50%; transform: translate(-50%, -50%); border:5px solid black"">","","","","","","","",""
"","3183","sequential-stimulus-presentation-old","12","97175","0.0-9.0-1.1","SS1619739362581","trial","","40","500","3683","images/stimuli/spore_stims/simple_09_A_a.gif","images/stimuli/spore_stims/simple_15_A_b.gif","self_paced","","0","simple_dissimilar","images/stimuli/spore_stims/simple_15_A_b.gif","","","","",""
"","null","html-keyboard-response","13","98347","0.0-9.0-0.2","SS1619739362581","","","null","","","","","","<p><img src= images/blank.png width =""600"" height = ""600"" style=""position:fixed;top:50%; left:50%; transform: translate(-50%, -50%); border:5px solid black"">","","","","","","","",""
"","13617","sequential-stimulus-presentation-old","14","112475","0.0-9.0-1.2","SS1619739362581","trial","","40","500","14117","images/stimuli/spore_stims/simple_09_A_a.gif","images/stimuli/spore_stims/simple_15_A_b.gif","self_paced","","0","simple_dissimilar","images/stimuli/spore_stims/simple_15_A_b.gif","","","","",""
"","null","html-keyboard-response","15","113591","0.0-9.0-0.3","SS1619739362581","","","null","","","","","","<p><img src= images/blank.png width =""600"" height = ""600"" style=""position:fixed;top:50%; left:50%; transform: translate(-50%, -50%); border:5px solid black"">","","","","","","","",""
"","826","sequential-stimulus-presentation-old","16","114923","0.0-9.0-1.3","SS1619739362581","trial","","40","500","1326","images/stimuli/spore_stims/simple_09_A_a.gif","images/stimuli/spore_stims/simple_15_A_b.gif","self_paced","","0","simple_dissimilar","images/stimuli/spore_stims/simple_09_A_a.gif","","","","",""
"","null","html-keyboard-response","17","115937","0.0-9.0-0.4","SS1619739362581","","","null","","","","","","<p><img src= images/blank.png width =""600"" height = ""600"" style=""position:fixed;top:50%; left:50%; transform: translate(-50%, -50%); border:5px solid black"">","","","","","","","",""
"","700","sequential-stimulus-presentation-old","18","117140","0.0-9.0-1.4","SS1619739362581","trial","","40","500","1200","images/stimuli/spore_stims/simple_09_A_a.gif","images/stimuli/spore_stims/simple_15_A_b.gif","self_paced","","0","simple_dissimilar","images/stimuli/spore_stims/simple_15_A_b.gif","","","","",""
"","3458","survey-multi-choice","19","120601","0.0-10.0","SS1619739362581","math_question","","","","","","","","","","","","{""Q0"":""5""}","[0]","5","",""
"","null","html-keyboard-response","20","121792","0.0-11.0-0.0","SS1619739362581","","","null","","","","","","<p><img src= images/blank.png width =""600"" height = ""600"" style=""position:fixed;top:50%; left:50%; transform: translate(-50%, -50%); border:5px solid black"">","","","","","","","",""
"","2991","sequential-stimulus-presentation-old","21","125289","0.0-11.0-1.0","SS1619739362581","trial","","40","500","3491","images/stimuli/spore_stims/complex_13_A_b.gif","images/stimuli/spore_stims/complex_09_A_a.gif","self_paced","","1","complex_dissimilar","images/stimuli/spore_stims/complex_09_A_a.gif","","","","",""
"","null","html-keyboard-response","22","126235","0.0-11.0-0.1","SS1619739362581","","","null","","","","","","<p><img src= images/blank.png width =""600"" height = ""600"" style=""position:fixed;top:50%; left:50%; transform: translate(-50%, -50%); border:5px solid black"">","","","","","","","",""
"","1825","sequential-stimulus-presentation-old","23","128564","0.0-11.0-1.1","SS1619739362581","trial","","40","500","2325","images/stimuli/spore_stims/complex_13_A_b.gif","images/stimuli/spore_stims/complex_09_A_a.gif","self_paced","","1","complex_dissimilar","images/stimuli/spore_stims/complex_09_A_a.gif","","","","",""
"","null","html-keyboard-response","24","129516","0.0-11.0-0.2","SS1619739362581","","","null","","","","","","<p><img src= images/blank.png width =""600"" height = ""600"" style=""position:fixed;top:50%; left:50%; transform: translate(-50%, -50%); border:5px solid black"">","","","","","","","",""
"","2617","sequential-stimulus-presentation-old","25","132641","0.0-11.0-1.2","SS1619739362581","trial","","40","500","3117","images/stimuli/spore_stims/complex_13_A_b.gif","images/stimuli/spore_stims/complex_09_A_a.gif","self_paced","","1","complex_dissimilar","images/stimuli/spore_stims/complex_09_A_a.gif","","","","",""
"","null","html-keyboard-response","26","133788","0.0-11.0-0.3","SS1619739362581","","","null","","","","","","<p><img src= images/blank.png width =""600"" height = ""600"" style=""position:fixed;top:50%; left:50%; transform: translate(-50%, -50%); border:5px solid black"">","","","","","","","",""
"","1070","sequential-stimulus-presentation-old","27","135362","0.0-11.0-1.3","SS1619739362581","trial","","40","500","1570","images/stimuli/spore_stims/complex_13_A_b.gif","images/stimuli/spore_stims/complex_09_A_a.gif","self_paced","","1","complex_dissimilar","images/stimuli/spore_stims/complex_09_A_a.gif","","","","",""
"","null","html-keyboard-response","28","136412","0.0-11.0-0.4","SS1619739362581","","","null","","","","","","<p><img src= images/blank.png width =""600"" height = ""600"" style=""position:fixed;top:50%; left:50%; transform: translate(-50%, -50%); border:5px solid black"">","","","","","","","",""
"","1762","sequential-stimulus-presentation-old","29","138678","0.0-11.0-1.4","SS1619739362581","trial","","40","500","2262","images/stimuli/spore_stims/complex_13_A_b.gif","images/stimuli/spore_stims/complex_09_A_a.gif","self_paced","","1","complex_dissimilar","images/stimuli/spore_stims/complex_09_A_a.gif","","","","",""
"","4191","survey-multi-choice","30","142871","0.0-12.0","SS1619739362581","math_question","","","","","","","","","","","","{""Q0"":""17""}","[0]","17","",""
"","null","html-keyboard-response","31","143868","0.0-13.0-0.0","SS1619739362581","","","null","","","","","","<p><img src= images/blank.png width =""600"" height = ""600"" style=""position:fixed;top:50%; left:50%; transform: translate(-50%, -50%); border:5px solid black"">","","","","","","","",""
"","944","sequential-stimulus-presentation-old","32","159818","0.0-13.0-1.0","SS1619739362581","trial","","40","500","1444","images/stimuli/spore_stims/complex_01_A_a.gif","images/stimuli/spore_stims/complex_14_A_b.gif","forced_long","","2","complex_dissimilar","images/stimuli/spore_stims/complex_14_A_b.gif","","","","",""
"","null","html-keyboard-response","33","160901","0.0-13.0-0.1","SS1619739362581","","","null","","","","","","<p><img src= images/blank.png width =""600"" height = ""600"" style=""position:fixed;top:50%; left:50%; transform: translate(-50%, -50%); border:5px solid black"">","","","","","","","",""
"","401","sequential-stimulus-presentation-old","34","161809","0.0-13.0-1.1","SS1619739362581","trial","","40","500","901","images/stimuli/spore_stims/complex_01_A_a.gif","images/stimuli/spore_stims/complex_14_A_b.gif","forced_long","","2","complex_dissimilar","images/stimuli/spore_stims/complex_14_A_b.gif","","","","",""
"","null","html-keyboard-response","35","162855","0.0-13.0-0.2","SS1619739362581","","","null","","","","","","<p><img src= images/blank.png width =""600"" height = ""600"" style=""position:fixed;top:50%; left:50%; transform: translate(-50%, -50%); border:5px solid black"">","","","","","","","",""
"","1963","sequential-stimulus-presentation-old","36","165326","0.0-13.0-1.2","SS1619739362581","trial","","40","500","2463","images/stimuli/spore_stims/complex_01_A_a.gif","images/stimuli/spore_stims/complex_14_A_b.gif","forced_long","","2","complex_dissimilar","images/stimuli/spore_stims/complex_14_A_b.gif","","","","",""
"","null","html-keyboard-response","37","166600","0.0-13.0-0.3","SS1619739362581","","","null","","","","","","<p><img src= images/blank.png width =""600"" height = ""600"" style=""position:fixed;top:50%; left:50%; transform: translate(-50%, -50%); border:5px solid black"">","","","","","","","",""
"","439","sequential-stimulus-presentation-old","38","167547","0.0-13.0-1.3","SS1619739362581","trial","","40","500","939","images/stimuli/spore_stims/complex_01_A_a.gif","images/stimuli/spore_stims/complex_14_A_b.gif","forced_long","","2","complex_dissimilar","images/stimuli/spore_stims/complex_14_A_b.gif","","","","",""
"","null","html-keyboard-response","39","168604","0.0-13.0-0.4","SS1619739362581","","","null","","","","","","<p><img src= images/blank.png width =""600"" height = ""600"" style=""position:fixed;top:50%; left:50%; transform: translate(-50%, -50%); border:5px solid black"">","","","","","","","",""
"","1030","sequential-stimulus-presentation-old","40","170138","0.0-13.0-1.4","SS1619739362581","trial","","40","500","1530","images/stimuli/spore_stims/complex_01_A_a.gif","images/stimuli/spore_stims/complex_14_A_b.gif","forced_long","","2","complex_dissimilar","images/stimuli/spore_stims/complex_14_A_b.gif","","","","",""
"","null","html-keyboard-response","41","171201","0.0-13.0-0.5","SS1619739362581","","","null","","","","","","<p><img src= images/blank.png width =""600"" height = ""600"" style=""position:fixed;top:50%; left:50%; transform: translate(-50%, -50%); border:5px solid black"">","","","","","","","",""
"","1578","sequential-stimulus-presentation-old","42","173281","0.0-13.0-1.5","SS1619739362581","trial","","40","500","2078","images/stimuli/spore_stims/complex_01_A_a.gif","images/stimuli/spore_stims/complex_14_A_b.gif","forced_long","","2","complex_dissimilar","images/stimuli/spore_stims/complex_01_A_a.gif","","","","",""
"","2719","survey-multi-choice","43","176002","0.0-14.0","SS1619739362581","math_question","","","","","","","","","","","","{""Q0"":""11""}","[0]","11","",""
"","null","html-keyboard-response","44","177129","0.0-15.0-0.0","SS1619739362581","","","null","","","","","","<p><img src= images/blank.png width =""600"" height = ""600"" style=""position:fixed;top:50%; left:50%; transform: translate(-50%, -50%); border:5px solid black"">","","","","","","","",""
"","879","sequential-stimulus-presentation-old","45","178515","0.0-15.0-1.0","SS1619739362581","trial","","40","500","1379","images/stimuli/spore_stims/simple_17_A_a.gif","images/stimuli/spore_stims/simple_12_A_b.gif","forced_short","","3","simple_dissimilar","images/stimuli/spore_stims/simple_12_A_b.gif","","","","",""
"","null","html-keyboard-response","46","179599","0.0-15.0-0.1","SS1619739362581","","","null","","","","","","<p><img src= images/blank.png width =""600"" height = ""600"" style=""position:fixed;top:50%; left:50%; transform: translate(-50%, -50%); border:5px solid black"">","","","","","","","",""
"","542","sequential-stimulus-presentation-old","47","180649","0.0-15.0-1.1","SS1619739362581","trial","","40","500","1042","images/stimuli/spore_stims/simple_17_A_a.gif","images/stimuli/spore_stims/simple_12_A_b.gif","forced_short","","3","simple_dissimilar","images/stimuli/spore_stims/simple_12_A_b.gif","","","","",""
"","null","html-keyboard-response","48","181518","0.0-15.0-0.2","SS1619739362581","","","null","","","","","","<p><img src= images/blank.png width =""600"" height = ""600"" style=""position:fixed;top:50%; left:50%; transform: translate(-50%, -50%); border:5px solid black"">","","","","","","","",""
"","422","sequential-stimulus-presentation-old","49","182454","0.0-15.0-1.2","SS1619739362581","trial","","40","500","922","images/stimuli/spore_stims/simple_17_A_a.gif","images/stimuli/spore_stims/simple_12_A_b.gif","forced_short","","3","simple_dissimilar","images/stimuli/spore_stims/simple_17_A_a.gif","","","","",""
"","null","html-keyboard-response","50","183476","0.0-15.0-0.3","SS1619739362581","","","null","","","","","","<p><img src= images/blank.png width =""600"" height = ""600"" style=""position:fixed;top:50%; left:50%; transform: translate(-50%, -50%); border:5px solid black"">","","","","","","","",""
"","974","sequential-stimulus-presentation-old","51","184956","0.0-15.0-1.3","SS1619739362581","trial","","40","500","1474","images/stimuli/spore_stims/simple_17_A_a.gif","images/stimuli/spore_stims/simple_12_A_b.gif","forced_short","","3","simple_dissimilar","images/stimuli/spore_stims/simple_12_A_b.gif","","","","",""
"","null","html-keyboard-response","52","186043","0.0-15.0-0.4","SS1619739362581","","","null","","","","","","<p><img src= images/blank.png width =""600"" height = ""600"" style=""position:fixed;top:50%; left:50%; transform: translate(-50%, -50%); border:5px solid black"">","","","","","","","",""
"","820","sequential-stimulus-presentation-old","53","187368","0.0-15.0-1.4","SS1619739362581","trial","","40","500","1320","images/stimuli/spore_stims/simple_17_A_a.gif","images/stimuli/spore_stims/simple_12_A_b.gif","forced_short","","3","simple_dissimilar","images/stimuli/spore_stims/simple_12_A_b.gif","","","","",""
"","null","html-keyboard-response","54","188315","0.0-15.0-0.5","SS1619739362581","","","null","","","","","","<p><img src= images/blank.png width =""600"" height = ""600"" style=""position:fixed;top:50%; left:50%; transform: translate(-50%, -50%); border:5px solid black"">","","","","","","","",""
"","1208","sequential-stimulus-presentation-old","55","190031","0.0-15.0-1.5","SS1619739362581","trial","","40","500","1708","images/stimuli/spore_stims/simple_17_A_a.gif","images/stimuli/spore_stims/simple_12_A_b.gif","forced_short","","3","simple_dissimilar","images/stimuli/spore_stims/simple_12_A_b.gif","","","","",""
"","2491","survey-multi-choice","56","192524","0.0-16.0","SS1619739362581","math_question","","","","","","","","","","","","{""Q0"":""12""}","[0]","12","",""
"","null","html-keyboard-response","57","193476","0.0-17.0-0.0","SS1619739362581","","","null","","","","","","<p><img src= images/blank.png width =""600"" height = ""600"" style=""position:fixed;top:50%; left:50%; transform: translate(-50%, -50%); border:5px solid black"">","","","","","","","",""
"","1020","sequential-stimulus-presentation-old","58","209505","0.0-17.0-1.0","SS1619739362581","trial","","40","500","1520","images/stimuli/spore_stims/simple_13_A_a.gif","images/stimuli/spore_stims/simple_02_A_b.gif","forced_long","","4","simple_dissimilar","images/stimuli/spore_stims/simple_02_A_b.gif","","","","",""
"","null","html-keyboard-response","59","210746","0.0-17.0-0.1","SS1619739362581","","","null","","","","","","<p><img src= images/blank.png width =""600"" height = ""600"" style=""position:fixed;top:50%; left:50%; transform: translate(-50%, -50%); border:5px solid black"">","","","","","","","",""
"","55","sequential-stimulus-presentation-old","60","211320","0.0-17.0-1.1","SS1619739362581","trial","","40","500","555","images/stimuli/spore_stims/simple_13_A_a.gif","images/stimuli/spore_stims/simple_02_A_b.gif","forced_long","","4","simple_dissimilar","images/stimuli/spore_stims/simple_02_A_b.gif","","","","",""
"","null","html-keyboard-response","61","212171","0.0-17.0-0.2","SS1619739362581","","","null","","","","","","<p><img src= images/blank.png width =""600"" height = ""600"" style=""position:fixed;top:50%; left:50%; transform: translate(-50%, -50%); border:5px solid black"">","","","","","","","",""
"","735","sequential-stimulus-presentation-old","62","213426","0.0-17.0-1.2","SS1619739362581","trial","","40","500","1235","images/stimuli/spore_stims/simple_13_A_a.gif","images/stimuli/spore_stims/simple_02_A_b.gif","forced_long","","4","simple_dissimilar","images/stimuli/spore_stims/simple_02_A_b.gif","","","","",""
"","null","html-keyboard-response","63","214558","0.0-17.0-0.3","SS1619739362581","","","null","","","","","","<p><img src= images/blank.png width =""600"" height = ""600"" style=""position:fixed;top:50%; left:50%; transform: translate(-50%, -50%); border:5px solid black"">","","","","","","","",""
"","12","sequential-stimulus-presentation-old","64","215079","0.0-17.0-1.3","SS1619739362581","trial","","40","500","512","images/stimuli/spore_stims/simple_13_A_a.gif","images/stimuli/spore_stims/simple_02_A_b.gif","forced_long","","4","simple_dissimilar","images/stimuli/spore_stims/simple_13_A_a.gif","","","","",""
"","null","html-keyboard-response","65","216010","0.0-17.0-0.4","SS1619739362581","","","null","","","","","","<p><img src= images/blank.png width =""600"" height = ""600"" style=""position:fixed;top:50%; left:50%; transform: translate(-50%, -50%); border:5px solid black"">","","","","","","","",""
"","365","sequential-stimulus-presentation-old","66","216881","0.0-17.0-1.4","SS1619739362581","trial","","40","500","865","images/stimuli/spore_stims/simple_13_A_a.gif","images/stimuli/spore_stims/simple_02_A_b.gif","forced_long","","4","simple_dissimilar","images/stimuli/spore_stims/simple_02_A_b.gif","","","","",""
"","2839","survey-multi-choice","67","219724","0.0-18.0","SS1619739362581","math_question","","","","","","","","","","","","{""Q0"":""13""}","[0]","13","",""
"","null","html-keyboard-response","68","220615","0.0-19.0-0.0","SS1619739362581","","","null","","","","","","<p><img src= images/blank.png width =""600"" height = ""600"" style=""position:fixed;top:50%; left:50%; transform: translate(-50%, -50%); border:5px solid black"">","","","","","","","",""
"","597","sequential-stimulus-presentation-old","69","221717","0.0-19.0-1.0","SS1619739362581","trial","","40","500","1097","images/stimuli/spore_stims/simple_10_A_b.gif","images/stimuli/spore_stims/simple_04_A_a.gif","forced_short","","5","simple_dissimilar","images/stimuli/spore_stims/simple_04_A_a.gif","","","","",""
"","null","html-keyboard-response","70","222818","0.0-19.0-0.1","SS1619739362581","","","null","","","","","","<p><img src= images/blank.png width =""600"" height = ""600"" style=""position:fixed;top:50%; left:50%; transform: translate(-50%, -50%); border:5px solid black"">","","","","","","","",""
"","302","sequential-stimulus-presentation-old","71","223627","0.0-19.0-1.1","SS1619739362581","trial","","40","500","802","images/stimuli/spore_stims/simple_10_A_b.gif","images/stimuli/spore_stims/simple_04_A_a.gif","forced_short","","5","simple_dissimilar","images/stimuli/spore_stims/simple_04_A_a.gif","","","","",""
"","null","html-keyboard-response","72","224710","0.0-19.0-0.2","SS1619739362581","","","null","","","","","","<p><img src= images/blank.png width =""600"" height = ""600"" style=""position:fixed;top:50%; left:50%; transform: translate(-50%, -50%); border:5px solid black"">","","","","","","","",""
"","973","sequential-stimulus-presentation-old","73","226202","0.0-19.0-1.2","SS1619739362581","trial","","40","500","1473","images/stimuli/spore_stims/simple_10_A_b.gif","images/stimuli/spore_stims/simple_04_A_a.gif","forced_short","","5","simple_dissimilar","images/stimuli/spore_stims/simple_04_A_a.gif","","","","",""
"","null","html-keyboard-response","74","227192","0.0-19.0-0.3","SS1619739362581","","","null","","","","","","<p><img src= images/blank.png width =""600"" height = ""600"" style=""position:fixed;top:50%; left:50%; transform: translate(-50%, -50%); border:5px solid black"">","","","","","","","",""
"","232","sequential-stimulus-presentation-old","75","227930","0.0-19.0-1.3","SS1619739362581","trial","","40","500","732","images/stimuli/spore_stims/simple_10_A_b.gif","images/stimuli/spore_stims/simple_04_A_a.gif","forced_short","","5","simple_dissimilar","images/stimuli/spore_stims/simple_10_A_b.gif","","","","",""
"","null","html-keyboard-response","76","228741","0.0-19.0-0.4","SS1619739362581","","","null","","","","","","<p><img src= images/blank.png width =""600"" height = ""600"" style=""position:fixed;top:50%; left:50%; transform: translate(-50%, -50%); border:5px solid black"">","","","","","","","",""
"","124","sequential-stimulus-presentation-old","77","229376","0.0-19.0-1.4","SS1619739362581","trial","","40","500","624","images/stimuli/spore_stims/simple_10_A_b.gif","images/stimuli/spore_stims/simple_04_A_a.gif","forced_short","","5","simple_dissimilar","images/stimuli/spore_stims/simple_04_A_a.gif","","","","",""
"","null","html-keyboard-response","78","230300","0.0-19.0-0.5","SS1619739362581","","","null","","","","","","<p><img src= images/blank.png width =""600"" height = ""600"" style=""position:fixed;top:50%; left:50%; transform: translate(-50%, -50%); border:5px solid black"">","","","","","","","",""
"","119","sequential-stimulus-presentation-old","79","230926","0.0-19.0-1.5","SS1619739362581","trial","","40","500","619","images/stimuli/spore_stims/simple_10_A_b.gif","images/stimuli/spore_stims/simple_04_A_a.gif","forced_short","","5","simple_dissimilar","images/stimuli/spore_stims/simple_04_A_a.gif","","","","",""
"","2690","survey-multi-choice","80","233619","0.0-20.0","SS1619739362581","math_question","","","","","","","","","","","","{""Q0"":""8""}","[0]","8","",""
"","null","html-keyboard-response","81","234540","0.0-21.0-0.0","SS1619739362581","","","null","","","","","","<p><img src= images/blank.png width =""600"" height = ""600"" style=""position:fixed;top:50%; left:50%; transform: translate(-50%, -50%); border:5px solid black"">","","","","","","","",""
"","128","sequential-stimulus-presentation-old","82","235184","0.0-21.0-1.0","SS1619739362581","trial","","40","500","628","images/stimuli/spore_stims/simple_15_A_a.gif","images/stimuli/spore_stims/simple_06_A_b.gif","self_paced","","6","simple_dissimilar","images/stimuli/spore_stims/simple_06_A_b.gif","","","","",""
"","null","html-keyboard-response","83","236472","0.0-21.0-0.1","SS1619739362581","","","null","","","","","","<p><img src= images/blank.png width =""600"" height = ""600"" style=""position:fixed;top:50%; left:50%; transform: translate(-50%, -50%); border:5px solid black"">","","","","","","","",""
"","21","sequential-stimulus-presentation-old","84","237011","0.0-21.0-1.1","SS1619739362581","trial","","40","500","521","images/stimuli/spore_stims/simple_15_A_a.gif","images/stimuli/spore_stims/simple_06_A_b.gif","self_paced","","6","simple_dissimilar","images/stimuli/spore_stims/simple_06_A_b.gif","","","","",""
"","null","html-keyboard-response","85","238051","0.0-21.0-0.2","SS1619739362581","","","null","","","","","","<p><img src= images/blank.png width =""600"" height = ""600"" style=""position:fixed;top:50%; left:50%; transform: translate(-50%, -50%); border:5px solid black"">","","","","","","","",""
"","725","sequential-stimulus-presentation-old","86","239282","0.0-21.0-1.2","SS1619739362581","trial","","40","500","1225","images/stimuli/spore_stims/simple_15_A_a.gif","images/stimuli/spore_stims/simple_06_A_b.gif","self_paced","","6","simple_dissimilar","images/stimuli/spore_stims/simple_06_A_b.gif","","","","",""
"","null","html-keyboard-response","87","240211","0.0-21.0-0.3","SS1619739362581","","","null","","","","","","<p><img src= images/blank.png width =""600"" height = ""600"" style=""position:fixed;top:50%; left:50%; transform: translate(-50%, -50%); border:5px solid black"">","","","","","","","",""
"","1233","sequential-stimulus-presentation-old","88","241955","0.0-21.0-1.3","SS1619739362581","trial","","40","500","1733","images/stimuli/spore_stims/simple_15_A_a.gif","images/stimuli/spore_stims/simple_06_A_b.gif","self_paced","","6","simple_dissimilar","images/stimuli/spore_stims/simple_06_A_b.gif","","","","",""
"","2343","survey-multi-choice","89","244302","0.0-22.0","SS1619739362581","math_question","","","","","","","","","","","","{""Q0"":""8""}","[0]","8","",""
"","null","html-keyboard-response","90","245544","0.0-23.0-0.0","SS1619739362581","","","null","","","","","","<p><img src= images/blank.png width =""600"" height = ""600"" style=""position:fixed;top:50%; left:50%; transform: translate(-50%, -50%); border:5px solid black"">","","","","","","","",""
"","6578","sequential-stimulus-presentation-old","91","267139","0.0-23.0-1.0","SS1619739362581","trial","","40","500","7078","images/stimuli/spore_stims/simple_04_A_b.gif","images/stimuli/spore_stims/simple_06_A_a.gif","forced_long","","7","simple_dissimilar","images/stimuli/spore_stims/simple_06_A_a.gif","","","","",""
"","null","html-keyboard-response","92","268377","0.0-23.0-0.1","SS1619739362581","","","null","","","","","","<p><img src= images/blank.png width =""600"" height = ""600"" style=""position:fixed;top:50%; left:50%; transform: translate(-50%, -50%); border:5px solid black"">","","","","","","","",""
"","64","sequential-stimulus-presentation-old","93","268945","0.0-23.0-1.1","SS1619739362581","trial","","40","500","564","images/stimuli/spore_stims/simple_04_A_b.gif","images/stimuli/spore_stims/simple_06_A_a.gif","forced_long","","7","simple_dissimilar","images/stimuli/spore_stims/simple_06_A_a.gif","","","","",""
"","null","html-keyboard-response","94","269958","0.0-23.0-0.2","SS1619739362581","","","null","","","","","","<p><img src= images/blank.png width =""600"" height = ""600"" style=""position:fixed;top:50%; left:50%; transform: translate(-50%, -50%); border:5px solid black"">","","","","","","","",""
"","54","sequential-stimulus-presentation-old","95","270530","0.0-23.0-1.2","SS1619739362581","trial","","40","500","554","images/stimuli/spore_stims/simple_04_A_b.gif","images/stimuli/spore_stims/simple_06_A_a.gif","forced_long","","7","simple_dissimilar","images/stimuli/spore_stims/simple_04_A_b.gif","","","","",""
"","null","html-keyboard-response","96","271674","0.0-23.0-0.3","SS1619739362581","","","null","","","","","","<p><img src= images/blank.png width =""600"" height = ""600"" style=""position:fixed;top:50%; left:50%; transform: translate(-50%, -50%); border:5px solid black"">","","","","","","","",""
"","855","sequential-stimulus-presentation-old","97","273048","0.0-23.0-1.3","SS1619739362581","trial","","40","500","1355","images/stimuli/spore_stims/simple_04_A_b.gif","images/stimuli/spore_stims/simple_06_A_a.gif","forced_long","","7","simple_dissimilar","images/stimuli/spore_stims/simple_06_A_a.gif","","","","",""
"","null","html-keyboard-response","98","274264","0.0-23.0-0.4","SS1619739362581","","","null","","","","","","<p><img src= images/blank.png width =""600"" height = ""600"" style=""position:fixed;top:50%; left:50%; transform: translate(-50%, -50%); border:5px solid black"">","","","","","","","",""
"","51","sequential-stimulus-presentation-old","99","274835","0.0-23.0-1.4","SS1619739362581","trial","","40","500","551","images/stimuli/spore_stims/simple_04_A_b.gif","images/stimuli/spore_stims/simple_06_A_a.gif","forced_long","","7","simple_dissimilar","images/stimuli/spore_stims/simple_06_A_a.gif","","","","",""
"","3211","survey-multi-choice","100","278050","0.0-24.0","SS1619739362581","math_question","","","","","","","","","","","","{""Q0"":""12""}","[0]","12","",""
"","null","html-keyboard-response","101","279003","0.0-25.0-0.0","SS1619739362581","","","null","","","","","","<p><img src= images/blank.png width =""600"" height = ""600"" style=""position:fixed;top:50%; left:50%; transform: translate(-50%, -50%); border:5px solid black"">","","","","","","","",""
"","1988","sequential-stimulus-presentation-old","102","281506","0.0-25.0-1.0","SS1619739362581","trial","","40","500","2488","images/stimuli/spore_stims/complex_02_A_b.gif","images/stimuli/spore_stims/complex_08_A_a.gif","self_paced","","8","complex_dissimilar","images/stimuli/spore_stims/complex_08_A_a.gif","","","","",""
"","null","html-keyboard-response","103","282433","0.0-25.0-0.1","SS1619739362581","","","null","","","","","","<p><img src= images/blank.png width =""600"" height = ""600"" style=""position:fixed;top:50%; left:50%; transform: translate(-50%, -50%); border:5px solid black"">","","","","","","","",""
"","413","sequential-stimulus-presentation-old","104","283365","0.0-25.0-1.1","SS1619739362581","trial","","40","500","913","images/stimuli/spore_stims/complex_02_A_b.gif","images/stimuli/spore_stims/complex_08_A_a.gif","self_paced","","8","complex_dissimilar","images/stimuli/spore_stims/complex_08_A_a.gif","","","","",""
"","null","html-keyboard-response","105","284394","0.0-25.0-0.2","SS1619739362581","","","null","","","","","","<p><img src= images/blank.png width =""600"" height = ""600"" style=""position:fixed;top:50%; left:50%; transform: translate(-50%, -50%); border:5px solid black"">","","","","","","","",""
"","703","sequential-stimulus-presentation-old","106","285602","0.0-25.0-1.2","SS1619739362581","trial","","40","500","1203","images/stimuli/spore_stims/complex_02_A_b.gif","images/stimuli/spore_stims/complex_08_A_a.gif","self_paced","","8","complex_dissimilar","images/stimuli/spore_stims/complex_08_A_a.gif","","","","",""
"","null","html-keyboard-response","107","286556","0.0-25.0-0.3","SS1619739362581","","","null","","","","","","<p><img src= images/blank.png width =""600"" height = ""600"" style=""position:fixed;top:50%; left:50%; transform: translate(-50%, -50%); border:5px solid black"">","","","","","","","",""
"","377","sequential-stimulus-presentation-old","108","287441","0.0-25.0-1.3","SS1619739362581","trial","","40","500","877","images/stimuli/spore_stims/complex_02_A_b.gif","images/stimuli/spore_stims/complex_08_A_a.gif","self_paced","","8","complex_dissimilar","images/stimuli/spore_stims/complex_08_A_a.gif","","","","",""
"","null","html-keyboard-response","109","288628","0.0-25.0-0.4","SS1619739362581","","","null","","","","","","<p><img src= images/blank.png width =""600"" height = ""600"" style=""position:fixed;top:50%; left:50%; transform: translate(-50%, -50%); border:5px solid black"">","","","","","","","",""
"","1589","sequential-stimulus-presentation-old","110","290721","0.0-25.0-1.4","SS1619739362581","trial","","40","500","2089","images/stimuli/spore_stims/complex_02_A_b.gif","images/stimuli/spore_stims/complex_08_A_a.gif","self_paced","","8","complex_dissimilar","images/stimuli/spore_stims/complex_02_A_b.gif","","","","",""
"","4326","survey-multi-choice","111","295052","0.0-26.0","SS1619739362581","math_question","","","","","","","","","","","","{""Q0"":""14""}","[0]","14","",""
"","null","html-keyboard-response","112","296227","0.0-27.0-0.0","SS1619739362581","","","null","","","","","","<p><img src= images/blank.png width =""600"" height = ""600"" style=""position:fixed;top:50%; left:50%; transform: translate(-50%, -50%); border:5px solid black"">","","","","","","","",""
"","453","sequential-stimulus-presentation-old","113","297190","0.0-27.0-1.0","SS1619739362581","trial","","40","500","953","images/stimuli/spore_stims/complex_10_A_a.gif","images/stimuli/spore_stims/complex_07_A_b.gif","forced_short","","9","complex_dissimilar","images/stimuli/spore_stims/complex_07_A_b.gif","","","","",""
"","null","html-keyboard-response","114","298195","0.0-27.0-0.1","SS1619739362581","","","null","","","","","","<p><img src= images/blank.png width =""600"" height = ""600"" style=""position:fixed;top:50%; left:50%; transform: translate(-50%, -50%); border:5px solid black"">","","","","","","","",""
"","2464","sequential-stimulus-presentation-old","115","301178","0.0-27.0-1.1","SS1619739362581","trial","","40","500","2964","images/stimuli/spore_stims/complex_10_A_a.gif","images/stimuli/spore_stims/complex_07_A_b.gif","forced_short","","9","complex_dissimilar","images/stimuli/spore_stims/complex_07_A_b.gif","","","","",""
"","null","html-keyboard-response","116","302124","0.0-27.0-0.2","SS1619739362581","","","null","","","","","","<p><img src= images/blank.png width =""600"" height = ""600"" style=""position:fixed;top:50%; left:50%; transform: translate(-50%, -50%); border:5px solid black"">","","","","","","","",""
"","865","sequential-stimulus-presentation-old","117","303504","0.0-27.0-1.2","SS1619739362581","trial","","40","500","1365","images/stimuli/spore_stims/complex_10_A_a.gif","images/stimuli/spore_stims/complex_07_A_b.gif","forced_short","","9","complex_dissimilar","images/stimuli/spore_stims/complex_07_A_b.gif","","","","",""
"","null","html-keyboard-response","118","304352","0.0-27.0-0.3","SS1619739362581","","","null","","","","","","<p><img src= images/blank.png width =""600"" height = ""600"" style=""position:fixed;top:50%; left:50%; transform: translate(-50%, -50%); border:5px solid black"">","","","","","","","",""
"","71","sequential-stimulus-presentation-old","119","304928","0.0-27.0-1.3","SS1619739362581","trial","","40","500","571","images/stimuli/spore_stims/complex_10_A_a.gif","images/stimuli/spore_stims/complex_07_A_b.gif","forced_short","","9","complex_dissimilar","images/stimuli/spore_stims/complex_07_A_b.gif","","","","",""
"","null","html-keyboard-response","120","306045","0.0-27.0-0.4","SS1619739362581","","","null","","","","","","<p><img src= images/blank.png width =""600"" height = ""600"" style=""position:fixed;top:50%; left:50%; transform: translate(-50%, -50%); border:5px solid black"">","","","","","","","",""
"","2147","sequential-stimulus-presentation-old","121","308708","0.0-27.0-1.4","SS1619739362581","trial","","40","500","2647","images/stimuli/spore_stims/complex_10_A_a.gif","images/stimuli/spore_stims/complex_07_A_b.gif","forced_short","","9","complex_dissimilar","images/stimuli/spore_stims/complex_07_A_b.gif","","","","",""
"","2951","survey-multi-choice","122","311665","0.0-28.0","SS1619739362581","math_question","","","","","","","","","","","","{""Q0"":""14""}","[0]","14","",""
"","null","html-keyboard-response","123","312774","0.0-29.0-0.0","SS1619739362581","","","null","","","","","","<p><img src= images/blank.png width =""600"" height = ""600"" style=""position:fixed;top:50%; left:50%; transform: translate(-50%, -50%); border:5px solid black"">","","","","","","","",""
"","513","sequential-stimulus-presentation-old","124","328292","0.0-29.0-1.0","SS1619739362581","trial","","40","500","1013","images/stimuli/spore_stims/complex_18_A_a.gif","images/stimuli/spore_stims/complex_12_A_b.gif","forced_long","","10","complex_dissimilar","images/stimuli/spore_stims/complex_12_A_b.gif","","","","",""
"","null","html-keyboard-response","125","329287","0.0-29.0-0.1","SS1619739362581","","","null","","","","","","<p><img src= images/blank.png width =""600"" height = ""600"" style=""position:fixed;top:50%; left:50%; transform: translate(-50%, -50%); border:5px solid black"">","","","","","","","",""
"","123","sequential-stimulus-presentation-old","126","329918","0.0-29.0-1.1","SS1619739362581","trial","","40","500","623","images/stimuli/spore_stims/complex_18_A_a.gif","images/stimuli/spore_stims/complex_12_A_b.gif","forced_long","","10","complex_dissimilar","images/stimuli/spore_stims/complex_12_A_b.gif","","","","",""
"","null","html-keyboard-response","127","330920","0.0-29.0-0.2","SS1619739362581","","","null","","","","","","<p><img src= images/blank.png width =""600"" height = ""600"" style=""position:fixed;top:50%; left:50%; transform: translate(-50%, -50%); border:5px solid black"">","","","","","","","",""
"","400","sequential-stimulus-presentation-old","128","331825","0.0-29.0-1.2","SS1619739362581","trial","","40","500","900","images/stimuli/spore_stims/complex_18_A_a.gif","images/stimuli/spore_stims/complex_12_A_b.gif","forced_long","","10","complex_dissimilar","images/stimuli/spore_stims/complex_12_A_b.gif","","","","",""
"","null","html-keyboard-response","129","332827","0.0-29.0-0.3","SS1619739362581","","","null","","","","","","<p><img src= images/blank.png width =""600"" height = ""600"" style=""position:fixed;top:50%; left:50%; transform: translate(-50%, -50%); border:5px solid black"">","","","","","","","",""
"","125","sequential-stimulus-presentation-old","130","333461","0.0-29.0-1.3","SS1619739362581","trial","","40","500","625","images/stimuli/spore_stims/complex_18_A_a.gif","images/stimuli/spore_stims/complex_12_A_b.gif","forced_long","","10","complex_dissimilar","images/stimuli/spore_stims/complex_12_A_b.gif","","","","",""
"","null","html-keyboard-response","131","334385","0.0-29.0-0.4","SS1619739362581","","","null","","","","","","<p><img src= images/blank.png width =""600"" height = ""600"" style=""position:fixed;top:50%; left:50%; transform: translate(-50%, -50%); border:5px solid black"">","","","","","","","",""
"","369","sequential-stimulus-presentation-old","132","335274","0.0-29.0-1.4","SS1619739362581","trial","","40","500","869","images/stimuli/spore_stims/complex_18_A_a.gif","images/stimuli/spore_stims/complex_12_A_b.gif","forced_long","","10","complex_dissimilar","images/stimuli/spore_stims/complex_18_A_a.gif","","","","",""
"","null","html-keyboard-response","133","336231","0.0-29.0-0.5","SS1619739362581","","","null","","","","","","<p><img src= images/blank.png width =""600"" height = ""600"" style=""position:fixed;top:50%; left:50%; transform: translate(-50%, -50%); border:5px solid black"">","","","","","","","",""
"","345","sequential-stimulus-presentation-old","134","337082","0.0-29.0-1.5","SS1619739362581","trial","","40","500","845","images/stimuli/spore_stims/complex_18_A_a.gif","images/stimuli/spore_stims/complex_12_A_b.gif","forced_long","","10","complex_dissimilar","images/stimuli/spore_stims/complex_18_A_a.gif","","","","",""
"","2723","survey-multi-choice","135","339811","0.0-30.0","SS1619739362581","math_question","","","","","","","","","","","","{""Q0"":""10""}","[0]","10","",""
"","null","html-keyboard-response","136","340744","0.0-31.0-0.0","SS1619739362581","","","null","","","","","","<p><img src= images/blank.png width =""600"" height = ""600"" style=""position:fixed;top:50%; left:50%; transform: translate(-50%, -50%); border:5px solid black"">","","","","","","","",""
"","2719","sequential-stimulus-presentation-old","137","343981","0.0-31.0-1.0","SS1619739362581","trial","","40","500","3219","images/stimuli/spore_stims/complex_19_A_b.gif","images/stimuli/spore_stims/complex_04_A_a.gif","forced_short","","11","complex_dissimilar","images/stimuli/spore_stims/complex_04_A_a.gif","","","","",""
"","null","html-keyboard-response","138","345159","0.0-31.0-0.1","SS1619739362581","","","null","","","","","","<p><img src= images/blank.png width =""600"" height = ""600"" style=""position:fixed;top:50%; left:50%; transform: translate(-50%, -50%); border:5px solid black"">","","","","","","","",""
"","168","sequential-stimulus-presentation-old","139","345842","0.0-31.0-1.1","SS1619739362581","trial","","40","500","668","images/stimuli/spore_stims/complex_19_A_b.gif","images/stimuli/spore_stims/complex_04_A_a.gif","forced_short","","11","complex_dissimilar","images/stimuli/spore_stims/complex_04_A_a.gif","","","","",""
"","null","html-keyboard-response","140","346980","0.0-31.0-0.2","SS1619739362581","","","null","","","","","","<p><img src= images/blank.png width =""600"" height = ""600"" style=""position:fixed;top:50%; left:50%; transform: translate(-50%, -50%); border:5px solid black"">","","","","","","","",""
"","206","sequential-stimulus-presentation-old","141","347701","0.0-31.0-1.2","SS1619739362581","trial","","40","500","706","images/stimuli/spore_stims/complex_19_A_b.gif","images/stimuli/spore_stims/complex_04_A_a.gif","forced_short","","11","complex_dissimilar","images/stimuli/spore_stims/complex_19_A_b.gif","","","","",""
"","null","html-keyboard-response","142","348568","0.0-31.0-0.3","SS1619739362581","","","null","","","","","","<p><img src= images/blank.png width =""600"" height = ""600"" style=""position:fixed;top:50%; left:50%; transform: translate(-50%, -50%); border:5px solid black"">","","","","","","","",""
"","112","sequential-stimulus-presentation-old","143","349199","0.0-31.0-1.3","SS1619739362581","trial","","40","500","612","images/stimuli/spore_stims/complex_19_A_b.gif","images/stimuli/spore_stims/complex_04_A_a.gif","forced_short","","11","complex_dissimilar","images/stimuli/spore_stims/complex_04_A_a.gif","","","","",""
"[{""page_index"":0,""viewing_time"":5839}]","5839","instructions","144","355043","0.0-32.0","SS1619739362581","instructions","","","","","","","","","","","","","","","",""
"","8786","survey-likert","145","363832","0.0-33.0","SS1619739362581","similarity_question","","","","","","","","","","","","{""Q0"":0}","[0]","","images/stimuli/spore_stims/complex_07_A_b.gif","images/stimuli/spore_stims/complex_10_A_a.gif"
"","6032","survey-likert","146","369867","0.0-34.0","SS1619739362581","similarity_question","","","","","","","","","","","","{""Q0"":0}","[0]","","images/stimuli/spore_stims/complex_12_A_b.gif","images/stimuli/spore_stims/complex_18_A_a.gif"
"","5929","survey-likert","147","375798","0.0-35.0","SS1619739362581","similarity_question","","","","","","","","","","","","{""Q0"":4}","[0]","","images/stimuli/spore_stims/simple_04_A_a.gif","images/stimuli/spore_stims/simple_10_A_b.gif"
"","1769","survey-likert","148","377571","0.0-36.0","SS1619739362581","similarity_question","","","","","","","","","","","","{""Q0"":4}","[0]","","images/stimuli/spore_stims/simple_02_A_b.gif","images/stimuli/spore_stims/simple_13_A_a.gif"
"","2413","survey-likert","149","379988","0.0-37.0","SS1619739362581","similarity_question","","","","","","","","","","","","{""Q0"":1}","[0]","","images/stimuli/spore_stims/complex_01_A_a.gif","images/stimuli/spore_stims/complex_14_A_b.gif"
"","2180","survey-likert","150","382170","0.0-38.0","SS1619739362581","similarity_question","","","","","","","","","","","","{""Q0"":4}","[0]","","images/stimuli/spore_stims/simple_12_A_b.gif","images/stimuli/spore_stims/simple_17_A_a.gif"
"","2301","survey-likert","151","384475","0.0-39.0","SS1619739362581","similarity_question","","","","","","","","","","","","{""Q0"":4}","[0]","","images/stimuli/spore_stims/simple_09_A_a.gif","images/stimuli/spore_stims/simple_15_A_b.gif"
"","3463","survey-likert","152","387942","0.0-40.0","SS1619739362581","similarity_question","","","","","","","","","","","","{""Q0"":4}","[0]","","images/stimuli/spore_stims/simple_06_A_a.gif","images/stimuli/spore_stims/simple_04_A_b.gif"
"","3452","survey-likert","153","391397","0.0-41.0","SS1619739362581","similarity_question","","","","","","","","","","","","{""Q0"":0}","[0]","","images/stimuli/spore_stims/complex_08_A_a.gif","images/stimuli/spore_stims/complex_02_A_b.gif"
"","3392","survey-likert","154","394793","0.0-42.0","SS1619739362581","similarity_question","","","","","","","","","","","","{""Q0"":0}","[0]","","images/stimuli/spore_stims/complex_04_A_a.gif","images/stimuli/spore_stims/complex_19_A_b.gif"
"","1777","survey-likert","155","396573","0.0-43.0","SS1619739362581","similarity_question","","","","","","","","","","","","{""Q0"":4}","[0]","","images/stimuli/spore_stims/simple_06_A_b.gif","images/stimuli/spore_stims/simple_15_A_a.gif"
"","3547","survey-likert","156","400122","0.0-44.0","SS1619739362581","similarity_question","","","","","","","","","","","","{""Q0"":0}","[0]","","images/stimuli/spore_stims/complex_13_A_b.gif","images/stimuli/spore_stims/complex_09_A_a.gif"
"[{""page_index"":0,""viewing_time"":3749}]","3749","instructions","157","403873","0.0-45.0","SS1619739362581","instructions","","","","","","","","","","","","","","","",""
"","4340","survey-likert","158","408217","0.0-46.0","SS1619739362581","","","","","","","","","images/stimuli/spore_stims/complex_09_A_a.gif","","","","{""Q0"":4}","[0]","","",""
"","3775","survey-likert","159","411995","0.0-47.0","SS1619739362581","","","","","","","","","images/stimuli/spore_stims/simple_04_A_b.gif","","","","{""Q0"":0}","[0]","","",""
"","1731","survey-likert","160","413729","0.0-48.0","SS1619739362581","","","","","","","","","images/stimuli/spore_stims/complex_18_A_a.gif","","","","{""Q0"":5}","[0]","","",""
"","1566","survey-likert","161","415298","0.0-49.0","SS1619739362581","","","","","","","","","images/stimuli/spore_stims/complex_19_A_b.gif","","","","{""Q0"":5}","[0]","","",""
"","1530","survey-likert","162","416831","0.0-50.0","SS1619739362581","","","","","","","","","images/stimuli/spore_stims/simple_09_A_a.gif","","","","{""Q0"":0}","[0]","","",""
"","1476","survey-likert","163","418310","0.0-51.0","SS1619739362581","","","","","","","","","images/stimuli/spore_stims/simple_10_A_b.gif","","","","{""Q0"":0}","[0]","","",""
"","1231","survey-likert","164","419544","0.0-52.0","SS1619739362581","","","","","","","","","images/stimuli/spore_stims/simple_17_A_a.gif","","","","{""Q0"":0}","[0]","","",""
"","1401","survey-likert","165","420948","0.0-53.0","SS1619739362581","","","","","","","","","images/stimuli/spore_stims/simple_15_A_a.gif","","","","{""Q0"":0}","[0]","","",""
"","1216","survey-likert","166","422167","0.0-54.0","SS1619739362581","","","","","","","","","images/stimuli/spore_stims/simple_13_A_a.gif","","","","{""Q0"":0}","[0]","","",""
"","2088","survey-likert","167","424259","0.0-55.0","SS1619739362581","","","","","","","","","images/stimuli/spore_stims/complex_02_A_b.gif","","","","{""Q0"":5}","[0]","","",""
"","3484","survey-likert","168","427747","0.0-56.0","SS1619739362581","","","","","","","","","images/stimuli/spore_stims/complex_07_A_b.gif","","","","{""Q0"":6}","[0]","","",""
"","2388","survey-likert","169","430137","0.0-57.0","SS1619739362581","","","","","","","","","images/stimuli/spore_stims/complex_14_A_b.gif","","","","{""Q0"":5}","[0]","","",""
"[{""page_index"":0,""viewing_time"":2146}]","2146","instructions","170","432286","0.0-58.0","SS1619739362581","instructions","","","","","","","","","","","","","","","",""
"","2172","demog-age","171","434463","0.0-59.0","SS1619739362581","","","","","","","","","","","","","{""age"":""21""}","","","",""
"","4436","demog-ethnic-US","172","438905","0.0-60.0","SS1619739362581","","","","","","","","","","","","","{""ethnicity"":[""White""]}","[0]","","",""
"","5521","demog-gender-and-education","173","444429","0.0-61.0","SS1619739362581","","","","","","","","","","","","","{""gender"":""Male"",""education"":""High school diploma""}","[0,1]","","",""
"","5258","survey-text","174","449690","0.0-62.0","SS1619739362581","feedback","","","","","","","","","","","","{""Q0"":""nope""}","","","",""
"[{""page_index"":0,""viewing_time"":1125}]","1126","instructions","175","450819","0.0-63.0","SS1619739362581","instructions","","","","","","","","","","","","","","","",""
