"view_history","rt","trial_type","trial_index","time_elapsed","internal_node_id","subject","stimulus_type","trial_stimulus","key_press","minimum_viewing_duration","trial_looking_time","block_deviant","block_background","exposure_type","stimulus","block_number","block_type","stimulus_displayed","responses","question_order","math_correct_answer","stimulus_left","stimulus_right"
"[{""page_index"":0,""viewing_time"":4075}]","4076","instructions","0","4078","0.0-0.0","SS1619739934260","","","","","","","","","","","","","","","","",""
"[{""page_index"":0,""viewing_time"":6138},{""page_index"":1,""viewing_time"":3225}]","9363","instructions","1","15446","0.0-1.0","SS1619739934260","instructions","","","","","","","","","","","","","","","",""
"","4182","sequential-stimulus-presentation-old","2","20131","0.0-2.0","SS1619739934260","","","40","500","4682","null","null","self_paced","","","","","","","","",""
"","3198","sequential-stimulus-presentation-old","3","23832","0.0-3.0","SS1619739934260","","","40","500","3698","null","null","self_paced","","","","","","","","",""
"[{""page_index"":0,""viewing_time"":8448}]","8448","instructions","4","32281","0.0-4.0","SS1619739934260","instructions","","","","","","","","","","","","","","","",""
"","787","sequential-stimulus-presentation-old","5","48076","0.0-5.0","SS1619739934260","","","40","500","1287","null","null","forced_long","","","","","","","","",""
"","1071","sequential-stimulus-presentation-old","6","49649","0.0-6.0","SS1619739934260","","","40","500","1571","null","null","forced_long","","","","","","","","",""
"[{""page_index"":0,""viewing_time"":2070}]","2070","instructions","7","51721","0.0-7.0","SS1619739934260","instructions","","","","","","","","","","","","","","","",""
"[{""page_index"":0,""viewing_time"":6126},{""page_index"":1,""viewing_time"":5754},{""page_index"":2,""viewing_time"":3352},{""page_index"":3,""viewing_time"":980},{""page_index"":4,""viewing_time"":848}]","17060","instructions","8","68782","0.0-8.0","SS1619739934260","instructions","","","","","","","","","","","","","","","",""
"","null","html-keyboard-response","9","69978","0.0-9.0-0.0","SS1619739934260","","","null","","","","","","<p><img src= images/blank.png width =""600"" height = ""600"" style=""position:fixed;top:50%; left:50%; transform: translate(-50%, -50%); border:5px solid black"">","","","","","","","",""
"","2022","sequential-stimulus-presentation-old","10","87003","0.0-9.0-1.0","SS1619739934260","trial","","40","500","2522","images/stimuli/spore_stims/simple_05_A_b.gif","images/stimuli/spore_stims/simple_10_A_a.gif","forced_long","","0","simple_dissimilar","images/stimuli/spore_stims/simple_10_A_a.gif","","","","",""
"","null","html-keyboard-response","11","88026","0.0-9.0-0.1","SS1619739934260","","","null","","","","","","<p><img src= images/blank.png width =""600"" height = ""600"" style=""position:fixed;top:50%; left:50%; transform: translate(-50%, -50%); border:5px solid black"">","","","","","","","",""
"","31214","sequential-stimulus-presentation-old","12","119742","0.0-9.0-1.1","SS1619739934260","trial","","40","500","31714","images/stimuli/spore_stims/simple_05_A_b.gif","images/stimuli/spore_stims/simple_10_A_a.gif","forced_long","","0","simple_dissimilar","images/stimuli/spore_stims/simple_10_A_a.gif","","","","",""
"","null","html-keyboard-response","13","120972","0.0-9.0-0.2","SS1619739934260","","","null","","","","","","<p><img src= images/blank.png width =""600"" height = ""600"" style=""position:fixed;top:50%; left:50%; transform: translate(-50%, -50%); border:5px solid black"">","","","","","","","",""
"","57712","sequential-stimulus-presentation-old","14","179186","0.0-9.0-1.2","SS1619739934260","trial","","40","500","58212","images/stimuli/spore_stims/simple_05_A_b.gif","images/stimuli/spore_stims/simple_10_A_a.gif","forced_long","","0","simple_dissimilar","images/stimuli/spore_stims/simple_10_A_a.gif","","","","",""
"","null","html-keyboard-response","15","180212","0.0-9.0-0.3","SS1619739934260","","","null","","","","","","<p><img src= images/blank.png width =""600"" height = ""600"" style=""position:fixed;top:50%; left:50%; transform: translate(-50%, -50%); border:5px solid black"">","","","","","","","",""
"","49344","sequential-stimulus-presentation-old","16","230058","0.0-9.0-1.3","SS1619739934260","trial","","40","500","49844","images/stimuli/spore_stims/simple_05_A_b.gif","images/stimuli/spore_stims/simple_10_A_a.gif","forced_long","","0","simple_dissimilar","images/stimuli/spore_stims/simple_10_A_a.gif","","","","",""
"","null","html-keyboard-response","17","230996","0.0-9.0-0.4","SS1619739934260","","","null","","","","","","<p><img src= images/blank.png width =""600"" height = ""600"" style=""position:fixed;top:50%; left:50%; transform: translate(-50%, -50%); border:5px solid black"">","","","","","","","",""
"","1454","sequential-stimulus-presentation-old","18","232952","0.0-9.0-1.4","SS1619739934260","trial","","40","500","1954","images/stimuli/spore_stims/simple_05_A_b.gif","images/stimuli/spore_stims/simple_10_A_a.gif","forced_long","","0","simple_dissimilar","images/stimuli/spore_stims/simple_10_A_a.gif","","","","",""
"","2984","survey-multi-choice","19","235939","0.0-10.0","SS1619739934260","math_question","","","","","","","","","","","","{""Q0"":""14""}","[0]","14","",""
"","null","html-keyboard-response","20","237109","0.0-11.0-0.0","SS1619739934260","","","null","","","","","","<p><img src= images/blank.png width =""600"" height = ""600"" style=""position:fixed;top:50%; left:50%; transform: translate(-50%, -50%); border:5px solid black"">","","","","","","","",""
"","1519","sequential-stimulus-presentation-old","21","253632","0.0-11.0-1.0","SS1619739934260","trial","","40","500","2019","images/stimuli/spore_stims/complex_06_A_b.gif","images/stimuli/spore_stims/complex_08_A_a.gif","forced_long","","1","complex_dissimilar","images/stimuli/spore_stims/complex_08_A_a.gif","","","","",""
"","null","html-keyboard-response","22","254566","0.0-11.0-0.1","SS1619739934260","","","null","","","","","","<p><img src= images/blank.png width =""600"" height = ""600"" style=""position:fixed;top:50%; left:50%; transform: translate(-50%, -50%); border:5px solid black"">","","","","","","","",""
"","14347","sequential-stimulus-presentation-old","23","269416","0.0-11.0-1.1","SS1619739934260","trial","","40","500","14847","images/stimuli/spore_stims/complex_06_A_b.gif","images/stimuli/spore_stims/complex_08_A_a.gif","forced_long","","1","complex_dissimilar","images/stimuli/spore_stims/complex_08_A_a.gif","","","","",""
"","null","html-keyboard-response","24","270419","0.0-11.0-0.2","SS1619739934260","","","null","","","","","","<p><img src= images/blank.png width =""600"" height = ""600"" style=""position:fixed;top:50%; left:50%; transform: translate(-50%, -50%); border:5px solid black"">","","","","","","","",""
"","41016","sequential-stimulus-presentation-old","25","311938","0.0-11.0-1.2","SS1619739934260","trial","","40","500","41516","images/stimuli/spore_stims/complex_06_A_b.gif","images/stimuli/spore_stims/complex_08_A_a.gif","forced_long","","1","complex_dissimilar","images/stimuli/spore_stims/complex_08_A_a.gif","","","","",""
"","null","html-keyboard-response","26","313163","0.0-11.0-0.3","SS1619739934260","","","null","","","","","","<p><img src= images/blank.png width =""600"" height = ""600"" style=""position:fixed;top:50%; left:50%; transform: translate(-50%, -50%); border:5px solid black"">","","","","","","","",""
"","8389","sequential-stimulus-presentation-old","27","322056","0.0-11.0-1.3","SS1619739934260","trial","","40","500","8889","images/stimuli/spore_stims/complex_06_A_b.gif","images/stimuli/spore_stims/complex_08_A_a.gif","forced_long","","1","complex_dissimilar","images/stimuli/spore_stims/complex_08_A_a.gif","","","","",""
"","null","html-keyboard-response","28","323139","0.0-11.0-0.4","SS1619739934260","","","null","","","","","","<p><img src= images/blank.png width =""600"" height = ""600"" style=""position:fixed;top:50%; left:50%; transform: translate(-50%, -50%); border:5px solid black"">","","","","","","","",""
"","9604","sequential-stimulus-presentation-old","29","333245","0.0-11.0-1.4","SS1619739934260","trial","","40","500","10104","images/stimuli/spore_stims/complex_06_A_b.gif","images/stimuli/spore_stims/complex_08_A_a.gif","forced_long","","1","complex_dissimilar","images/stimuli/spore_stims/complex_08_A_a.gif","","","","",""
"","2451","survey-multi-choice","30","335697","0.0-12.0","SS1619739934260","math_question","","","","","","","","","","","","{""Q0"":""8""}","[0]","8","",""
"","null","html-keyboard-response","31","336603","0.0-13.0-0.0","SS1619739934260","","","null","","","","","","<p><img src= images/blank.png width =""600"" height = ""600"" style=""position:fixed;top:50%; left:50%; transform: translate(-50%, -50%); border:5px solid black"">","","","","","","","",""
"","1326","sequential-stimulus-presentation-old","32","338431","0.0-13.0-1.0","SS1619739934260","trial","","40","500","1826","images/stimuli/spore_stims/simple_17_A_a.gif","images/stimuli/spore_stims/simple_11_A_b.gif","forced_short","","2","simple_dissimilar","images/stimuli/spore_stims/simple_11_A_b.gif","","","","",""
"","null","html-keyboard-response","33","339717","0.0-13.0-0.1","SS1619739934260","","","null","","","","","","<p><img src= images/blank.png width =""600"" height = ""600"" style=""position:fixed;top:50%; left:50%; transform: translate(-50%, -50%); border:5px solid black"">","","","","","","","",""
"","11619","sequential-stimulus-presentation-old","34","351837","0.0-13.0-1.1","SS1619739934260","trial","","40","500","12119","images/stimuli/spore_stims/simple_17_A_a.gif","images/stimuli/spore_stims/simple_11_A_b.gif","forced_short","","2","simple_dissimilar","images/stimuli/spore_stims/simple_11_A_b.gif","","","","",""
"","null","html-keyboard-response","35","352728","0.0-13.0-0.2","SS1619739934260","","","null","","","","","","<p><img src= images/blank.png width =""600"" height = ""600"" style=""position:fixed;top:50%; left:50%; transform: translate(-50%, -50%); border:5px solid black"">","","","","","","","",""
"","13437","sequential-stimulus-presentation-old","36","366667","0.0-13.0-1.2","SS1619739934260","trial","","40","500","13937","images/stimuli/spore_stims/simple_17_A_a.gif","images/stimuli/spore_stims/simple_11_A_b.gif","forced_short","","2","simple_dissimilar","images/stimuli/spore_stims/simple_11_A_b.gif","","","","",""
"","null","html-keyboard-response","37","367806","0.0-13.0-0.3","SS1619739934260","","","null","","","","","","<p><img src= images/blank.png width =""600"" height = ""600"" style=""position:fixed;top:50%; left:50%; transform: translate(-50%, -50%); border:5px solid black"">","","","","","","","",""
"","8789","sequential-stimulus-presentation-old","38","377098","0.0-13.0-1.3","SS1619739934260","trial","","40","500","9289","images/stimuli/spore_stims/simple_17_A_a.gif","images/stimuli/spore_stims/simple_11_A_b.gif","forced_short","","2","simple_dissimilar","images/stimuli/spore_stims/simple_11_A_b.gif","","","","",""
"","null","html-keyboard-response","39","378146","0.0-13.0-0.4","SS1619739934260","","","null","","","","","","<p><img src= images/blank.png width =""600"" height = ""600"" style=""position:fixed;top:50%; left:50%; transform: translate(-50%, -50%); border:5px solid black"">","","","","","","","",""
"","41","sequential-stimulus-presentation-old","40","378688","0.0-13.0-1.4","SS1619739934260","trial","","40","500","541","images/stimuli/spore_stims/simple_17_A_a.gif","images/stimuli/spore_stims/simple_11_A_b.gif","forced_short","","2","simple_dissimilar","images/stimuli/spore_stims/simple_11_A_b.gif","","","","",""
"","2787","survey-multi-choice","41","381478","0.0-14.0","SS1619739934260","math_question","","","","","","","","","","","","{""Q0"":""2""}","[0]","2","",""
"","null","html-keyboard-response","42","382325","0.0-15.0-0.0","SS1619739934260","","","null","","","","","","<p><img src= images/blank.png width =""600"" height = ""600"" style=""position:fixed;top:50%; left:50%; transform: translate(-50%, -50%); border:5px solid black"">","","","","","","","",""
"","26991","sequential-stimulus-presentation-old","43","409819","0.0-15.0-1.0","SS1619739934260","trial","","40","500","27491","images/stimuli/spore_stims/complex_11_A_a.gif","images/stimuli/spore_stims/complex_20_A_b.gif","self_paced","","3","complex_dissimilar","images/stimuli/spore_stims/complex_20_A_b.gif","","","","",""
"","null","html-keyboard-response","44","410848","0.0-15.0-0.1","SS1619739934260","","","null","","","","","","<p><img src= images/blank.png width =""600"" height = ""600"" style=""position:fixed;top:50%; left:50%; transform: translate(-50%, -50%); border:5px solid black"">","","","","","","","",""
"","30885","sequential-stimulus-presentation-old","45","442235","0.0-15.0-1.1","SS1619739934260","trial","","40","500","31385","images/stimuli/spore_stims/complex_11_A_a.gif","images/stimuli/spore_stims/complex_20_A_b.gif","self_paced","","3","complex_dissimilar","images/stimuli/spore_stims/complex_20_A_b.gif","","","","",""
"","null","html-keyboard-response","46","443223","0.0-15.0-0.2","SS1619739934260","","","null","","","","","","<p><img src= images/blank.png width =""600"" height = ""600"" style=""position:fixed;top:50%; left:50%; transform: translate(-50%, -50%); border:5px solid black"">","","","","","","","",""
"","9645","sequential-stimulus-presentation-old","47","453373","0.0-15.0-1.2","SS1619739934260","trial","","40","500","10145","images/stimuli/spore_stims/complex_11_A_a.gif","images/stimuli/spore_stims/complex_20_A_b.gif","self_paced","","3","complex_dissimilar","images/stimuli/spore_stims/complex_20_A_b.gif","","","","",""
"","null","html-keyboard-response","48","454251","0.0-15.0-0.3","SS1619739934260","","","null","","","","","","<p><img src= images/blank.png width =""600"" height = ""600"" style=""position:fixed;top:50%; left:50%; transform: translate(-50%, -50%); border:5px solid black"">","","","","","","","",""
"","10102","sequential-stimulus-presentation-old","49","464857","0.0-15.0-1.3","SS1619739934260","trial","","40","500","10602","images/stimuli/spore_stims/complex_11_A_a.gif","images/stimuli/spore_stims/complex_20_A_b.gif","self_paced","","3","complex_dissimilar","images/stimuli/spore_stims/complex_20_A_b.gif","","","","",""
"","null","html-keyboard-response","50","466045","0.0-15.0-0.4","SS1619739934260","","","null","","","","","","<p><img src= images/blank.png width =""600"" height = ""600"" style=""position:fixed;top:50%; left:50%; transform: translate(-50%, -50%); border:5px solid black"">","","","","","","","",""
"","13797","sequential-stimulus-presentation-old","51","480347","0.0-15.0-1.4","SS1619739934260","trial","","40","500","14297","images/stimuli/spore_stims/complex_11_A_a.gif","images/stimuli/spore_stims/complex_20_A_b.gif","self_paced","","3","complex_dissimilar","images/stimuli/spore_stims/complex_20_A_b.gif","","","","",""
"","null","html-keyboard-response","52","481156","0.0-15.0-0.5","SS1619739934260","","","null","","","","","","<p><img src= images/blank.png width =""600"" height = ""600"" style=""position:fixed;top:50%; left:50%; transform: translate(-50%, -50%); border:5px solid black"">","","","","","","","",""
"","11405","sequential-stimulus-presentation-old","53","493063","0.0-15.0-1.5","SS1619739934260","trial","","40","500","11905","images/stimuli/spore_stims/complex_11_A_a.gif","images/stimuli/spore_stims/complex_20_A_b.gif","self_paced","","3","complex_dissimilar","images/stimuli/spore_stims/complex_20_A_b.gif","","","","",""
"","1503","survey-multi-choice","54","494569","0.0-16.0","SS1619739934260","math_question","","","","","","","","","","","","{""Q0"":""6""}","[0]","6","",""
"","null","html-keyboard-response","55","495437","0.0-17.0-0.0","SS1619739934260","","","null","","","","","","<p><img src= images/blank.png width =""600"" height = ""600"" style=""position:fixed;top:50%; left:50%; transform: translate(-50%, -50%); border:5px solid black"">","","","","","","","",""
"","1438","sequential-stimulus-presentation-old","56","497377","0.0-17.0-1.0","SS1619739934260","trial","","40","500","1938","images/stimuli/spore_stims/complex_19_A_b.gif","images/stimuli/spore_stims/complex_04_A_a.gif","forced_short","","4","complex_dissimilar","images/stimuli/spore_stims/complex_04_A_a.gif","","","","",""
"","null","html-keyboard-response","57","498605","0.0-17.0-0.1","SS1619739934260","","","null","","","","","","<p><img src= images/blank.png width =""600"" height = ""600"" style=""position:fixed;top:50%; left:50%; transform: translate(-50%, -50%); border:5px solid black"">","","","","","","","",""
"","35722","sequential-stimulus-presentation-old","58","534830","0.0-17.0-1.1","SS1619739934260","trial","","40","500","36222","images/stimuli/spore_stims/complex_19_A_b.gif","images/stimuli/spore_stims/complex_04_A_a.gif","forced_short","","4","complex_dissimilar","images/stimuli/spore_stims/complex_04_A_a.gif","","","","",""
"","null","html-keyboard-response","59","535665","0.0-17.0-0.2","SS1619739934260","","","null","","","","","","<p><img src= images/blank.png width =""600"" height = ""600"" style=""position:fixed;top:50%; left:50%; transform: translate(-50%, -50%); border:5px solid black"">","","","","","","","",""
"","36109","sequential-stimulus-presentation-old","60","572276","0.0-17.0-1.2","SS1619739934260","trial","","40","500","36609","images/stimuli/spore_stims/complex_19_A_b.gif","images/stimuli/spore_stims/complex_04_A_a.gif","forced_short","","4","complex_dissimilar","images/stimuli/spore_stims/complex_19_A_b.gif","","","","",""
"","null","html-keyboard-response","61","573346","0.0-17.0-0.3","SS1619739934260","","","null","","","","","","<p><img src= images/blank.png width =""600"" height = ""600"" style=""position:fixed;top:50%; left:50%; transform: translate(-50%, -50%); border:5px solid black"">","","","","","","","",""
"","33104","sequential-stimulus-presentation-old","62","606953","0.0-17.0-1.3","SS1619739934260","trial","","40","500","33604","images/stimuli/spore_stims/complex_19_A_b.gif","images/stimuli/spore_stims/complex_04_A_a.gif","forced_short","","4","complex_dissimilar","images/stimuli/spore_stims/complex_04_A_a.gif","","","","",""
"","null","html-keyboard-response","63","607861","0.0-17.0-0.4","SS1619739934260","","","null","","","","","","<p><img src= images/blank.png width =""600"" height = ""600"" style=""position:fixed;top:50%; left:50%; transform: translate(-50%, -50%); border:5px solid black"">","","","","","","","",""
"","31432","sequential-stimulus-presentation-old","64","639796","0.0-17.0-1.4","SS1619739934260","trial","","40","500","31932","images/stimuli/spore_stims/complex_19_A_b.gif","images/stimuli/spore_stims/complex_04_A_a.gif","forced_short","","4","complex_dissimilar","images/stimuli/spore_stims/complex_19_A_b.gif","","","","",""
"","null","html-keyboard-response","65","640754","0.0-17.0-0.5","SS1619739934260","","","null","","","","","","<p><img src= images/blank.png width =""600"" height = ""600"" style=""position:fixed;top:50%; left:50%; transform: translate(-50%, -50%); border:5px solid black"">","","","","","","","",""
"","17087","sequential-stimulus-presentation-old","66","658344","0.0-17.0-1.5","SS1619739934260","trial","","40","500","17587","images/stimuli/spore_stims/complex_19_A_b.gif","images/stimuli/spore_stims/complex_04_A_a.gif","forced_short","","4","complex_dissimilar","images/stimuli/spore_stims/complex_04_A_a.gif","","","","",""
"","2392","survey-multi-choice","67","660739","0.0-18.0","SS1619739934260","math_question","","","","","","","","","","","","{""Q0"":""12""}","[0]","12","",""
"","null","html-keyboard-response","68","662027","0.0-19.0-0.0","SS1619739934260","","","null","","","","","","<p><img src= images/blank.png width =""600"" height = ""600"" style=""position:fixed;top:50%; left:50%; transform: translate(-50%, -50%); border:5px solid black"">","","","","","","","",""
"","11234","sequential-stimulus-presentation-old","69","673761","0.0-19.0-1.0","SS1619739934260","trial","","40","500","11734","images/stimuli/spore_stims/simple_09_A_a.gif","images/stimuli/spore_stims/simple_08_A_b.gif","self_paced","","5","simple_dissimilar","images/stimuli/spore_stims/simple_08_A_b.gif","","","","",""
"","null","html-keyboard-response","70","675003","0.0-19.0-0.1","SS1619739934260","","","null","","","","","","<p><img src= images/blank.png width =""600"" height = ""600"" style=""position:fixed;top:50%; left:50%; transform: translate(-50%, -50%); border:5px solid black"">","","","","","","","",""
"","4015","sequential-stimulus-presentation-old","71","679520","0.0-19.0-1.1","SS1619739934260","trial","","40","500","4515","images/stimuli/spore_stims/simple_09_A_a.gif","images/stimuli/spore_stims/simple_08_A_b.gif","self_paced","","5","simple_dissimilar","images/stimuli/spore_stims/simple_09_A_a.gif","","","","",""
"","null","html-keyboard-response","72","680458","0.0-19.0-0.2","SS1619739934260","","","null","","","","","","<p><img src= images/blank.png width =""600"" height = ""600"" style=""position:fixed;top:50%; left:50%; transform: translate(-50%, -50%); border:5px solid black"">","","","","","","","",""
"","2092","sequential-stimulus-presentation-old","73","683054","0.0-19.0-1.2","SS1619739934260","trial","","40","500","2592","images/stimuli/spore_stims/simple_09_A_a.gif","images/stimuli/spore_stims/simple_08_A_b.gif","self_paced","","5","simple_dissimilar","images/stimuli/spore_stims/simple_08_A_b.gif","","","","",""
"","null","html-keyboard-response","74","684206","0.0-19.0-0.3","SS1619739934260","","","null","","","","","","<p><img src= images/blank.png width =""600"" height = ""600"" style=""position:fixed;top:50%; left:50%; transform: translate(-50%, -50%); border:5px solid black"">","","","","","","","",""
"","3811","sequential-stimulus-presentation-old","75","688522","0.0-19.0-1.3","SS1619739934260","trial","","40","500","4311","images/stimuli/spore_stims/simple_09_A_a.gif","images/stimuli/spore_stims/simple_08_A_b.gif","self_paced","","5","simple_dissimilar","images/stimuli/spore_stims/simple_09_A_a.gif","","","","",""
"","null","html-keyboard-response","76","689729","0.0-19.0-0.4","SS1619739934260","","","null","","","","","","<p><img src= images/blank.png width =""600"" height = ""600"" style=""position:fixed;top:50%; left:50%; transform: translate(-50%, -50%); border:5px solid black"">","","","","","","","",""
"","4366","sequential-stimulus-presentation-old","77","694597","0.0-19.0-1.4","SS1619739934260","trial","","40","500","4866","images/stimuli/spore_stims/simple_09_A_a.gif","images/stimuli/spore_stims/simple_08_A_b.gif","self_paced","","5","simple_dissimilar","images/stimuli/spore_stims/simple_08_A_b.gif","","","","",""
"","3426","survey-multi-choice","78","698027","0.0-20.0","SS1619739934260","math_question","","","","","","","","","","","","{""Q0"":""11""}","[0]","11","",""
"","null","html-keyboard-response","79","698868","0.0-21.0-0.0","SS1619739934260","","","null","","","","","","<p><img src= images/blank.png width =""600"" height = ""600"" style=""position:fixed;top:50%; left:50%; transform: translate(-50%, -50%); border:5px solid black"">","","","","","","","",""
"","1043","sequential-stimulus-presentation-old","80","700414","0.0-21.0-1.0","SS1619739934260","trial","","40","500","1543","images/stimuli/spore_stims/simple_19_A_a.gif","images/stimuli/spore_stims/simple_03_A_b.gif","forced_short","","6","simple_dissimilar","images/stimuli/spore_stims/simple_03_A_b.gif","","","","",""
"","null","html-keyboard-response","81","701608","0.0-21.0-0.1","SS1619739934260","","","null","","","","","","<p><img src= images/blank.png width =""600"" height = ""600"" style=""position:fixed;top:50%; left:50%; transform: translate(-50%, -50%); border:5px solid black"">","","","","","","","",""
"","19104","sequential-stimulus-presentation-old","82","721213","0.0-21.0-1.1","SS1619739934260","trial","","40","500","19604","images/stimuli/spore_stims/simple_19_A_a.gif","images/stimuli/spore_stims/simple_03_A_b.gif","forced_short","","6","simple_dissimilar","images/stimuli/spore_stims/simple_03_A_b.gif","","","","",""
"","null","html-keyboard-response","83","722378","0.0-21.0-0.2","SS1619739934260","","","null","","","","","","<p><img src= images/blank.png width =""600"" height = ""600"" style=""position:fixed;top:50%; left:50%; transform: translate(-50%, -50%); border:5px solid black"">","","","","","","","",""
"","18618","sequential-stimulus-presentation-old","84","741501","0.0-21.0-1.2","SS1619739934260","trial","","40","500","19118","images/stimuli/spore_stims/simple_19_A_a.gif","images/stimuli/spore_stims/simple_03_A_b.gif","forced_short","","6","simple_dissimilar","images/stimuli/spore_stims/simple_03_A_b.gif","","","","",""
"","null","html-keyboard-response","85","742414","0.0-21.0-0.3","SS1619739934260","","","null","","","","","","<p><img src= images/blank.png width =""600"" height = ""600"" style=""position:fixed;top:50%; left:50%; transform: translate(-50%, -50%); border:5px solid black"">","","","","","","","",""
"","8411","sequential-stimulus-presentation-old","86","751330","0.0-21.0-1.3","SS1619739934260","trial","","40","500","8911","images/stimuli/spore_stims/simple_19_A_a.gif","images/stimuli/spore_stims/simple_03_A_b.gif","forced_short","","6","simple_dissimilar","images/stimuli/spore_stims/simple_03_A_b.gif","","","","",""
"","null","html-keyboard-response","87","752548","0.0-21.0-0.4","SS1619739934260","","","null","","","","","","<p><img src= images/blank.png width =""600"" height = ""600"" style=""position:fixed;top:50%; left:50%; transform: translate(-50%, -50%); border:5px solid black"">","","","","","","","",""
"","1208","sequential-stimulus-presentation-old","88","754258","0.0-21.0-1.4","SS1619739934260","trial","","40","500","1708","images/stimuli/spore_stims/simple_19_A_a.gif","images/stimuli/spore_stims/simple_03_A_b.gif","forced_short","","6","simple_dissimilar","images/stimuli/spore_stims/simple_03_A_b.gif","","","","",""
"","1723","survey-multi-choice","89","755990","0.0-22.0","SS1619739934260","math_question","","","","","","","","","","","","{""Q0"":""8""}","[0]","8","",""
"","null","html-keyboard-response","90","757049","0.0-23.0-0.0","SS1619739934260","","","null","","","","","","<p><img src= images/blank.png width =""600"" height = ""600"" style=""position:fixed;top:50%; left:50%; transform: translate(-50%, -50%); border:5px solid black"">","","","","","","","",""
"","160","sequential-stimulus-presentation-old","91","772217","0.0-23.0-1.0","SS1619739934260","trial","","40","500","660","images/stimuli/spore_stims/complex_15_A_b.gif","images/stimuli/spore_stims/complex_14_A_a.gif","forced_long","","7","complex_dissimilar","images/stimuli/spore_stims/complex_14_A_a.gif","","","","",""
"","null","html-keyboard-response","92","773437","0.0-23.0-0.1","SS1619739934260","","","null","","","","","","<p><img src= images/blank.png width =""600"" height = ""600"" style=""position:fixed;top:50%; left:50%; transform: translate(-50%, -50%); border:5px solid black"">","","","","","","","",""
"","406","sequential-stimulus-presentation-old","93","774346","0.0-23.0-1.1","SS1619739934260","trial","","40","500","906","images/stimuli/spore_stims/complex_15_A_b.gif","images/stimuli/spore_stims/complex_14_A_a.gif","forced_long","","7","complex_dissimilar","images/stimuli/spore_stims/complex_14_A_a.gif","","","","",""
"","null","html-keyboard-response","94","775627","0.0-23.0-0.2","SS1619739934260","","","null","","","","","","<p><img src= images/blank.png width =""600"" height = ""600"" style=""position:fixed;top:50%; left:50%; transform: translate(-50%, -50%); border:5px solid black"">","","","","","","","",""
"","8931","sequential-stimulus-presentation-old","95","785061","0.0-23.0-1.2","SS1619739934260","trial","","40","500","9431","images/stimuli/spore_stims/complex_15_A_b.gif","images/stimuli/spore_stims/complex_14_A_a.gif","forced_long","","7","complex_dissimilar","images/stimuli/spore_stims/complex_14_A_a.gif","","","","",""
"","null","html-keyboard-response","96","785910","0.0-23.0-0.3","SS1619739934260","","","null","","","","","","<p><img src= images/blank.png width =""600"" height = ""600"" style=""position:fixed;top:50%; left:50%; transform: translate(-50%, -50%); border:5px solid black"">","","","","","","","",""
"","5268","sequential-stimulus-presentation-old","97","791681","0.0-23.0-1.3","SS1619739934260","trial","","40","500","5768","images/stimuli/spore_stims/complex_15_A_b.gif","images/stimuli/spore_stims/complex_14_A_a.gif","forced_long","","7","complex_dissimilar","images/stimuli/spore_stims/complex_14_A_a.gif","","","","",""
"","null","html-keyboard-response","98","792890","0.0-23.0-0.4","SS1619739934260","","","null","","","","","","<p><img src= images/blank.png width =""600"" height = ""600"" style=""position:fixed;top:50%; left:50%; transform: translate(-50%, -50%); border:5px solid black"">","","","","","","","",""
"","21561","sequential-stimulus-presentation-old","99","814955","0.0-23.0-1.4","SS1619739934260","trial","","40","500","22061","images/stimuli/spore_stims/complex_15_A_b.gif","images/stimuli/spore_stims/complex_14_A_a.gif","forced_long","","7","complex_dissimilar","images/stimuli/spore_stims/complex_15_A_b.gif","","","","",""
"","1527","survey-multi-choice","100","816484","0.0-24.0","SS1619739934260","math_question","","","","","","","","","","","","{""Q0"":""8""}","[0]","8","",""
"","null","html-keyboard-response","101","817528","0.0-25.0-0.0","SS1619739934260","","","null","","","","","","<p><img src= images/blank.png width =""600"" height = ""600"" style=""position:fixed;top:50%; left:50%; transform: translate(-50%, -50%); border:5px solid black"">","","","","","","","",""
"","913","sequential-stimulus-presentation-old","102","818944","0.0-25.0-1.0","SS1619739934260","trial","","40","500","1413","images/stimuli/spore_stims/complex_19_A_a.gif","images/stimuli/spore_stims/complex_12_A_b.gif","forced_short","","8","complex_dissimilar","images/stimuli/spore_stims/complex_12_A_b.gif","","","","",""
"","null","html-keyboard-response","103","820227","0.0-25.0-0.1","SS1619739934260","","","null","","","","","","<p><img src= images/blank.png width =""600"" height = ""600"" style=""position:fixed;top:50%; left:50%; transform: translate(-50%, -50%); border:5px solid black"">","","","","","","","",""
"","7458","sequential-stimulus-presentation-old","104","828188","0.0-25.0-1.1","SS1619739934260","trial","","40","500","7958","images/stimuli/spore_stims/complex_19_A_a.gif","images/stimuli/spore_stims/complex_12_A_b.gif","forced_short","","8","complex_dissimilar","images/stimuli/spore_stims/complex_12_A_b.gif","","","","",""
"","null","html-keyboard-response","105","829473","0.0-25.0-0.2","SS1619739934260","","","null","","","","","","<p><img src= images/blank.png width =""600"" height = ""600"" style=""position:fixed;top:50%; left:50%; transform: translate(-50%, -50%); border:5px solid black"">","","","","","","","",""
"","4046","sequential-stimulus-presentation-old","106","834023","0.0-25.0-1.2","SS1619739934260","trial","","40","500","4546","images/stimuli/spore_stims/complex_19_A_a.gif","images/stimuli/spore_stims/complex_12_A_b.gif","forced_short","","8","complex_dissimilar","images/stimuli/spore_stims/complex_19_A_a.gif","","","","",""
"","null","html-keyboard-response","107","834864","0.0-25.0-0.3","SS1619739934260","","","null","","","","","","<p><img src= images/blank.png width =""600"" height = ""600"" style=""position:fixed;top:50%; left:50%; transform: translate(-50%, -50%); border:5px solid black"">","","","","","","","",""
"","5460","sequential-stimulus-presentation-old","108","840828","0.0-25.0-1.3","SS1619739934260","trial","","40","500","5960","images/stimuli/spore_stims/complex_19_A_a.gif","images/stimuli/spore_stims/complex_12_A_b.gif","forced_short","","8","complex_dissimilar","images/stimuli/spore_stims/complex_12_A_b.gif","","","","",""
"","null","html-keyboard-response","109","841762","0.0-25.0-0.4","SS1619739934260","","","null","","","","","","<p><img src= images/blank.png width =""600"" height = ""600"" style=""position:fixed;top:50%; left:50%; transform: translate(-50%, -50%); border:5px solid black"">","","","","","","","",""
"","1849","sequential-stimulus-presentation-old","110","844114","0.0-25.0-1.4","SS1619739934260","trial","","40","500","2349","images/stimuli/spore_stims/complex_19_A_a.gif","images/stimuli/spore_stims/complex_12_A_b.gif","forced_short","","8","complex_dissimilar","images/stimuli/spore_stims/complex_12_A_b.gif","","","","",""
"","null","html-keyboard-response","111","845116","0.0-25.0-0.5","SS1619739934260","","","null","","","","","","<p><img src= images/blank.png width =""600"" height = ""600"" style=""position:fixed;top:50%; left:50%; transform: translate(-50%, -50%); border:5px solid black"">","","","","","","","",""
"","1176","sequential-stimulus-presentation-old","112","846794","0.0-25.0-1.5","SS1619739934260","trial","","40","500","1676","images/stimuli/spore_stims/complex_19_A_a.gif","images/stimuli/spore_stims/complex_12_A_b.gif","forced_short","","8","complex_dissimilar","images/stimuli/spore_stims/complex_12_A_b.gif","","","","",""
"","2920","survey-multi-choice","113","849717","0.0-26.0","SS1619739934260","math_question","","","","","","","","","","","","{""Q0"":""7""}","[0]","7","",""
"","null","html-keyboard-response","114","850862","0.0-27.0-0.0","SS1619739934260","","","null","","","","","","<p><img src= images/blank.png width =""600"" height = ""600"" style=""position:fixed;top:50%; left:50%; transform: translate(-50%, -50%); border:5px solid black"">","","","","","","","",""
"","3969","sequential-stimulus-presentation-old","115","855335","0.0-27.0-1.0","SS1619739934260","trial","","40","500","4469","images/stimuli/spore_stims/complex_13_A_a.gif","images/stimuli/spore_stims/complex_17_A_b.gif","self_paced","","9","complex_dissimilar","images/stimuli/spore_stims/complex_17_A_b.gif","","","","",""
"","null","html-keyboard-response","116","856237","0.0-27.0-0.1","SS1619739934260","","","null","","","","","","<p><img src= images/blank.png width =""600"" height = ""600"" style=""position:fixed;top:50%; left:50%; transform: translate(-50%, -50%); border:5px solid black"">","","","","","","","",""
"","1093","sequential-stimulus-presentation-old","117","857834","0.0-27.0-1.1","SS1619739934260","trial","","40","500","1593","images/stimuli/spore_stims/complex_13_A_a.gif","images/stimuli/spore_stims/complex_17_A_b.gif","self_paced","","9","complex_dissimilar","images/stimuli/spore_stims/complex_17_A_b.gif","","","","",""
"","null","html-keyboard-response","118","859022","0.0-27.0-0.2","SS1619739934260","","","null","","","","","","<p><img src= images/blank.png width =""600"" height = ""600"" style=""position:fixed;top:50%; left:50%; transform: translate(-50%, -50%); border:5px solid black"">","","","","","","","",""
"","3529","sequential-stimulus-presentation-old","119","863053","0.0-27.0-1.2","SS1619739934260","trial","","40","500","4029","images/stimuli/spore_stims/complex_13_A_a.gif","images/stimuli/spore_stims/complex_17_A_b.gif","self_paced","","9","complex_dissimilar","images/stimuli/spore_stims/complex_17_A_b.gif","","","","",""
"","null","html-keyboard-response","120","864095","0.0-27.0-0.3","SS1619739934260","","","null","","","","","","<p><img src= images/blank.png width =""600"" height = ""600"" style=""position:fixed;top:50%; left:50%; transform: translate(-50%, -50%); border:5px solid black"">","","","","","","","",""
"","1260","sequential-stimulus-presentation-old","121","865858","0.0-27.0-1.3","SS1619739934260","trial","","40","500","1760","images/stimuli/spore_stims/complex_13_A_a.gif","images/stimuli/spore_stims/complex_17_A_b.gif","self_paced","","9","complex_dissimilar","images/stimuli/spore_stims/complex_13_A_a.gif","","","","",""
"","null","html-keyboard-response","122","867147","0.0-27.0-0.4","SS1619739934260","","","null","","","","","","<p><img src= images/blank.png width =""600"" height = ""600"" style=""position:fixed;top:50%; left:50%; transform: translate(-50%, -50%); border:5px solid black"">","","","","","","","",""
"","1973","sequential-stimulus-presentation-old","123","869623","0.0-27.0-1.4","SS1619739934260","trial","","40","500","2473","images/stimuli/spore_stims/complex_13_A_a.gif","images/stimuli/spore_stims/complex_17_A_b.gif","self_paced","","9","complex_dissimilar","images/stimuli/spore_stims/complex_17_A_b.gif","","","","",""
"","null","html-keyboard-response","124","870591","0.0-27.0-0.5","SS1619739934260","","","null","","","","","","<p><img src= images/blank.png width =""600"" height = ""600"" style=""position:fixed;top:50%; left:50%; transform: translate(-50%, -50%); border:5px solid black"">","","","","","","","",""
"","2931","sequential-stimulus-presentation-old","125","874024","0.0-27.0-1.5","SS1619739934260","trial","","40","500","3431","images/stimuli/spore_stims/complex_13_A_a.gif","images/stimuli/spore_stims/complex_17_A_b.gif","self_paced","","9","complex_dissimilar","images/stimuli/spore_stims/complex_13_A_a.gif","","","","",""
"","2520","survey-multi-choice","126","876545","0.0-28.0","SS1619739934260","math_question","","","","","","","","","","","","{""Q0"":""9""}","[0]","9","",""
"","null","html-keyboard-response","127","877528","0.0-29.0-0.0","SS1619739934260","","","null","","","","","","<p><img src= images/blank.png width =""600"" height = ""600"" style=""position:fixed;top:50%; left:50%; transform: translate(-50%, -50%); border:5px solid black"">","","","","","","","",""
"","8567","sequential-stimulus-presentation-old","128","901098","0.0-29.0-1.0","SS1619739934260","trial","","40","500","9067","images/stimuli/spore_stims/simple_04_A_a.gif","images/stimuli/spore_stims/simple_02_A_b.gif","forced_long","","10","simple_dissimilar","images/stimuli/spore_stims/simple_02_A_b.gif","","","","",""
"","null","html-keyboard-response","129","902084","0.0-29.0-0.1","SS1619739934260","","","null","","","","","","<p><img src= images/blank.png width =""600"" height = ""600"" style=""position:fixed;top:50%; left:50%; transform: translate(-50%, -50%); border:5px solid black"">","","","","","","","",""
"","4515","sequential-stimulus-presentation-old","130","907104","0.0-29.0-1.1","SS1619739934260","trial","","40","500","5015","images/stimuli/spore_stims/simple_04_A_a.gif","images/stimuli/spore_stims/simple_02_A_b.gif","forced_long","","10","simple_dissimilar","images/stimuli/spore_stims/simple_04_A_a.gif","","","","",""
"","null","html-keyboard-response","131","908116","0.0-29.0-0.2","SS1619739934260","","","null","","","","","","<p><img src= images/blank.png width =""600"" height = ""600"" style=""position:fixed;top:50%; left:50%; transform: translate(-50%, -50%); border:5px solid black"">","","","","","","","",""
"","1888","sequential-stimulus-presentation-old","132","910507","0.0-29.0-1.2","SS1619739934260","trial","","40","500","2388","images/stimuli/spore_stims/simple_04_A_a.gif","images/stimuli/spore_stims/simple_02_A_b.gif","forced_long","","10","simple_dissimilar","images/stimuli/spore_stims/simple_04_A_a.gif","","","","",""
"","null","html-keyboard-response","133","911394","0.0-29.0-0.3","SS1619739934260","","","null","","","","","","<p><img src= images/blank.png width =""600"" height = ""600"" style=""position:fixed;top:50%; left:50%; transform: translate(-50%, -50%); border:5px solid black"">","","","","","","","",""
"","1082","sequential-stimulus-presentation-old","134","912978","0.0-29.0-1.3","SS1619739934260","trial","","40","500","1582","images/stimuli/spore_stims/simple_04_A_a.gif","images/stimuli/spore_stims/simple_02_A_b.gif","forced_long","","10","simple_dissimilar","images/stimuli/spore_stims/simple_02_A_b.gif","","","","",""
"","null","html-keyboard-response","135","913905","0.0-29.0-0.4","SS1619739934260","","","null","","","","","","<p><img src= images/blank.png width =""600"" height = ""600"" style=""position:fixed;top:50%; left:50%; transform: translate(-50%, -50%); border:5px solid black"">","","","","","","","",""
"","182","sequential-stimulus-presentation-old","136","914590","0.0-29.0-1.4","SS1619739934260","trial","","40","500","682","images/stimuli/spore_stims/simple_04_A_a.gif","images/stimuli/spore_stims/simple_02_A_b.gif","forced_long","","10","simple_dissimilar","images/stimuli/spore_stims/simple_02_A_b.gif","","","","",""
"","null","html-keyboard-response","137","915438","0.0-29.0-0.5","SS1619739934260","","","null","","","","","","<p><img src= images/blank.png width =""600"" height = ""600"" style=""position:fixed;top:50%; left:50%; transform: translate(-50%, -50%); border:5px solid black"">","","","","","","","",""
"","4502","sequential-stimulus-presentation-old","138","920443","0.0-29.0-1.5","SS1619739934260","trial","","40","500","5002","images/stimuli/spore_stims/simple_04_A_a.gif","images/stimuli/spore_stims/simple_02_A_b.gif","forced_long","","10","simple_dissimilar","images/stimuli/spore_stims/simple_02_A_b.gif","","","","",""
"","2809","survey-multi-choice","139","923254","0.0-30.0","SS1619739934260","math_question","","","","","","","","","","","","{""Q0"":""6""}","[0]","6","",""
"","null","html-keyboard-response","140","924135","0.0-31.0-0.0","SS1619739934260","","","null","","","","","","<p><img src= images/blank.png width =""600"" height = ""600"" style=""position:fixed;top:50%; left:50%; transform: translate(-50%, -50%); border:5px solid black"">","","","","","","","",""
"","9137","sequential-stimulus-presentation-old","141","933776","0.0-31.0-1.0","SS1619739934260","trial","","40","500","9637","images/stimuli/spore_stims/simple_04_A_b.gif","images/stimuli/spore_stims/simple_20_A_a.gif","self_paced","","11","simple_dissimilar","images/stimuli/spore_stims/simple_20_A_a.gif","","","","",""
"","null","html-keyboard-response","142","934827","0.0-31.0-0.1","SS1619739934260","","","null","","","","","","<p><img src= images/blank.png width =""600"" height = ""600"" style=""position:fixed;top:50%; left:50%; transform: translate(-50%, -50%); border:5px solid black"">","","","","","","","",""
"","1743","sequential-stimulus-presentation-old","143","937075","0.0-31.0-1.1","SS1619739934260","trial","","40","500","2243","images/stimuli/spore_stims/simple_04_A_b.gif","images/stimuli/spore_stims/simple_20_A_a.gif","self_paced","","11","simple_dissimilar","images/stimuli/spore_stims/simple_04_A_b.gif","","","","",""
"","null","html-keyboard-response","144","938048","0.0-31.0-0.2","SS1619739934260","","","null","","","","","","<p><img src= images/blank.png width =""600"" height = ""600"" style=""position:fixed;top:50%; left:50%; transform: translate(-50%, -50%); border:5px solid black"">","","","","","","","",""
"","600","sequential-stimulus-presentation-old","145","939151","0.0-31.0-1.2","SS1619739934260","trial","","40","500","1100","images/stimuli/spore_stims/simple_04_A_b.gif","images/stimuli/spore_stims/simple_20_A_a.gif","self_paced","","11","simple_dissimilar","images/stimuli/spore_stims/simple_20_A_a.gif","","","","",""
"","null","html-keyboard-response","146","940402","0.0-31.0-0.3","SS1619739934260","","","null","","","","","","<p><img src= images/blank.png width =""600"" height = ""600"" style=""position:fixed;top:50%; left:50%; transform: translate(-50%, -50%); border:5px solid black"">","","","","","","","",""
"","17770","sequential-stimulus-presentation-old","147","958675","0.0-31.0-1.3","SS1619739934260","trial","","40","500","18270","images/stimuli/spore_stims/simple_04_A_b.gif","images/stimuli/spore_stims/simple_20_A_a.gif","self_paced","","11","simple_dissimilar","images/stimuli/spore_stims/simple_20_A_a.gif","","","","",""
"[{""page_index"":0,""viewing_time"":2979}]","2979","instructions","148","961659","0.0-32.0","SS1619739934260","instructions","","","","","","","","","","","","","","","",""
"","6008","survey-likert","149","967670","0.0-33.0","SS1619739934260","similarity_question","","","","","","","","","","","","{""Q0"":2}","[0]","","images/stimuli/spore_stims/simple_09_A_a.gif","images/stimuli/spore_stims/simple_08_A_b.gif"
"","2910","survey-likert","150","970586","0.0-34.0","SS1619739934260","similarity_question","","","","","","","","","","","","{""Q0"":2}","[0]","","images/stimuli/spore_stims/simple_02_A_b.gif","images/stimuli/spore_stims/simple_04_A_a.gif"
"","4431","survey-likert","151","975024","0.0-35.0","SS1619739934260","similarity_question","","","","","","","","","","","","{""Q0"":4}","[0]","","images/stimuli/spore_stims/simple_20_A_a.gif","images/stimuli/spore_stims/simple_04_A_b.gif"
"","3596","survey-likert","152","978626","0.0-36.0","SS1619739934260","similarity_question","","","","","","","","","","","","{""Q0"":4}","[0]","","images/stimuli/spore_stims/complex_08_A_a.gif","images/stimuli/spore_stims/complex_06_A_b.gif"
"","2341","survey-likert","153","980973","0.0-37.0","SS1619739934260","similarity_question","","","","","","","","","","","","{""Q0"":1}","[0]","","images/stimuli/spore_stims/complex_20_A_b.gif","images/stimuli/spore_stims/complex_11_A_a.gif"
"","2821","survey-likert","154","983798","0.0-38.0","SS1619739934260","similarity_question","","","","","","","","","","","","{""Q0"":2}","[0]","","images/stimuli/spore_stims/simple_11_A_b.gif","images/stimuli/spore_stims/simple_17_A_a.gif"
"","5192","survey-likert","155","988995","0.0-39.0","SS1619739934260","similarity_question","","","","","","","","","","","","{""Q0"":5}","[0]","","images/stimuli/spore_stims/simple_03_A_b.gif","images/stimuli/spore_stims/simple_19_A_a.gif"
"","3135","survey-likert","156","992136","0.0-40.0","SS1619739934260","similarity_question","","","","","","","","","","","","{""Q0"":1}","[0]","","images/stimuli/spore_stims/complex_15_A_b.gif","images/stimuli/spore_stims/complex_14_A_a.gif"
"","2539","survey-likert","157","994680","0.0-41.0","SS1619739934260","similarity_question","","","","","","","","","","","","{""Q0"":1}","[0]","","images/stimuli/spore_stims/complex_19_A_a.gif","images/stimuli/spore_stims/complex_12_A_b.gif"
"","2580","survey-likert","158","997263","0.0-42.0","SS1619739934260","similarity_question","","","","","","","","","","","","{""Q0"":4}","[0]","","images/stimuli/spore_stims/simple_10_A_a.gif","images/stimuli/spore_stims/simple_05_A_b.gif"
"","3147","survey-likert","159","1000415","0.0-43.0","SS1619739934260","similarity_question","","","","","","","","","","","","{""Q0"":4}","[0]","","images/stimuli/spore_stims/complex_17_A_b.gif","images/stimuli/spore_stims/complex_13_A_a.gif"
"","2711","survey-likert","160","1003131","0.0-44.0","SS1619739934260","similarity_question","","","","","","","","","","","","{""Q0"":3}","[0]","","images/stimuli/spore_stims/complex_19_A_b.gif","images/stimuli/spore_stims/complex_04_A_a.gif"
"[{""page_index"":0,""viewing_time"":2748}]","2748","instructions","161","1005883","0.0-45.0","SS1619739934260","instructions","","","","","","","","","","","","","","","",""
"","2697","survey-likert","162","1008587","0.0-46.0","SS1619739934260","","","","","","","","","images/stimuli/spore_stims/complex_08_A_a.gif","","","","{""Q0"":5}","[0]","","",""
"","1764","survey-likert","163","1010360","0.0-47.0","SS1619739934260","","","","","","","","","images/stimuli/spore_stims/complex_12_A_b.gif","","","","{""Q0"":5}","[0]","","",""
"","3281","survey-likert","164","1013646","0.0-48.0","SS1619739934260","","","","","","","","","images/stimuli/spore_stims/simple_03_A_b.gif","","","","{""Q0"":0}","[0]","","",""
"","2046","survey-likert","165","1015697","0.0-49.0","SS1619739934260","","","","","","","","","images/stimuli/spore_stims/simple_11_A_b.gif","","","","{""Q0"":1}","[0]","","",""
"","2835","survey-likert","166","1018537","0.0-50.0","SS1619739934260","","","","","","","","","images/stimuli/spore_stims/complex_19_A_b.gif","","","","{""Q0"":5}","[0]","","",""
"","2220","survey-likert","167","1020762","0.0-51.0","SS1619739934260","","","","","","","","","images/stimuli/spore_stims/complex_20_A_b.gif","","","","{""Q0"":5}","[0]","","",""
"","2892","survey-likert","168","1023659","0.0-52.0","SS1619739934260","","","","","","","","","images/stimuli/spore_stims/complex_17_A_b.gif","","","","{""Q0"":6}","[0]","","",""
"","2168","survey-likert","169","1025831","0.0-53.0","SS1619739934260","","","","","","","","","images/stimuli/spore_stims/simple_02_A_b.gif","","","","{""Q0"":0}","[0]","","",""
"","1665","survey-likert","170","1027501","0.0-54.0","SS1619739934260","","","","","","","","","images/stimuli/spore_stims/simple_05_A_b.gif","","","","{""Q0"":0}","[0]","","",""
"","4916","survey-likert","171","1032422","0.0-55.0","SS1619739934260","","","","","","","","","images/stimuli/spore_stims/complex_15_A_b.gif","","","","{""Q0"":5}","[0]","","",""
"","2058","survey-likert","172","1034485","0.0-56.0","SS1619739934260","","","","","","","","","images/stimuli/spore_stims/simple_08_A_b.gif","","","","{""Q0"":0}","[0]","","",""
"","1748","survey-likert","173","1036237","0.0-57.0","SS1619739934260","","","","","","","","","images/stimuli/spore_stims/simple_20_A_a.gif","","","","{""Q0"":1}","[0]","","",""
"[{""page_index"":0,""viewing_time"":1465}]","1465","instructions","174","1037707","0.0-58.0","SS1619739934260","instructions","","","","","","","","","","","","","","","",""
"","2332","demog-age","175","1040045","0.0-59.0","SS1619739934260","","","","","","","","","","","","","{""age"":""34""}","","","",""
"","2753","demog-ethnic-US","176","1042805","0.0-60.0","SS1619739934260","","","","","","","","","","","","","{""ethnicity"":[""White""]}","[0]","","",""
"","3113","demog-gender-and-education","177","1045922","0.0-61.0","SS1619739934260","","","","","","","","","","","","","{""gender"":""Male"",""education"":""Bachelor's Degree""}","[0,1]","","",""
"","7311","survey-text","178","1053238","0.0-62.0","SS1619739934260","feedback","","","","","","","","","","","","{""Q0"":""no problems""}","","","",""
"[{""page_index"":0,""viewing_time"":1136}]","1136","instructions","179","1054378","0.0-63.0","SS1619739934260","instructions","","","","","","","","","","","","","","","",""
