"view_history","rt","trial_type","trial_index","time_elapsed","internal_node_id","subject","stimulus_type","trial_stimulus","key_press","minimum_viewing_duration","trial_looking_time","block_deviant","block_background","exposure_type","stimulus","block_number","block_type","stimulus_displayed","responses","question_order","math_correct_answer","stimulus_left","stimulus_right"
"[{""page_index"":0,""viewing_time"":6754.100000020117}]","6754.539999878034","instructions","0","6755","0.0-0.0","SS1619739660475","","","","","","","","","","","","","","","","",""
"[{""page_index"":0,""viewing_time"":9336.27499989234},{""page_index"":1,""viewing_time"":7393.000000156462}]","16729.434999870136","instructions","1","25487","0.0-1.0","SS1619739660475","instructions","","","","","","","","","","","","","","","",""
"","7021.76499995403","sequential-stimulus-presentation-old","2","33011","0.0-2.0","SS1619739660475","","","40","500","7521.76499995403","null","null","self_paced","","","","","","","","",""
"","4280.204999959096","sequential-stimulus-presentation-old","3","37793","0.0-3.0","SS1619739660475","","","40","500","4780.204999959096","null","null","self_paced","","","","","","","","",""
"[{""page_index"":0,""viewing_time"":17807.29499994777}]","17807.48499999754","instructions","4","55601","0.0-4.0","SS1619739660475","instructions","","","","","","","","","","","","","","","",""
"","1414.7600000724196","sequential-stimulus-presentation-old","5","72019","0.0-5.0","SS1619739660475","","","40","500","1914.7600000724196","null","null","forced_long","","","","","","","","",""
"","3889.130000025034","sequential-stimulus-presentation-old","6","76410","0.0-6.0","SS1619739660475","","","40","500","4389.130000025034","null","null","forced_long","","","","","","","","",""
"[{""page_index"":0,""viewing_time"":2929.7149998601526}]","2929.895000066608","instructions","7","79340","0.0-7.0","SS1619739660475","instructions","","","","","","","","","","","","","","","",""
"[{""page_index"":0,""viewing_time"":13532.764999894425},{""page_index"":1,""viewing_time"":9954.73500015214},{""page_index"":2,""viewing_time"":6793.174999998882},{""page_index"":3,""viewing_time"":1367.5199998542666},{""page_index"":4,""viewing_time"":1417.0000001322478}]","33065.3549998533","instructions","8","112406","0.0-8.0","SS1619739660475","instructions","","","","","","","","","","","","","","","",""
"","null","html-keyboard-response","9","113657","0.0-9.0-0.0","SS1619739660475","","","null","","","","","","<p><img src= images/blank.png width =""600"" height = ""600"" style=""position:fixed;top:50%; left:50%; transform: translate(-50%, -50%); border:5px solid black"">","","","","","","","",""
"","10369.025000138208","sequential-stimulus-presentation-old","10","124530","0.0-9.0-1.0","SS1619739660475","trial","","40","500","10869.025000138208","images/stimuli/spore_stims/complex_09_A_a.gif","images/stimuli/spore_stims/complex_16_A_b.gif","self_paced","","0","complex_dissimilar","images/stimuli/spore_stims/complex_16_A_b.gif","","","","",""
"","null","html-keyboard-response","11","125832","0.0-9.0-0.1","SS1619739660475","","","null","","","","","","<p><img src= images/blank.png width =""600"" height = ""600"" style=""position:fixed;top:50%; left:50%; transform: translate(-50%, -50%); border:5px solid black"">","","","","","","","",""
"","7025.630000047386","sequential-stimulus-presentation-old","12","133360","0.0-9.0-1.1","SS1619739660475","trial","","40","500","7525.630000047386","images/stimuli/spore_stims/complex_09_A_a.gif","images/stimuli/spore_stims/complex_16_A_b.gif","self_paced","","0","complex_dissimilar","images/stimuli/spore_stims/complex_16_A_b.gif","","","","",""
"","null","html-keyboard-response","13","134435","0.0-9.0-0.2","SS1619739660475","","","null","","","","","","<p><img src= images/blank.png width =""600"" height = ""600"" style=""position:fixed;top:50%; left:50%; transform: translate(-50%, -50%); border:5px solid black"">","","","","","","","",""
"","6081.520000007004","sequential-stimulus-presentation-old","14","141019","0.0-9.0-1.2","SS1619739660475","trial","","40","500","6581.520000007004","images/stimuli/spore_stims/complex_09_A_a.gif","images/stimuli/spore_stims/complex_16_A_b.gif","self_paced","","0","complex_dissimilar","images/stimuli/spore_stims/complex_09_A_a.gif","","","","",""
"","null","html-keyboard-response","15","141939","0.0-9.0-0.3","SS1619739660475","","","null","","","","","","<p><img src= images/blank.png width =""600"" height = ""600"" style=""position:fixed;top:50%; left:50%; transform: translate(-50%, -50%); border:5px solid black"">","","","","","","","",""
"","5739.724999992177","sequential-stimulus-presentation-old","16","148185","0.0-9.0-1.3","SS1619739660475","trial","","40","500","6239.724999992177","images/stimuli/spore_stims/complex_09_A_a.gif","images/stimuli/spore_stims/complex_16_A_b.gif","self_paced","","0","complex_dissimilar","images/stimuli/spore_stims/complex_16_A_b.gif","","","","",""
"","null","html-keyboard-response","17","149451","0.0-9.0-0.4","SS1619739660475","","","null","","","","","","<p><img src= images/blank.png width =""600"" height = ""600"" style=""position:fixed;top:50%; left:50%; transform: translate(-50%, -50%); border:5px solid black"">","","","","","","","",""
"","7586.585000157356","sequential-stimulus-presentation-old","18","157539","0.0-9.0-1.4","SS1619739660475","trial","","40","500","8086.585000157356","images/stimuli/spore_stims/complex_09_A_a.gif","images/stimuli/spore_stims/complex_16_A_b.gif","self_paced","","0","complex_dissimilar","images/stimuli/spore_stims/complex_16_A_b.gif","","","","",""
"","5493.249999824911","survey-multi-choice","19","163035","0.0-10.0","SS1619739660475","math_question","","","","","","","","","","","","{""Q0"":""2""}","[0]","2","",""
"","null","html-keyboard-response","20","164322","0.0-11.0-0.0","SS1619739660475","","","null","","","","","","<p><img src= images/blank.png width =""600"" height = ""600"" style=""position:fixed;top:50%; left:50%; transform: translate(-50%, -50%); border:5px solid black"">","","","","","","","",""
"","1303.0700001399964","sequential-stimulus-presentation-old","21","180627","0.0-11.0-1.0","SS1619739660475","trial","","40","500","1803.0700001399964","images/stimuli/spore_stims/complex_07_A_b.gif","images/stimuli/spore_stims/complex_13_A_a.gif","forced_long","","1","complex_dissimilar","images/stimuli/spore_stims/complex_13_A_a.gif","","","","",""
"","null","html-keyboard-response","22","181646","0.0-11.0-0.1","SS1619739660475","","","null","","","","","","<p><img src= images/blank.png width =""600"" height = ""600"" style=""position:fixed;top:50%; left:50%; transform: translate(-50%, -50%); border:5px solid black"">","","","","","","","",""
"","7219.904999947175","sequential-stimulus-presentation-old","23","189368","0.0-11.0-1.1","SS1619739660475","trial","","40","500","7719.904999947175","images/stimuli/spore_stims/complex_07_A_b.gif","images/stimuli/spore_stims/complex_13_A_a.gif","forced_long","","1","complex_dissimilar","images/stimuli/spore_stims/complex_13_A_a.gif","","","","",""
"","null","html-keyboard-response","24","190205","0.0-11.0-0.2","SS1619739660475","","","null","","","","","","<p><img src= images/blank.png width =""600"" height = ""600"" style=""position:fixed;top:50%; left:50%; transform: translate(-50%, -50%); border:5px solid black"">","","","","","","","",""
"","6023.710000095889","sequential-stimulus-presentation-old","25","196731","0.0-11.0-1.2","SS1619739660475","trial","","40","500","6523.710000095889","images/stimuli/spore_stims/complex_07_A_b.gif","images/stimuli/spore_stims/complex_13_A_a.gif","forced_long","","1","complex_dissimilar","images/stimuli/spore_stims/complex_13_A_a.gif","","","","",""
"","null","html-keyboard-response","26","197691","0.0-11.0-0.3","SS1619739660475","","","null","","","","","","<p><img src= images/blank.png width =""600"" height = ""600"" style=""position:fixed;top:50%; left:50%; transform: translate(-50%, -50%); border:5px solid black"">","","","","","","","",""
"","6678.139999974519","sequential-stimulus-presentation-old","27","204873","0.0-11.0-1.3","SS1619739660475","trial","","40","500","7178.139999974519","images/stimuli/spore_stims/complex_07_A_b.gif","images/stimuli/spore_stims/complex_13_A_a.gif","forced_long","","1","complex_dissimilar","images/stimuli/spore_stims/complex_07_A_b.gif","","","","",""
"","3705.585000105202","survey-multi-choice","28","208579","0.0-12.0","SS1619739660475","math_question","","","","","","","","","","","","{""Q0"":""9""}","[0]","9","",""
"","null","html-keyboard-response","29","209807","0.0-13.0-0.0","SS1619739660475","","","null","","","","","","<p><img src= images/blank.png width =""600"" height = ""600"" style=""position:fixed;top:50%; left:50%; transform: translate(-50%, -50%); border:5px solid black"">","","","","","","","",""
"","1077.1949999034405","sequential-stimulus-presentation-old","30","225889","0.0-13.0-1.0","SS1619739660475","trial","","40","500","1577.1949999034405","images/stimuli/spore_stims/simple_18_A_b.gif","images/stimuli/spore_stims/simple_09_A_a.gif","forced_long","","2","simple_dissimilar","images/stimuli/spore_stims/simple_09_A_a.gif","","","","",""
"","null","html-keyboard-response","31","227072","0.0-13.0-0.1","SS1619739660475","","","null","","","","","","<p><img src= images/blank.png width =""600"" height = ""600"" style=""position:fixed;top:50%; left:50%; transform: translate(-50%, -50%); border:5px solid black"">","","","","","","","",""
"","4018.7450000084937","sequential-stimulus-presentation-old","32","231594","0.0-13.0-1.1","SS1619739660475","trial","","40","500","4518.745000008494","images/stimuli/spore_stims/simple_18_A_b.gif","images/stimuli/spore_stims/simple_09_A_a.gif","forced_long","","2","simple_dissimilar","images/stimuli/spore_stims/simple_09_A_a.gif","","","","",""
"","null","html-keyboard-response","33","232748","0.0-13.0-0.2","SS1619739660475","","","null","","","","","","<p><img src= images/blank.png width =""600"" height = ""600"" style=""position:fixed;top:50%; left:50%; transform: translate(-50%, -50%); border:5px solid black"">","","","","","","","",""
"","2894.994999980554","sequential-stimulus-presentation-old","34","236145","0.0-13.0-1.2","SS1619739660475","trial","","40","500","3394.994999980554","images/stimuli/spore_stims/simple_18_A_b.gif","images/stimuli/spore_stims/simple_09_A_a.gif","forced_long","","2","simple_dissimilar","images/stimuli/spore_stims/simple_09_A_a.gif","","","","",""
"","null","html-keyboard-response","35","237163","0.0-13.0-0.3","SS1619739660475","","","null","","","","","","<p><img src= images/blank.png width =""600"" height = ""600"" style=""position:fixed;top:50%; left:50%; transform: translate(-50%, -50%); border:5px solid black"">","","","","","","","",""
"","3266.2649999838322","sequential-stimulus-presentation-old","36","240932","0.0-13.0-1.3","SS1619739660475","trial","","40","500","3766.2649999838322","images/stimuli/spore_stims/simple_18_A_b.gif","images/stimuli/spore_stims/simple_09_A_a.gif","forced_long","","2","simple_dissimilar","images/stimuli/spore_stims/simple_09_A_a.gif","","","","",""
"","4770.59999993071","survey-multi-choice","37","245703","0.0-14.0","SS1619739660475","math_question","","","","","","","","","","","","{""Q0"":""16""}","[0]","16","",""
"","null","html-keyboard-response","38","246733","0.0-15.0-0.0","SS1619739660475","","","null","","","","","","<p><img src= images/blank.png width =""600"" height = ""600"" style=""position:fixed;top:50%; left:50%; transform: translate(-50%, -50%); border:5px solid black"">","","","","","","","",""
"","572.2449999302626","sequential-stimulus-presentation-old","39","262307","0.0-15.0-1.0","SS1619739660475","trial","","40","500","1072.2449999302626","images/stimuli/spore_stims/complex_01_A_b.gif","images/stimuli/spore_stims/complex_08_A_a.gif","forced_long","","3","complex_dissimilar","images/stimuli/spore_stims/complex_08_A_a.gif","","","","",""
"","null","html-keyboard-response","40","263396","0.0-15.0-0.1","SS1619739660475","","","null","","","","","","<p><img src= images/blank.png width =""600"" height = ""600"" style=""position:fixed;top:50%; left:50%; transform: translate(-50%, -50%); border:5px solid black"">","","","","","","","",""
"","2687.7800000365824","sequential-stimulus-presentation-old","41","266587","0.0-15.0-1.1","SS1619739660475","trial","","40","500","3187.7800000365824","images/stimuli/spore_stims/complex_01_A_b.gif","images/stimuli/spore_stims/complex_08_A_a.gif","forced_long","","3","complex_dissimilar","images/stimuli/spore_stims/complex_08_A_a.gif","","","","",""
"","null","html-keyboard-response","42","267473","0.0-15.0-0.2","SS1619739660475","","","null","","","","","","<p><img src= images/blank.png width =""600"" height = ""600"" style=""position:fixed;top:50%; left:50%; transform: translate(-50%, -50%); border:5px solid black"">","","","","","","","",""
"","1737.9749999381602","sequential-stimulus-presentation-old","43","269713","0.0-15.0-1.2","SS1619739660475","trial","","40","500","2237.97499993816","images/stimuli/spore_stims/complex_01_A_b.gif","images/stimuli/spore_stims/complex_08_A_a.gif","forced_long","","3","complex_dissimilar","images/stimuli/spore_stims/complex_08_A_a.gif","","","","",""
"","null","html-keyboard-response","44","270652","0.0-15.0-0.3","SS1619739660475","","","null","","","","","","<p><img src= images/blank.png width =""600"" height = ""600"" style=""position:fixed;top:50%; left:50%; transform: translate(-50%, -50%); border:5px solid black"">","","","","","","","",""
"","3050.5150000099093","sequential-stimulus-presentation-old","45","274204","0.0-15.0-1.3","SS1619739660475","trial","","40","500","3550.5150000099093","images/stimuli/spore_stims/complex_01_A_b.gif","images/stimuli/spore_stims/complex_08_A_a.gif","forced_long","","3","complex_dissimilar","images/stimuli/spore_stims/complex_08_A_a.gif","","","","",""
"","null","html-keyboard-response","46","275439","0.0-15.0-0.4","SS1619739660475","","","null","","","","","","<p><img src= images/blank.png width =""600"" height = ""600"" style=""position:fixed;top:50%; left:50%; transform: translate(-50%, -50%); border:5px solid black"">","","","","","","","",""
"","2891.3149998988956","sequential-stimulus-presentation-old","47","278832","0.0-15.0-1.4","SS1619739660475","trial","","40","500","3391.3149998988956","images/stimuli/spore_stims/complex_01_A_b.gif","images/stimuli/spore_stims/complex_08_A_a.gif","forced_long","","3","complex_dissimilar","images/stimuli/spore_stims/complex_08_A_a.gif","","","","",""
"","4234.45999994874","survey-multi-choice","48","283068","0.0-16.0","SS1619739660475","math_question","","","","","","","","","","","","{""Q0"":""14""}","[0]","14","",""
"","null","html-keyboard-response","49","283963","0.0-17.0-0.0","SS1619739660475","","","null","","","","","","<p><img src= images/blank.png width =""600"" height = ""600"" style=""position:fixed;top:50%; left:50%; transform: translate(-50%, -50%); border:5px solid black"">","","","","","","","",""
"","3225.1199998427182","sequential-stimulus-presentation-old","50","287690","0.0-17.0-1.0","SS1619739660475","trial","","40","500","3725.1199998427182","images/stimuli/spore_stims/simple_16_A_a.gif","images/stimuli/spore_stims/simple_07_A_b.gif","self_paced","","4","simple_dissimilar","images/stimuli/spore_stims/simple_07_A_b.gif","","","","",""
"","null","html-keyboard-response","51","288676","0.0-17.0-0.1","SS1619739660475","","","null","","","","","","<p><img src= images/blank.png width =""600"" height = ""600"" style=""position:fixed;top:50%; left:50%; transform: translate(-50%, -50%); border:5px solid black"">","","","","","","","",""
"","3575.5649998318404","sequential-stimulus-presentation-old","52","292753","0.0-17.0-1.1","SS1619739660475","trial","","40","500","4075.5649998318404","images/stimuli/spore_stims/simple_16_A_a.gif","images/stimuli/spore_stims/simple_07_A_b.gif","self_paced","","4","simple_dissimilar","images/stimuli/spore_stims/simple_16_A_a.gif","","","","",""
"","null","html-keyboard-response","53","293845","0.0-17.0-0.2","SS1619739660475","","","null","","","","","","<p><img src= images/blank.png width =""600"" height = ""600"" style=""position:fixed;top:50%; left:50%; transform: translate(-50%, -50%); border:5px solid black"">","","","","","","","",""
"","2637.9850001540035","sequential-stimulus-presentation-old","54","296985","0.0-17.0-1.2","SS1619739660475","trial","","40","500","3137.9850001540035","images/stimuli/spore_stims/simple_16_A_a.gif","images/stimuli/spore_stims/simple_07_A_b.gif","self_paced","","4","simple_dissimilar","images/stimuli/spore_stims/simple_16_A_a.gif","","","","",""
"","null","html-keyboard-response","55","298178","0.0-17.0-0.3","SS1619739660475","","","null","","","","","","<p><img src= images/blank.png width =""600"" height = ""600"" style=""position:fixed;top:50%; left:50%; transform: translate(-50%, -50%); border:5px solid black"">","","","","","","","",""
"","2682.5800000224262","sequential-stimulus-presentation-old","56","301363","0.0-17.0-1.3","SS1619739660475","trial","","40","500","3182.5800000224262","images/stimuli/spore_stims/simple_16_A_a.gif","images/stimuli/spore_stims/simple_07_A_b.gif","self_paced","","4","simple_dissimilar","images/stimuli/spore_stims/simple_07_A_b.gif","","","","",""
"","4713.809999870136","survey-multi-choice","57","306079","0.0-18.0","SS1619739660475","math_question","","","","","","","","","","","","{""Q0"":""9""}","[0]","9","",""
"","null","html-keyboard-response","58","307184","0.0-19.0-0.0","SS1619739660475","","","null","","","","","","<p><img src= images/blank.png width =""600"" height = ""600"" style=""position:fixed;top:50%; left:50%; transform: translate(-50%, -50%); border:5px solid black"">","","","","","","","",""
"","4125.499999849126","sequential-stimulus-presentation-old","59","311811","0.0-19.0-1.0","SS1619739660475","trial","","40","500","4625.499999849126","images/stimuli/spore_stims/complex_01_A_a.gif","images/stimuli/spore_stims/complex_10_A_b.gif","self_paced","","5","complex_dissimilar","images/stimuli/spore_stims/complex_10_A_b.gif","","","","",""
"","null","html-keyboard-response","60","312678","0.0-19.0-0.1","SS1619739660475","","","null","","","","","","<p><img src= images/blank.png width =""600"" height = ""600"" style=""position:fixed;top:50%; left:50%; transform: translate(-50%, -50%); border:5px solid black"">","","","","","","","",""
"","2451.795000117272","sequential-stimulus-presentation-old","61","315633","0.0-19.0-1.1","SS1619739660475","trial","","40","500","2951.795000117272","images/stimuli/spore_stims/complex_01_A_a.gif","images/stimuli/spore_stims/complex_10_A_b.gif","self_paced","","5","complex_dissimilar","images/stimuli/spore_stims/complex_10_A_b.gif","","","","",""
"","null","html-keyboard-response","62","316814","0.0-19.0-0.2","SS1619739660475","","","null","","","","","","<p><img src= images/blank.png width =""600"" height = ""600"" style=""position:fixed;top:50%; left:50%; transform: translate(-50%, -50%); border:5px solid black"">","","","","","","","",""
"","3357.6999998185784","sequential-stimulus-presentation-old","63","320674","0.0-19.0-1.2","SS1619739660475","trial","","40","500","3857.6999998185784","images/stimuli/spore_stims/complex_01_A_a.gif","images/stimuli/spore_stims/complex_10_A_b.gif","self_paced","","5","complex_dissimilar","images/stimuli/spore_stims/complex_10_A_b.gif","","","","",""
"","null","html-keyboard-response","64","321622","0.0-19.0-0.3","SS1619739660475","","","null","","","","","","<p><img src= images/blank.png width =""600"" height = ""600"" style=""position:fixed;top:50%; left:50%; transform: translate(-50%, -50%); border:5px solid black"">","","","","","","","",""
"","2174.759999848902","sequential-stimulus-presentation-old","65","324299","0.0-19.0-1.3","SS1619739660475","trial","","40","500","2674.759999848902","images/stimuli/spore_stims/complex_01_A_a.gif","images/stimuli/spore_stims/complex_10_A_b.gif","self_paced","","5","complex_dissimilar","images/stimuli/spore_stims/complex_10_A_b.gif","","","","",""
"","null","html-keyboard-response","66","325509","0.0-19.0-0.4","SS1619739660475","","","null","","","","","","<p><img src= images/blank.png width =""600"" height = ""600"" style=""position:fixed;top:50%; left:50%; transform: translate(-50%, -50%); border:5px solid black"">","","","","","","","",""
"","3277.7050000149757","sequential-stimulus-presentation-old","67","329290","0.0-19.0-1.4","SS1619739660475","trial","","40","500","3777.7050000149757","images/stimuli/spore_stims/complex_01_A_a.gif","images/stimuli/spore_stims/complex_10_A_b.gif","self_paced","","5","complex_dissimilar","images/stimuli/spore_stims/complex_10_A_b.gif","","","","",""
"","null","html-keyboard-response","68","330511","0.0-19.0-0.5","SS1619739660475","","","null","","","","","","<p><img src= images/blank.png width =""600"" height = ""600"" style=""position:fixed;top:50%; left:50%; transform: translate(-50%, -50%); border:5px solid black"">","","","","","","","",""
"","3219.520000042394","sequential-stimulus-presentation-old","69","334233","0.0-19.0-1.5","SS1619739660475","trial","","40","500","3719.520000042394","images/stimuli/spore_stims/complex_01_A_a.gif","images/stimuli/spore_stims/complex_10_A_b.gif","self_paced","","5","complex_dissimilar","images/stimuli/spore_stims/complex_10_A_b.gif","","","","",""
"","2683.9550000149757","survey-multi-choice","70","336919","0.0-20.0","SS1619739660475","math_question","","","","","","","","","","","","{""Q0"":""6""}","[0]","6","",""
"","null","html-keyboard-response","71","337950","0.0-21.0-0.0","SS1619739660475","","","null","","","","","","<p><img src= images/blank.png width =""600"" height = ""600"" style=""position:fixed;top:50%; left:50%; transform: translate(-50%, -50%); border:5px solid black"">","","","","","","","",""
"","3109.2749999370426","sequential-stimulus-presentation-old","72","341562","0.0-21.0-1.0","SS1619739660475","trial","","40","500","3609.2749999370426","images/stimuli/spore_stims/complex_17_A_b.gif","images/stimuli/spore_stims/complex_15_A_a.gif","forced_short","","6","complex_dissimilar","images/stimuli/spore_stims/complex_15_A_a.gif","","","","",""
"","null","html-keyboard-response","73","342735","0.0-21.0-0.1","SS1619739660475","","","null","","","","","","<p><img src= images/blank.png width =""600"" height = ""600"" style=""position:fixed;top:50%; left:50%; transform: translate(-50%, -50%); border:5px solid black"">","","","","","","","",""
"","3173.1349998153746","sequential-stimulus-presentation-old","74","346410","0.0-21.0-1.1","SS1619739660475","trial","","40","500","3673.1349998153746","images/stimuli/spore_stims/complex_17_A_b.gif","images/stimuli/spore_stims/complex_15_A_a.gif","forced_short","","6","complex_dissimilar","images/stimuli/spore_stims/complex_15_A_a.gif","","","","",""
"","null","html-keyboard-response","75","347619","0.0-21.0-0.2","SS1619739660475","","","null","","","","","","<p><img src= images/blank.png width =""600"" height = ""600"" style=""position:fixed;top:50%; left:50%; transform: translate(-50%, -50%); border:5px solid black"">","","","","","","","",""
"","1678.9149998221546","sequential-stimulus-presentation-old","76","349801","0.0-21.0-1.2","SS1619739660475","trial","","40","500","2178.9149998221546","images/stimuli/spore_stims/complex_17_A_b.gif","images/stimuli/spore_stims/complex_15_A_a.gif","forced_short","","6","complex_dissimilar","images/stimuli/spore_stims/complex_15_A_a.gif","","","","",""
"","null","html-keyboard-response","77","350879","0.0-21.0-0.3","SS1619739660475","","","null","","","","","","<p><img src= images/blank.png width =""600"" height = ""600"" style=""position:fixed;top:50%; left:50%; transform: translate(-50%, -50%); border:5px solid black"">","","","","","","","",""
"","2260.759999975562","sequential-stimulus-presentation-old","78","353642","0.0-21.0-1.3","SS1619739660475","trial","","40","500","2760.759999975562","images/stimuli/spore_stims/complex_17_A_b.gif","images/stimuli/spore_stims/complex_15_A_a.gif","forced_short","","6","complex_dissimilar","images/stimuli/spore_stims/complex_15_A_a.gif","","","","",""
"","null","html-keyboard-response","79","354544","0.0-21.0-0.4","SS1619739660475","","","null","","","","","","<p><img src= images/blank.png width =""600"" height = ""600"" style=""position:fixed;top:50%; left:50%; transform: translate(-50%, -50%); border:5px solid black"">","","","","","","","",""
"","1948.6750001087785","sequential-stimulus-presentation-old","80","356995","0.0-21.0-1.4","SS1619739660475","trial","","40","500","2448.6750001087785","images/stimuli/spore_stims/complex_17_A_b.gif","images/stimuli/spore_stims/complex_15_A_a.gif","forced_short","","6","complex_dissimilar","images/stimuli/spore_stims/complex_15_A_a.gif","","","","",""
"","null","html-keyboard-response","81","358170","0.0-21.0-0.5","SS1619739660475","","","null","","","","","","<p><img src= images/blank.png width =""600"" height = ""600"" style=""position:fixed;top:50%; left:50%; transform: translate(-50%, -50%); border:5px solid black"">","","","","","","","",""
"","943.775000050664","sequential-stimulus-presentation-old","82","359616","0.0-21.0-1.5","SS1619739660475","trial","","40","500","1443.775000050664","images/stimuli/spore_stims/complex_17_A_b.gif","images/stimuli/spore_stims/complex_15_A_a.gif","forced_short","","6","complex_dissimilar","images/stimuli/spore_stims/complex_15_A_a.gif","","","","",""
"","2652.7199998963624","survey-multi-choice","83","362270","0.0-22.0","SS1619739660475","math_question","","","","","","","","","","","","{""Q0"":""7""}","[0]","7","",""
"","null","html-keyboard-response","84","363314","0.0-23.0-0.0","SS1619739660475","","","null","","","","","","<p><img src= images/blank.png width =""600"" height = ""600"" style=""position:fixed;top:50%; left:50%; transform: translate(-50%, -50%); border:5px solid black"">","","","","","","","",""
"","3537.1000000741333","sequential-stimulus-presentation-old","85","367354","0.0-23.0-1.0","SS1619739660475","trial","","40","500","4037.1000000741333","images/stimuli/spore_stims/simple_01_A_b.gif","images/stimuli/spore_stims/simple_13_A_a.gif","self_paced","","7","simple_dissimilar","images/stimuli/spore_stims/simple_13_A_a.gif","","","","",""
"","null","html-keyboard-response","86","368544","0.0-23.0-0.1","SS1619739660475","","","null","","","","","","<p><img src= images/blank.png width =""600"" height = ""600"" style=""position:fixed;top:50%; left:50%; transform: translate(-50%, -50%); border:5px solid black"">","","","","","","","",""
"","2890.5249999370426","sequential-stimulus-presentation-old","87","371936","0.0-23.0-1.1","SS1619739660475","trial","","40","500","3390.5249999370426","images/stimuli/spore_stims/simple_01_A_b.gif","images/stimuli/spore_stims/simple_13_A_a.gif","self_paced","","7","simple_dissimilar","images/stimuli/spore_stims/simple_13_A_a.gif","","","","",""
"","null","html-keyboard-response","88","372939","0.0-23.0-0.2","SS1619739660475","","","null","","","","","","<p><img src= images/blank.png width =""600"" height = ""600"" style=""position:fixed;top:50%; left:50%; transform: translate(-50%, -50%); border:5px solid black"">","","","","","","","",""
"","4145.7899999804795","sequential-stimulus-presentation-old","89","377587","0.0-23.0-1.2","SS1619739660475","trial","","40","500","4645.7899999804795","images/stimuli/spore_stims/simple_01_A_b.gif","images/stimuli/spore_stims/simple_13_A_a.gif","self_paced","","7","simple_dissimilar","images/stimuli/spore_stims/simple_13_A_a.gif","","","","",""
"","null","html-keyboard-response","90","378871","0.0-23.0-0.3","SS1619739660475","","","null","","","","","","<p><img src= images/blank.png width =""600"" height = ""600"" style=""position:fixed;top:50%; left:50%; transform: translate(-50%, -50%); border:5px solid black"">","","","","","","","",""
"","2804.099999833852","sequential-stimulus-presentation-old","91","382177","0.0-23.0-1.3","SS1619739660475","trial","","40","500","3304.099999833852","images/stimuli/spore_stims/simple_01_A_b.gif","images/stimuli/spore_stims/simple_13_A_a.gif","self_paced","","7","simple_dissimilar","images/stimuli/spore_stims/simple_13_A_a.gif","","","","",""
"","null","html-keyboard-response","92","383408","0.0-23.0-0.4","SS1619739660475","","","null","","","","","","<p><img src= images/blank.png width =""600"" height = ""600"" style=""position:fixed;top:50%; left:50%; transform: translate(-50%, -50%); border:5px solid black"">","","","","","","","",""
"","3112.809999845922","sequential-stimulus-presentation-old","93","387025","0.0-23.0-1.4","SS1619739660475","trial","","40","500","3612.809999845922","images/stimuli/spore_stims/simple_01_A_b.gif","images/stimuli/spore_stims/simple_13_A_a.gif","self_paced","","7","simple_dissimilar","images/stimuli/spore_stims/simple_13_A_a.gif","","","","",""
"","null","html-keyboard-response","94","387929","0.0-23.0-0.5","SS1619739660475","","","null","","","","","","<p><img src= images/blank.png width =""600"" height = ""600"" style=""position:fixed;top:50%; left:50%; transform: translate(-50%, -50%); border:5px solid black"">","","","","","","","",""
"","2954.2449999134988","sequential-stimulus-presentation-old","95","391386","0.0-23.0-1.5","SS1619739660475","trial","","40","500","3454.2449999134988","images/stimuli/spore_stims/simple_01_A_b.gif","images/stimuli/spore_stims/simple_13_A_a.gif","self_paced","","7","simple_dissimilar","images/stimuli/spore_stims/simple_01_A_b.gif","","","","",""
"","2549.095000140369","survey-multi-choice","96","393937","0.0-24.0","SS1619739660475","math_question","","","","","","","","","","","","{""Q0"":""7""}","[0]","7","",""
"","null","html-keyboard-response","97","394840","0.0-25.0-0.0","SS1619739660475","","","null","","","","","","<p><img src= images/blank.png width =""600"" height = ""600"" style=""position:fixed;top:50%; left:50%; transform: translate(-50%, -50%); border:5px solid black"">","","","","","","","",""
"","1865.955000044778","sequential-stimulus-presentation-old","98","397209","0.0-25.0-1.0","SS1619739660475","trial","","40","500","2365.955000044778","images/stimuli/spore_stims/simple_13_A_b.gif","images/stimuli/spore_stims/simple_15_A_a.gif","forced_short","","8","simple_dissimilar","images/stimuli/spore_stims/simple_15_A_a.gif","","","","",""
"","null","html-keyboard-response","99","398069","0.0-25.0-0.1","SS1619739660475","","","null","","","","","","<p><img src= images/blank.png width =""600"" height = ""600"" style=""position:fixed;top:50%; left:50%; transform: translate(-50%, -50%); border:5px solid black"">","","","","","","","",""
"","2693.8549999613315","sequential-stimulus-presentation-old","100","401265","0.0-25.0-1.1","SS1619739660475","trial","","40","500","3193.8549999613315","images/stimuli/spore_stims/simple_13_A_b.gif","images/stimuli/spore_stims/simple_15_A_a.gif","forced_short","","8","simple_dissimilar","images/stimuli/spore_stims/simple_15_A_a.gif","","","","",""
"","null","html-keyboard-response","101","402278","0.0-25.0-0.2","SS1619739660475","","","null","","","","","","<p><img src= images/blank.png width =""600"" height = ""600"" style=""position:fixed;top:50%; left:50%; transform: translate(-50%, -50%); border:5px solid black"">","","","","","","","",""
"","1518.0949999485165","sequential-stimulus-presentation-old","102","404299","0.0-25.0-1.2","SS1619739660475","trial","","40","500","2018.0949999485165","images/stimuli/spore_stims/simple_13_A_b.gif","images/stimuli/spore_stims/simple_15_A_a.gif","forced_short","","8","simple_dissimilar","images/stimuli/spore_stims/simple_15_A_a.gif","","","","",""
"","null","html-keyboard-response","103","405431","0.0-25.0-0.3","SS1619739660475","","","null","","","","","","<p><img src= images/blank.png width =""600"" height = ""600"" style=""position:fixed;top:50%; left:50%; transform: translate(-50%, -50%); border:5px solid black"">","","","","","","","",""
"","2923.1000000145286","sequential-stimulus-presentation-old","104","408856","0.0-25.0-1.3","SS1619739660475","trial","","40","500","3423.1000000145286","images/stimuli/spore_stims/simple_13_A_b.gif","images/stimuli/spore_stims/simple_15_A_a.gif","forced_short","","8","simple_dissimilar","images/stimuli/spore_stims/simple_15_A_a.gif","","","","",""
"","null","html-keyboard-response","105","410097","0.0-25.0-0.4","SS1619739660475","","","null","","","","","","<p><img src= images/blank.png width =""600"" height = ""600"" style=""position:fixed;top:50%; left:50%; transform: translate(-50%, -50%); border:5px solid black"">","","","","","","","",""
"","881.7900000140071","sequential-stimulus-presentation-old","106","411481","0.0-25.0-1.4","SS1619739660475","trial","","40","500","1381.790000014007","images/stimuli/spore_stims/simple_13_A_b.gif","images/stimuli/spore_stims/simple_15_A_a.gif","forced_short","","8","simple_dissimilar","images/stimuli/spore_stims/simple_15_A_a.gif","","","","",""
"","2993.874999927357","survey-multi-choice","107","414476","0.0-26.0","SS1619739660475","math_question","","","","","","","","","","","","{""Q0"":""5""}","[0]","5","",""
"","null","html-keyboard-response","108","415520","0.0-27.0-0.0","SS1619739660475","","","null","","","","","","<p><img src= images/blank.png width =""600"" height = ""600"" style=""position:fixed;top:50%; left:50%; transform: translate(-50%, -50%); border:5px solid black"">","","","","","","","",""
"","2007.380000082776","sequential-stimulus-presentation-old","109","432531","0.0-27.0-1.0","SS1619739660475","trial","","40","500","2507.380000082776","images/stimuli/spore_stims/simple_17_A_a.gif","images/stimuli/spore_stims/simple_04_A_b.gif","forced_long","","9","simple_dissimilar","images/stimuli/spore_stims/simple_04_A_b.gif","","","","",""
"","null","html-keyboard-response","110","433528","0.0-27.0-0.1","SS1619739660475","","","null","","","","","","<p><img src= images/blank.png width =""600"" height = ""600"" style=""position:fixed;top:50%; left:50%; transform: translate(-50%, -50%); border:5px solid black"">","","","","","","","",""
"","1529.3999998830259","sequential-stimulus-presentation-old","111","435560","0.0-27.0-1.1","SS1619739660475","trial","","40","500","2029.3999998830259","images/stimuli/spore_stims/simple_17_A_a.gif","images/stimuli/spore_stims/simple_04_A_b.gif","forced_long","","9","simple_dissimilar","images/stimuli/spore_stims/simple_04_A_b.gif","","","","",""
"","null","html-keyboard-response","112","436599","0.0-27.0-0.2","SS1619739660475","","","null","","","","","","<p><img src= images/blank.png width =""600"" height = ""600"" style=""position:fixed;top:50%; left:50%; transform: translate(-50%, -50%); border:5px solid black"">","","","","","","","",""
"","2707.0850001182407","sequential-stimulus-presentation-old","113","439809","0.0-27.0-1.2","SS1619739660475","trial","","40","500","3207.0850001182407","images/stimuli/spore_stims/simple_17_A_a.gif","images/stimuli/spore_stims/simple_04_A_b.gif","forced_long","","9","simple_dissimilar","images/stimuli/spore_stims/simple_17_A_a.gif","","","","",""
"","null","html-keyboard-response","114","440614","0.0-27.0-0.3","SS1619739660475","","","null","","","","","","<p><img src= images/blank.png width =""600"" height = ""600"" style=""position:fixed;top:50%; left:50%; transform: translate(-50%, -50%); border:5px solid black"">","","","","","","","",""
"","2565.2649998664856","sequential-stimulus-presentation-old","115","443683","0.0-27.0-1.3","SS1619739660475","trial","","40","500","3065.2649998664856","images/stimuli/spore_stims/simple_17_A_a.gif","images/stimuli/spore_stims/simple_04_A_b.gif","forced_long","","9","simple_dissimilar","images/stimuli/spore_stims/simple_04_A_b.gif","","","","",""
"","null","html-keyboard-response","116","444547","0.0-27.0-0.4","SS1619739660475","","","null","","","","","","<p><img src= images/blank.png width =""600"" height = ""600"" style=""position:fixed;top:50%; left:50%; transform: translate(-50%, -50%); border:5px solid black"">","","","","","","","",""
"","1071.0950000211596","sequential-stimulus-presentation-old","117","446121","0.0-27.0-1.4","SS1619739660475","trial","","40","500","1571.0950000211596","images/stimuli/spore_stims/simple_17_A_a.gif","images/stimuli/spore_stims/simple_04_A_b.gif","forced_long","","9","simple_dissimilar","images/stimuli/spore_stims/simple_04_A_b.gif","","","","",""
"","null","html-keyboard-response","118","447418","0.0-27.0-0.5","SS1619739660475","","","null","","","","","","<p><img src= images/blank.png width =""600"" height = ""600"" style=""position:fixed;top:50%; left:50%; transform: translate(-50%, -50%); border:5px solid black"">","","","","","","","",""
"","1984.4299999531358","sequential-stimulus-presentation-old","119","449905","0.0-27.0-1.5","SS1619739660475","trial","","40","500","2484.429999953136","images/stimuli/spore_stims/simple_17_A_a.gif","images/stimuli/spore_stims/simple_04_A_b.gif","forced_long","","9","simple_dissimilar","images/stimuli/spore_stims/simple_17_A_a.gif","","","","",""
"","2726.6549998894334","survey-multi-choice","120","452633","0.0-28.0","SS1619739660475","math_question","","","","","","","","","","","","{""Q0"":""6""}","[0]","6","",""
"","null","html-keyboard-response","121","453830","0.0-29.0-0.0","SS1619739660475","","","null","","","","","","<p><img src= images/blank.png width =""600"" height = ""600"" style=""position:fixed;top:50%; left:50%; transform: translate(-50%, -50%); border:5px solid black"">","","","","","","","",""
"","1365.9699999261647","sequential-stimulus-presentation-old","122","455699","0.0-29.0-1.0","SS1619739660475","trial","","40","500","1865.9699999261647","images/stimuli/spore_stims/simple_16_A_b.gif","images/stimuli/spore_stims/simple_02_A_a.gif","forced_short","","10","simple_dissimilar","images/stimuli/spore_stims/simple_02_A_a.gif","","","","",""
"","null","html-keyboard-response","123","456944","0.0-29.0-0.1","SS1619739660475","","","null","","","","","","<p><img src= images/blank.png width =""600"" height = ""600"" style=""position:fixed;top:50%; left:50%; transform: translate(-50%, -50%); border:5px solid black"">","","","","","","","",""
"","2689.974999986589","sequential-stimulus-presentation-old","124","460137","0.0-29.0-1.1","SS1619739660475","trial","","40","500","3189.974999986589","images/stimuli/spore_stims/simple_16_A_b.gif","images/stimuli/spore_stims/simple_02_A_a.gif","forced_short","","10","simple_dissimilar","images/stimuli/spore_stims/simple_02_A_a.gif","","","","",""
"","null","html-keyboard-response","125","461354","0.0-29.0-0.2","SS1619739660475","","","null","","","","","","<p><img src= images/blank.png width =""600"" height = ""600"" style=""position:fixed;top:50%; left:50%; transform: translate(-50%, -50%); border:5px solid black"">","","","","","","","",""
"","838.2699999492615","sequential-stimulus-presentation-old","126","462697","0.0-29.0-1.2","SS1619739660475","trial","","40","500","1338.2699999492615","images/stimuli/spore_stims/simple_16_A_b.gif","images/stimuli/spore_stims/simple_02_A_a.gif","forced_short","","10","simple_dissimilar","images/stimuli/spore_stims/simple_02_A_a.gif","","","","",""
"","null","html-keyboard-response","127","463810","0.0-29.0-0.3","SS1619739660475","","","null","","","","","","<p><img src= images/blank.png width =""600"" height = ""600"" style=""position:fixed;top:50%; left:50%; transform: translate(-50%, -50%); border:5px solid black"">","","","","","","","",""
"","947.3249998409301","sequential-stimulus-presentation-old","128","465259","0.0-29.0-1.3","SS1619739660475","trial","","40","500","1447.32499984093","images/stimuli/spore_stims/simple_16_A_b.gif","images/stimuli/spore_stims/simple_02_A_a.gif","forced_short","","10","simple_dissimilar","images/stimuli/spore_stims/simple_02_A_a.gif","","","","",""
"","null","html-keyboard-response","129","466262","0.0-29.0-0.4","SS1619739660475","","","null","","","","","","<p><img src= images/blank.png width =""600"" height = ""600"" style=""position:fixed;top:50%; left:50%; transform: translate(-50%, -50%); border:5px solid black"">","","","","","","","",""
"","678.1200000550598","sequential-stimulus-presentation-old","130","467443","0.0-29.0-1.4","SS1619739660475","trial","","40","500","1178.1200000550598","images/stimuli/spore_stims/simple_16_A_b.gif","images/stimuli/spore_stims/simple_02_A_a.gif","forced_short","","10","simple_dissimilar","images/stimuli/spore_stims/simple_02_A_a.gif","","","","",""
"","null","html-keyboard-response","131","468307","0.0-29.0-0.5","SS1619739660475","","","null","","","","","","<p><img src= images/blank.png width =""600"" height = ""600"" style=""position:fixed;top:50%; left:50%; transform: translate(-50%, -50%); border:5px solid black"">","","","","","","","",""
"","1087.580000050366","sequential-stimulus-presentation-old","132","469897","0.0-29.0-1.5","SS1619739660475","trial","","40","500","1587.580000050366","images/stimuli/spore_stims/simple_16_A_b.gif","images/stimuli/spore_stims/simple_02_A_a.gif","forced_short","","10","simple_dissimilar","images/stimuli/spore_stims/simple_02_A_a.gif","","","","",""
"","3899.75000009872","survey-multi-choice","133","473799","0.0-30.0","SS1619739660475","math_question","","","","","","","","","","","","{""Q0"":""13""}","[0]","13","",""
"","null","html-keyboard-response","134","474954","0.0-31.0-0.0","SS1619739660475","","","null","","","","","","<p><img src= images/blank.png width =""600"" height = ""600"" style=""position:fixed;top:50%; left:50%; transform: translate(-50%, -50%); border:5px solid black"">","","","","","","","",""
"","1208.040000172332","sequential-stimulus-presentation-old","135","476666","0.0-31.0-1.0","SS1619739660475","trial","","40","500","1708.040000172332","images/stimuli/spore_stims/complex_05_A_b.gif","images/stimuli/spore_stims/complex_18_A_a.gif","forced_short","","11","complex_dissimilar","images/stimuli/spore_stims/complex_18_A_a.gif","","","","",""
"","null","html-keyboard-response","136","477839","0.0-31.0-0.1","SS1619739660475","","","null","","","","","","<p><img src= images/blank.png width =""600"" height = ""600"" style=""position:fixed;top:50%; left:50%; transform: translate(-50%, -50%); border:5px solid black"">","","","","","","","",""
"","2117.734999861568","sequential-stimulus-presentation-old","137","480459","0.0-31.0-1.1","SS1619739660475","trial","","40","500","2617.734999861568","images/stimuli/spore_stims/complex_05_A_b.gif","images/stimuli/spore_stims/complex_18_A_a.gif","forced_short","","11","complex_dissimilar","images/stimuli/spore_stims/complex_18_A_a.gif","","","","",""
"","null","html-keyboard-response","138","481654","0.0-31.0-0.2","SS1619739660475","","","null","","","","","","<p><img src= images/blank.png width =""600"" height = ""600"" style=""position:fixed;top:50%; left:50%; transform: translate(-50%, -50%); border:5px solid black"">","","","","","","","",""
"","2067.534999921918","sequential-stimulus-presentation-old","139","484225","0.0-31.0-1.2","SS1619739660475","trial","","40","500","2567.534999921918","images/stimuli/spore_stims/complex_05_A_b.gif","images/stimuli/spore_stims/complex_18_A_a.gif","forced_short","","11","complex_dissimilar","images/stimuli/spore_stims/complex_18_A_a.gif","","","","",""
"","null","html-keyboard-response","140","485361","0.0-31.0-0.3","SS1619739660475","","","null","","","","","","<p><img src= images/blank.png width =""600"" height = ""600"" style=""position:fixed;top:50%; left:50%; transform: translate(-50%, -50%); border:5px solid black"">","","","","","","","",""
"","465.12000006623566","sequential-stimulus-presentation-old","141","486329","0.0-31.0-1.3","SS1619739660475","trial","","40","500","965.1200000662357","images/stimuli/spore_stims/complex_05_A_b.gif","images/stimuli/spore_stims/complex_18_A_a.gif","forced_short","","11","complex_dissimilar","images/stimuli/spore_stims/complex_18_A_a.gif","","","","",""
"","null","html-keyboard-response","142","487575","0.0-31.0-0.4","SS1619739660475","","","null","","","","","","<p><img src= images/blank.png width =""600"" height = ""600"" style=""position:fixed;top:50%; left:50%; transform: translate(-50%, -50%); border:5px solid black"">","","","","","","","",""
"","707.2900000493973","sequential-stimulus-presentation-old","143","488785","0.0-31.0-1.4","SS1619739660475","trial","","40","500","1207.2900000493973","images/stimuli/spore_stims/complex_05_A_b.gif","images/stimuli/spore_stims/complex_18_A_a.gif","forced_short","","11","complex_dissimilar","images/stimuli/spore_stims/complex_18_A_a.gif","","","","",""
"","null","html-keyboard-response","144","489966","0.0-31.0-0.5","SS1619739660475","","","null","","","","","","<p><img src= images/blank.png width =""600"" height = ""600"" style=""position:fixed;top:50%; left:50%; transform: translate(-50%, -50%); border:5px solid black"">","","","","","","","",""
"","1875.8549999911338","sequential-stimulus-presentation-old","145","492346","0.0-31.0-1.5","SS1619739660475","trial","","40","500","2375.854999991134","images/stimuli/spore_stims/complex_05_A_b.gif","images/stimuli/spore_stims/complex_18_A_a.gif","forced_short","","11","complex_dissimilar","images/stimuli/spore_stims/complex_05_A_b.gif","","","","",""
"[{""page_index"":0,""viewing_time"":5422.560000093654}]","5422.740000067279","instructions","146","497770","0.0-32.0","SS1619739660475","instructions","","","","","","","","","","","","","","","",""
"","12194.870000006631","survey-likert","147","509968","0.0-33.0","SS1619739660475","similarity_question","","","","","","","","","","","","{""Q0"":4}","[0]","","images/stimuli/spore_stims/simple_13_A_b.gif","images/stimuli/spore_stims/simple_15_A_a.gif"
"","7440.034999977797","survey-likert","148","517412","0.0-34.0","SS1619739660475","similarity_question","","","","","","","","","","","","{""Q0"":4}","[0]","","images/stimuli/spore_stims/simple_07_A_b.gif","images/stimuli/spore_stims/simple_16_A_a.gif"
"","7458.970000036061","survey-likert","149","524876","0.0-35.0","SS1619739660475","similarity_question","","","","","","","","","","","","{""Q0"":0}","[0]","","images/stimuli/spore_stims/complex_07_A_b.gif","images/stimuli/spore_stims/complex_13_A_a.gif"
"","3185.8000000938773","survey-likert","150","528066","0.0-36.0","SS1619739660475","similarity_question","","","","","","","","","","","","{""Q0"":0}","[0]","","images/stimuli/spore_stims/complex_16_A_b.gif","images/stimuli/spore_stims/complex_09_A_a.gif"
"","3576.7300000879914","survey-likert","151","531647","0.0-37.0","SS1619739660475","similarity_question","","","","","","","","","","","","{""Q0"":4}","[0]","","images/stimuli/spore_stims/simple_17_A_a.gif","images/stimuli/spore_stims/simple_04_A_b.gif"
"","10949.709999840707","survey-likert","152","542601","0.0-38.0","SS1619739660475","similarity_question","","","","","","","","","","","","{""Q0"":3}","[0]","","images/stimuli/spore_stims/complex_01_A_a.gif","images/stimuli/spore_stims/complex_10_A_b.gif"
"","6592.704999959096","survey-likert","153","549199","0.0-39.0","SS1619739660475","similarity_question","","","","","","","","","","","","{""Q0"":0}","[0]","","images/stimuli/spore_stims/complex_18_A_a.gif","images/stimuli/spore_stims/complex_05_A_b.gif"
"","4053.685000166297","survey-likert","154","553256","0.0-40.0","SS1619739660475","similarity_question","","","","","","","","","","","","{""Q0"":1}","[0]","","images/stimuli/spore_stims/complex_15_A_a.gif","images/stimuli/spore_stims/complex_17_A_b.gif"
"","4428.28999995254","survey-likert","155","557689","0.0-41.0","SS1619739660475","similarity_question","","","","","","","","","","","","{""Q0"":5}","[0]","","images/stimuli/spore_stims/simple_01_A_b.gif","images/stimuli/spore_stims/simple_13_A_a.gif"
"","8495.670000091195","survey-likert","156","566189","0.0-42.0","SS1619739660475","similarity_question","","","","","","","","","","","","{""Q0"":2}","[0]","","images/stimuli/spore_stims/complex_08_A_a.gif","images/stimuli/spore_stims/complex_01_A_b.gif"
"","2522.3049998749048","survey-likert","157","568716","0.0-43.0","SS1619739660475","similarity_question","","","","","","","","","","","","{""Q0"":4}","[0]","","images/stimuli/spore_stims/simple_09_A_a.gif","images/stimuli/spore_stims/simple_18_A_b.gif"
"","2366.1400000564754","survey-likert","158","571086","0.0-44.0","SS1619739660475","similarity_question","","","","","","","","","","","","{""Q0"":4}","[0]","","images/stimuli/spore_stims/simple_16_A_b.gif","images/stimuli/spore_stims/simple_02_A_a.gif"
"[{""page_index"":0,""viewing_time"":3156.5600000321865}]","3156.7900001537055","instructions","159","574247","0.0-45.0","SS1619739660475","instructions","","","","","","","","","","","","","","","",""
"","6513.6400000192225","survey-likert","160","580763","0.0-46.0","SS1619739660475","","","","","","","","","images/stimuli/spore_stims/simple_18_A_b.gif","","","","{""Q0"":1}","[0]","","",""
"","4416.160000022501","survey-likert","161","585184","0.0-47.0","SS1619739660475","","","","","","","","","images/stimuli/spore_stims/simple_13_A_b.gif","","","","{""Q0"":0}","[0]","","",""
"","3617.2450000885874","survey-likert","162","588806","0.0-48.0","SS1619739660475","","","","","","","","","images/stimuli/spore_stims/complex_08_A_a.gif","","","","{""Q0"":4}","[0]","","",""
"","3433.3499998319894","survey-likert","163","592243","0.0-49.0","SS1619739660475","","","","","","","","","images/stimuli/spore_stims/simple_01_A_b.gif","","","","{""Q0"":0}","[0]","","",""
"","2914.6499999333173","survey-likert","164","595162","0.0-50.0","SS1619739660475","","","","","","","","","images/stimuli/spore_stims/complex_17_A_b.gif","","","","{""Q0"":5}","[0]","","",""
"","3266.2400000263005","survey-likert","165","598433","0.0-51.0","SS1619739660475","","","","","","","","","images/stimuli/spore_stims/simple_04_A_b.gif","","","","{""Q0"":0}","[0]","","",""
"","3231.4100000075996","survey-likert","166","601669","0.0-52.0","SS1619739660475","","","","","","","","","images/stimuli/spore_stims/complex_09_A_a.gif","","","","{""Q0"":5}","[0]","","",""
"","4828.990000067279","survey-likert","167","606502","0.0-53.0","SS1619739660475","","","","","","","","","images/stimuli/spore_stims/simple_16_A_b.gif","","","","{""Q0"":0}","[0]","","",""
"","1956.1650000978261","survey-likert","168","608463","0.0-54.0","SS1619739660475","","","","","","","","","images/stimuli/spore_stims/simple_07_A_b.gif","","","","{""Q0"":0}","[0]","","",""
"","3380.559999961406","survey-likert","169","611848","0.0-55.0","SS1619739660475","","","","","","","","","images/stimuli/spore_stims/complex_07_A_b.gif","","","","{""Q0"":5}","[0]","","",""
"","2246.8149999622256","survey-likert","170","614100","0.0-56.0","SS1619739660475","","","","","","","","","images/stimuli/spore_stims/complex_18_A_a.gif","","","","{""Q0"":6}","[0]","","",""
"","2078.755000140518","survey-likert","171","616184","0.0-57.0","SS1619739660475","","","","","","","","","images/stimuli/spore_stims/complex_01_A_a.gif","","","","{""Q0"":5}","[0]","","",""
"[{""page_index"":0,""viewing_time"":2114.7050000727177}]","2114.870000164956","instructions","172","618302","0.0-58.0","SS1619739660475","instructions","","","","","","","","","","","","","","","",""
"","2888.6700000148267","demog-age","173","621194","0.0-59.0","SS1619739660475","","","","","","","","","","","","","{""age"":""47""}","","","",""
"","10834.574999986216","demog-ethnic-US","174","632033","0.0-60.0","SS1619739660475","","","","","","","","","","","","","{""ethnicity"":[""White""]}","[0]","","",""
"","7237.209999933839","demog-gender-and-education","175","639275","0.0-61.0","SS1619739660475","","","","","","","","","","","","","{""gender"":""Male"",""education"":""Associate Degree/Technical certification""}","[0,1]","","",""
"","50107.67500009388","survey-text","176","689388","0.0-62.0","SS1619739660475","feedback","","","","","","","","","","","","{""Q0"":""Did not seem laggy to me. Neither cute, sorry...""}","","","",""
"[{""page_index"":0,""viewing_time"":2624.8950001318008}]","2625.1100001391023","instructions","177","692015","0.0-63.0","SS1619739660475","instructions","","","","","","","","","","","","","","","",""
