"view_history","rt","trial_type","trial_index","time_elapsed","internal_node_id","subject","stimulus_type","trial_stimulus","key_press","minimum_viewing_duration","trial_looking_time","block_deviant","block_background","exposure_type","stimulus","block_number","block_type","stimulus_displayed","responses","question_order","math_correct_answer","stimulus_left","stimulus_right"
"[{""page_index"":0,""viewing_time"":2444.2649999982677}]","2444.504999963101","instructions","0","2445","0.0-0.0","SS1619739734513","","","","","","","","","","","","","","","","",""
"[{""page_index"":0,""viewing_time"":1589.7700000205077},{""page_index"":1,""viewing_time"":5536.694999958854}]","7126.775000011548","instructions","1","11586","0.0-1.0","SS1619739734513","instructions","","","","","","","","","","","","","","","",""
"","5814.030000008643","sequential-stimulus-presentation-old","2","17903","0.0-2.0","SS1619739734513","","","40","500","6314.030000008643","null","null","self_paced","","","","","","","","",""
"","3510.439999983646","sequential-stimulus-presentation-old","3","21915","0.0-3.0","SS1619739734513","","","40","500","4010.439999983646","null","null","self_paced","","","","","","","","",""
"[{""page_index"":0,""viewing_time"":7552.964999980759}]","7553.160000010394","instructions","4","29469","0.0-4.0","SS1619739734513","instructions","","","","","","","","","","","","","","","",""
"","849.930000025779","sequential-stimulus-presentation-old","5","45321","0.0-5.0","SS1619739734513","","","40","500","1349.930000025779","null","null","forced_long","","","","","","","","",""
"","849.6449999511242","sequential-stimulus-presentation-old","6","46673","0.0-6.0","SS1619739734513","","","40","500","1349.6449999511242","null","null","forced_long","","","","","","","","",""
"[{""page_index"":0,""viewing_time"":2252.700000011828}]","2252.9150000191294","instructions","7","48926","0.0-7.0","SS1619739734513","instructions","","","","","","","","","","","","","","","",""
"[{""page_index"":0,""viewing_time"":975.7400000235066},{""page_index"":1,""viewing_time"":888.0449999705888},{""page_index"":2,""viewing_time"":1364.4450000138022},{""page_index"":3,""viewing_time"":1224.2850000038743},{""page_index"":4,""viewing_time"":748.3350000111386}]","5201.0299999965355","instructions","8","54128","0.0-8.0","SS1619739734513","instructions","","","","","","","","","","","","","","","",""
"","null","html-keyboard-response","9","55160","0.0-9.0-0.0","SS1619739734513","","","null","","","","","","<p><img src= images/blank.png width =""600"" height = ""600"" style=""position:fixed;top:50%; left:50%; transform: translate(-50%, -50%); border:5px solid black"">","","","","","","","",""
"","36823.86000000406","sequential-stimulus-presentation-old","10","92489","0.0-9.0-1.0","SS1619739734513","trial","","40","500","37323.86000000406","images/stimuli/spore_stims/simple_18_A_a.gif","images/stimuli/spore_stims/simple_12_A_b.gif","self_paced","","0","simple_dissimilar","images/stimuli/spore_stims/simple_12_A_b.gif","","","","",""
"","null","html-keyboard-response","11","93734","0.0-9.0-0.1","SS1619739734513","","","null","","","","","","<p><img src= images/blank.png width =""600"" height = ""600"" style=""position:fixed;top:50%; left:50%; transform: translate(-50%, -50%); border:5px solid black"">","","","","","","","",""
"","665.7199999899603","sequential-stimulus-presentation-old","12","94902","0.0-9.0-1.1","SS1619739734513","trial","","40","500","1165.7199999899603","images/stimuli/spore_stims/simple_18_A_a.gif","images/stimuli/spore_stims/simple_12_A_b.gif","self_paced","","0","simple_dissimilar","images/stimuli/spore_stims/simple_12_A_b.gif","","","","",""
"","null","html-keyboard-response","13","95933","0.0-9.0-0.2","SS1619739734513","","","null","","","","","","<p><img src= images/blank.png width =""600"" height = ""600"" style=""position:fixed;top:50%; left:50%; transform: translate(-50%, -50%); border:5px solid black"">","","","","","","","",""
"","1014.2199999536388","sequential-stimulus-presentation-old","14","97454","0.0-9.0-1.2","SS1619739734513","trial","","40","500","1514.2199999536388","images/stimuli/spore_stims/simple_18_A_a.gif","images/stimuli/spore_stims/simple_12_A_b.gif","self_paced","","0","simple_dissimilar","images/stimuli/spore_stims/simple_12_A_b.gif","","","","",""
"","null","html-keyboard-response","15","98619","0.0-9.0-0.3","SS1619739734513","","","null","","","","","","<p><img src= images/blank.png width =""600"" height = ""600"" style=""position:fixed;top:50%; left:50%; transform: translate(-50%, -50%); border:5px solid black"">","","","","","","","",""
"","3924.2150000063702","sequential-stimulus-presentation-old","16","103046","0.0-9.0-1.3","SS1619739734513","trial","","40","500","4424.21500000637","images/stimuli/spore_stims/simple_18_A_a.gif","images/stimuli/spore_stims/simple_12_A_b.gif","self_paced","","0","simple_dissimilar","images/stimuli/spore_stims/simple_12_A_b.gif","","","","",""
"","null","html-keyboard-response","17","104114","0.0-9.0-0.4","SS1619739734513","","","null","","","","","","<p><img src= images/blank.png width =""600"" height = ""600"" style=""position:fixed;top:50%; left:50%; transform: translate(-50%, -50%); border:5px solid black"">","","","","","","","",""
"","48216.855000006035","sequential-stimulus-presentation-old","18","152833","0.0-9.0-1.4","SS1619739734513","trial","","40","500","48716.855000006035","images/stimuli/spore_stims/simple_18_A_a.gif","images/stimuli/spore_stims/simple_12_A_b.gif","self_paced","","0","simple_dissimilar","images/stimuli/spore_stims/simple_12_A_b.gif","","","","",""
"","3344.314999994822","survey-multi-choice","19","156180","0.0-10.0","SS1619739734513","math_question","","","","","","","","","","","","{""Q0"":""11""}","[0]","11","",""
"","null","html-keyboard-response","20","157447","0.0-11.0-0.0","SS1619739734513","","","null","","","","","","<p><img src= images/blank.png width =""600"" height = ""600"" style=""position:fixed;top:50%; left:50%; transform: translate(-50%, -50%); border:5px solid black"">","","","","","","","",""
"","455.19000000786036","sequential-stimulus-presentation-old","21","158404","0.0-11.0-1.0","SS1619739734513","trial","","40","500","955.1900000078604","images/stimuli/spore_stims/complex_04_A_b.gif","images/stimuli/spore_stims/complex_05_A_a.gif","forced_short","","1","complex_dissimilar","images/stimuli/spore_stims/complex_05_A_a.gif","","","","",""
"","null","html-keyboard-response","22","159276","0.0-11.0-0.1","SS1619739734513","","","null","","","","","","<p><img src= images/blank.png width =""600"" height = ""600"" style=""position:fixed;top:50%; left:50%; transform: translate(-50%, -50%); border:5px solid black"">","","","","","","","",""
"","966.1399999749847","sequential-stimulus-presentation-old","23","160754","0.0-11.0-1.1","SS1619739734513","trial","","40","500","1466.1399999749847","images/stimuli/spore_stims/complex_04_A_b.gif","images/stimuli/spore_stims/complex_05_A_a.gif","forced_short","","1","complex_dissimilar","images/stimuli/spore_stims/complex_05_A_a.gif","","","","",""
"","null","html-keyboard-response","24","161574","0.0-11.0-0.2","SS1619739734513","","","null","","","","","","<p><img src= images/blank.png width =""600"" height = ""600"" style=""position:fixed;top:50%; left:50%; transform: translate(-50%, -50%); border:5px solid black"">","","","","","","","",""
"","6059.484999976121","sequential-stimulus-presentation-old","25","168138","0.0-11.0-1.2","SS1619739734513","trial","","40","500","6559.484999976121","images/stimuli/spore_stims/complex_04_A_b.gif","images/stimuli/spore_stims/complex_05_A_a.gif","forced_short","","1","complex_dissimilar","images/stimuli/spore_stims/complex_05_A_a.gif","","","","",""
"","null","html-keyboard-response","26","169080","0.0-11.0-0.3","SS1619739734513","","","null","","","","","","<p><img src= images/blank.png width =""600"" height = ""600"" style=""position:fixed;top:50%; left:50%; transform: translate(-50%, -50%); border:5px solid black"">","","","","","","","",""
"","56177.16500000097","sequential-stimulus-presentation-old","27","225773","0.0-11.0-1.3","SS1619739734513","trial","","40","500","56677.16500000097","images/stimuli/spore_stims/complex_04_A_b.gif","images/stimuli/spore_stims/complex_05_A_a.gif","forced_short","","1","complex_dissimilar","images/stimuli/spore_stims/complex_05_A_a.gif","","","","",""
"","null","html-keyboard-response","28","227049","0.0-11.0-0.4","SS1619739734513","","","null","","","","","","<p><img src= images/blank.png width =""600"" height = ""600"" style=""position:fixed;top:50%; left:50%; transform: translate(-50%, -50%); border:5px solid black"">","","","","","","","",""
"","1144.2950000055134","sequential-stimulus-presentation-old","29","228698","0.0-11.0-1.4","SS1619739734513","trial","","40","500","1644.2950000055134","images/stimuli/spore_stims/complex_04_A_b.gif","images/stimuli/spore_stims/complex_05_A_a.gif","forced_short","","1","complex_dissimilar","images/stimuli/spore_stims/complex_04_A_b.gif","","","","",""
"","null","html-keyboard-response","30","229655","0.0-11.0-0.5","SS1619739734513","","","null","","","","","","<p><img src= images/blank.png width =""600"" height = ""600"" style=""position:fixed;top:50%; left:50%; transform: translate(-50%, -50%); border:5px solid black"">","","","","","","","",""
"","169.28999999072403","sequential-stimulus-presentation-old","31","230326","0.0-11.0-1.5","SS1619739734513","trial","","40","500","669.289999990724","images/stimuli/spore_stims/complex_04_A_b.gif","images/stimuli/spore_stims/complex_05_A_a.gif","forced_short","","1","complex_dissimilar","images/stimuli/spore_stims/complex_04_A_b.gif","","","","",""
"","4407.550000003539","survey-multi-choice","32","234735","0.0-12.0","SS1619739734513","math_question","","","","","","","","","","","","{""Q0"":""12""}","[0]","12","",""
"","null","html-keyboard-response","33","235999","0.0-13.0-0.0","SS1619739734513","","","null","","","","","","<p><img src= images/blank.png width =""600"" height = ""600"" style=""position:fixed;top:50%; left:50%; transform: translate(-50%, -50%); border:5px solid black"">","","","","","","","",""
"","185.70999999064952","sequential-stimulus-presentation-old","34","236688","0.0-13.0-1.0","SS1619739734513","trial","","40","500","685.7099999906495","images/stimuli/spore_stims/complex_09_A_a.gif","images/stimuli/spore_stims/complex_19_A_b.gif","forced_short","","2","complex_dissimilar","images/stimuli/spore_stims/complex_19_A_b.gif","","","","",""
"","null","html-keyboard-response","35","237704","0.0-13.0-0.1","SS1619739734513","","","null","","","","","","<p><img src= images/blank.png width =""600"" height = ""600"" style=""position:fixed;top:50%; left:50%; transform: translate(-50%, -50%); border:5px solid black"">","","","","","","","",""
"","379.98999998671934","sequential-stimulus-presentation-old","36","238592","0.0-13.0-1.1","SS1619739734513","trial","","40","500","879.9899999867193","images/stimuli/spore_stims/complex_09_A_a.gif","images/stimuli/spore_stims/complex_19_A_b.gif","forced_short","","2","complex_dissimilar","images/stimuli/spore_stims/complex_19_A_b.gif","","","","",""
"","null","html-keyboard-response","37","239592","0.0-13.0-0.2","SS1619739734513","","","null","","","","","","<p><img src= images/blank.png width =""600"" height = ""600"" style=""position:fixed;top:50%; left:50%; transform: translate(-50%, -50%); border:5px solid black"">","","","","","","","",""
"","228.0950000276789","sequential-stimulus-presentation-old","38","240323","0.0-13.0-1.2","SS1619739734513","trial","","40","500","728.0950000276789","images/stimuli/spore_stims/complex_09_A_a.gif","images/stimuli/spore_stims/complex_19_A_b.gif","forced_short","","2","complex_dissimilar","images/stimuli/spore_stims/complex_19_A_b.gif","","","","",""
"","null","html-keyboard-response","39","241551","0.0-13.0-0.3","SS1619739734513","","","null","","","","","","<p><img src= images/blank.png width =""600"" height = ""600"" style=""position:fixed;top:50%; left:50%; transform: translate(-50%, -50%); border:5px solid black"">","","","","","","","",""
"","2791.4849999942817","sequential-stimulus-presentation-old","40","244846","0.0-13.0-1.3","SS1619739734513","trial","","40","500","3291.4849999942817","images/stimuli/spore_stims/complex_09_A_a.gif","images/stimuli/spore_stims/complex_19_A_b.gif","forced_short","","2","complex_dissimilar","images/stimuli/spore_stims/complex_19_A_b.gif","","","","",""
"","null","html-keyboard-response","41","245793","0.0-13.0-0.4","SS1619739734513","","","null","","","","","","<p><img src= images/blank.png width =""600"" height = ""600"" style=""position:fixed;top:50%; left:50%; transform: translate(-50%, -50%); border:5px solid black"">","","","","","","","",""
"","21.27999998629093","sequential-stimulus-presentation-old","42","246317","0.0-13.0-1.4","SS1619739734513","trial","","40","500","521.2799999862909","images/stimuli/spore_stims/complex_09_A_a.gif","images/stimuli/spore_stims/complex_19_A_b.gif","forced_short","","2","complex_dissimilar","images/stimuli/spore_stims/complex_19_A_b.gif","","","","",""
"","null","html-keyboard-response","43","247435","0.0-13.0-0.5","SS1619739734513","","","null","","","","","","<p><img src= images/blank.png width =""600"" height = ""600"" style=""position:fixed;top:50%; left:50%; transform: translate(-50%, -50%); border:5px solid black"">","","","","","","","",""
"","5542.749999964144","sequential-stimulus-presentation-old","44","253481","0.0-13.0-1.5","SS1619739734513","trial","","40","500","6042.749999964144","images/stimuli/spore_stims/complex_09_A_a.gif","images/stimuli/spore_stims/complex_19_A_b.gif","forced_short","","2","complex_dissimilar","images/stimuli/spore_stims/complex_19_A_b.gif","","","","",""
"","2761.370000021998","survey-multi-choice","45","256243","0.0-14.0","SS1619739734513","math_question","","","","","","","","","","","","{""Q0"":""3""}","[0]","3","",""
"","null","html-keyboard-response","46","257351","0.0-15.0-0.0","SS1619739734513","","","null","","","","","","<p><img src= images/blank.png width =""600"" height = ""600"" style=""position:fixed;top:50%; left:50%; transform: translate(-50%, -50%); border:5px solid black"">","","","","","","","",""
"","2699.7449999907985","sequential-stimulus-presentation-old","47","260559","0.0-15.0-1.0","SS1619739734513","trial","","40","500","3199.7449999907985","images/stimuli/spore_stims/complex_18_A_b.gif","images/stimuli/spore_stims/complex_01_A_a.gif","self_paced","","3","complex_dissimilar","images/stimuli/spore_stims/complex_01_A_a.gif","","","","",""
"","null","html-keyboard-response","48","261588","0.0-15.0-0.1","SS1619739734513","","","null","","","","","","<p><img src= images/blank.png width =""600"" height = ""600"" style=""position:fixed;top:50%; left:50%; transform: translate(-50%, -50%); border:5px solid black"">","","","","","","","",""
"","269.87000001827255","sequential-stimulus-presentation-old","49","262361","0.0-15.0-1.1","SS1619739734513","trial","","40","500","769.8700000182725","images/stimuli/spore_stims/complex_18_A_b.gif","images/stimuli/spore_stims/complex_01_A_a.gif","self_paced","","3","complex_dissimilar","images/stimuli/spore_stims/complex_01_A_a.gif","","","","",""
"","null","html-keyboard-response","50","263418","0.0-15.0-0.2","SS1619739734513","","","null","","","","","","<p><img src= images/blank.png width =""600"" height = ""600"" style=""position:fixed;top:50%; left:50%; transform: translate(-50%, -50%); border:5px solid black"">","","","","","","","",""
"","1973.71499997098","sequential-stimulus-presentation-old","51","265894","0.0-15.0-1.2","SS1619739734513","trial","","40","500","2473.71499997098","images/stimuli/spore_stims/complex_18_A_b.gif","images/stimuli/spore_stims/complex_01_A_a.gif","self_paced","","3","complex_dissimilar","images/stimuli/spore_stims/complex_01_A_a.gif","","","","",""
"","null","html-keyboard-response","52","266799","0.0-15.0-0.3","SS1619739734513","","","null","","","","","","<p><img src= images/blank.png width =""600"" height = ""600"" style=""position:fixed;top:50%; left:50%; transform: translate(-50%, -50%); border:5px solid black"">","","","","","","","",""
"","2859.325000026729","sequential-stimulus-presentation-old","53","270161","0.0-15.0-1.3","SS1619739734513","trial","","40","500","3359.325000026729","images/stimuli/spore_stims/complex_18_A_b.gif","images/stimuli/spore_stims/complex_01_A_a.gif","self_paced","","3","complex_dissimilar","images/stimuli/spore_stims/complex_01_A_a.gif","","","","",""
"","null","html-keyboard-response","54","271312","0.0-15.0-0.4","SS1619739734513","","","null","","","","","","<p><img src= images/blank.png width =""600"" height = ""600"" style=""position:fixed;top:50%; left:50%; transform: translate(-50%, -50%); border:5px solid black"">","","","","","","","",""
"","307.3600000352599","sequential-stimulus-presentation-old","55","272123","0.0-15.0-1.4","SS1619739734513","trial","","40","500","807.3600000352599","images/stimuli/spore_stims/complex_18_A_b.gif","images/stimuli/spore_stims/complex_01_A_a.gif","self_paced","","3","complex_dissimilar","images/stimuli/spore_stims/complex_01_A_a.gif","","","","",""
"","2399.9999999650754","survey-multi-choice","56","274525","0.0-16.0","SS1619739734513","math_question","","","","","","","","","","","","{""Q0"":""9""}","[0]","9","",""
"","null","html-keyboard-response","57","275722","0.0-17.0-0.0","SS1619739734513","","","null","","","","","","<p><img src= images/blank.png width =""600"" height = ""600"" style=""position:fixed;top:50%; left:50%; transform: translate(-50%, -50%); border:5px solid black"">","","","","","","","",""
"","922.3950000014156","sequential-stimulus-presentation-old","58","291647","0.0-17.0-1.0","SS1619739734513","trial","","40","500","1422.3950000014156","images/stimuli/spore_stims/simple_11_A_a.gif","images/stimuli/spore_stims/simple_16_A_b.gif","forced_long","","4","simple_dissimilar","images/stimuli/spore_stims/simple_16_A_b.gif","","","","",""
"","null","html-keyboard-response","59","292939","0.0-17.0-0.1","SS1619739734513","","","null","","","","","","<p><img src= images/blank.png width =""600"" height = ""600"" style=""position:fixed;top:50%; left:50%; transform: translate(-50%, -50%); border:5px solid black"">","","","","","","","",""
"","53.714999987278134","sequential-stimulus-presentation-old","60","293504","0.0-17.0-1.1","SS1619739734513","trial","","40","500","553.7149999872781","images/stimuli/spore_stims/simple_11_A_a.gif","images/stimuli/spore_stims/simple_16_A_b.gif","forced_long","","4","simple_dissimilar","images/stimuli/spore_stims/simple_16_A_b.gif","","","","",""
"","null","html-keyboard-response","61","294533","0.0-17.0-0.2","SS1619739734513","","","null","","","","","","<p><img src= images/blank.png width =""600"" height = ""600"" style=""position:fixed;top:50%; left:50%; transform: translate(-50%, -50%); border:5px solid black"">","","","","","","","",""
"","1074.350000009872","sequential-stimulus-presentation-old","62","296111","0.0-17.0-1.2","SS1619739734513","trial","","40","500","1574.350000009872","images/stimuli/spore_stims/simple_11_A_a.gif","images/stimuli/spore_stims/simple_16_A_b.gif","forced_long","","4","simple_dissimilar","images/stimuli/spore_stims/simple_11_A_a.gif","","","","",""
"","null","html-keyboard-response","63","297081","0.0-17.0-0.3","SS1619739734513","","","null","","","","","","<p><img src= images/blank.png width =""600"" height = ""600"" style=""position:fixed;top:50%; left:50%; transform: translate(-50%, -50%); border:5px solid black"">","","","","","","","",""
"","319.19499998912215","sequential-stimulus-presentation-old","64","297904","0.0-17.0-1.3","SS1619739734513","trial","","40","500","819.1949999891222","images/stimuli/spore_stims/simple_11_A_a.gif","images/stimuli/spore_stims/simple_16_A_b.gif","forced_long","","4","simple_dissimilar","images/stimuli/spore_stims/simple_16_A_b.gif","","","","",""
"","4096.7299999902025","survey-multi-choice","65","302002","0.0-18.0","SS1619739734513","math_question","","","","","","","","","","","","{""Q0"":""17""}","[0]","17","",""
"","null","html-keyboard-response","66","302988","0.0-19.0-0.0","SS1619739734513","","","null","","","","","","<p><img src= images/blank.png width =""600"" height = ""600"" style=""position:fixed;top:50%; left:50%; transform: translate(-50%, -50%); border:5px solid black"">","","","","","","","",""
"","128.97000001976267","sequential-stimulus-presentation-old","67","318120","0.0-19.0-1.0","SS1619739734513","trial","","40","500","628.9700000197627","images/stimuli/spore_stims/complex_10_A_a.gif","images/stimuli/spore_stims/complex_13_A_b.gif","forced_long","","5","complex_dissimilar","images/stimuli/spore_stims/complex_13_A_b.gif","","","","",""
"","null","html-keyboard-response","68","319397","0.0-19.0-0.1","SS1619739734513","","","null","","","","","","<p><img src= images/blank.png width =""600"" height = ""600"" style=""position:fixed;top:50%; left:50%; transform: translate(-50%, -50%); border:5px solid black"">","","","","","","","",""
"","3556.479999970179","sequential-stimulus-presentation-old","69","323455","0.0-19.0-1.1","SS1619739734513","trial","","40","500","4056.479999970179","images/stimuli/spore_stims/complex_10_A_a.gif","images/stimuli/spore_stims/complex_13_A_b.gif","forced_long","","5","complex_dissimilar","images/stimuli/spore_stims/complex_13_A_b.gif","","","","",""
"","null","html-keyboard-response","70","324629","0.0-19.0-0.2","SS1619739734513","","","null","","","","","","<p><img src= images/blank.png width =""600"" height = ""600"" style=""position:fixed;top:50%; left:50%; transform: translate(-50%, -50%); border:5px solid black"">","","","","","","","",""
"","1753.4599999780767","sequential-stimulus-presentation-old","71","326886","0.0-19.0-1.2","SS1619739734513","trial","","40","500","2253.4599999780767","images/stimuli/spore_stims/complex_10_A_a.gif","images/stimuli/spore_stims/complex_13_A_b.gif","forced_long","","5","complex_dissimilar","images/stimuli/spore_stims/complex_13_A_b.gif","","","","",""
"","null","html-keyboard-response","72","327806","0.0-19.0-0.3","SS1619739734513","","","null","","","","","","<p><img src= images/blank.png width =""600"" height = ""600"" style=""position:fixed;top:50%; left:50%; transform: translate(-50%, -50%); border:5px solid black"">","","","","","","","",""
"","823.0499999481253","sequential-stimulus-presentation-old","73","329132","0.0-19.0-1.3","SS1619739734513","trial","","40","500","1323.0499999481253","images/stimuli/spore_stims/complex_10_A_a.gif","images/stimuli/spore_stims/complex_13_A_b.gif","forced_long","","5","complex_dissimilar","images/stimuli/spore_stims/complex_13_A_b.gif","","","","",""
"","null","html-keyboard-response","74","330284","0.0-19.0-0.4","SS1619739734513","","","null","","","","","","<p><img src= images/blank.png width =""600"" height = ""600"" style=""position:fixed;top:50%; left:50%; transform: translate(-50%, -50%); border:5px solid black"">","","","","","","","",""
"","359.1000000014901","sequential-stimulus-presentation-old","75","331147","0.0-19.0-1.4","SS1619739734513","trial","","40","500","859.1000000014901","images/stimuli/spore_stims/complex_10_A_a.gif","images/stimuli/spore_stims/complex_13_A_b.gif","forced_long","","5","complex_dissimilar","images/stimuli/spore_stims/complex_10_A_a.gif","","","","",""
"","null","html-keyboard-response","76","332140","0.0-19.0-0.5","SS1619739734513","","","null","","","","","","<p><img src= images/blank.png width =""600"" height = ""600"" style=""position:fixed;top:50%; left:50%; transform: translate(-50%, -50%); border:5px solid black"">","","","","","","","",""
"","2019.0849999780767","sequential-stimulus-presentation-old","77","334676","0.0-19.0-1.5","SS1619739734513","trial","","40","500","2519.0849999780767","images/stimuli/spore_stims/complex_10_A_a.gif","images/stimuli/spore_stims/complex_13_A_b.gif","forced_long","","5","complex_dissimilar","images/stimuli/spore_stims/complex_10_A_a.gif","","","","",""
"","2724.145000043791","survey-multi-choice","78","337402","0.0-20.0","SS1619739734513","math_question","","","","","","","","","","","","{""Q0"":""14""}","[0]","14","",""
"","null","html-keyboard-response","79","338271","0.0-21.0-0.0","SS1619739734513","","","null","","","","","","<p><img src= images/blank.png width =""600"" height = ""600"" style=""position:fixed;top:50%; left:50%; transform: translate(-50%, -50%); border:5px solid black"">","","","","","","","",""
"","2601.685000001453","sequential-stimulus-presentation-old","80","341375","0.0-21.0-1.0","SS1619739734513","trial","","40","500","3101.685000001453","images/stimuli/spore_stims/simple_13_A_a.gif","images/stimuli/spore_stims/simple_08_A_b.gif","self_paced","","6","simple_dissimilar","images/stimuli/spore_stims/simple_08_A_b.gif","","","","",""
"","null","html-keyboard-response","81","342293","0.0-21.0-0.1","SS1619739734513","","","null","","","","","","<p><img src= images/blank.png width =""600"" height = ""600"" style=""position:fixed;top:50%; left:50%; transform: translate(-50%, -50%); border:5px solid black"">","","","","","","","",""
"","6016.034999978729","sequential-stimulus-presentation-old","82","348812","0.0-21.0-1.1","SS1619739734513","trial","","40","500","6516.034999978729","images/stimuli/spore_stims/simple_13_A_a.gif","images/stimuli/spore_stims/simple_08_A_b.gif","self_paced","","6","simple_dissimilar","images/stimuli/spore_stims/simple_08_A_b.gif","","","","",""
"","null","html-keyboard-response","83","349964","0.0-21.0-0.2","SS1619739734513","","","null","","","","","","<p><img src= images/blank.png width =""600"" height = ""600"" style=""position:fixed;top:50%; left:50%; transform: translate(-50%, -50%); border:5px solid black"">","","","","","","","",""
"","374.7150000417605","sequential-stimulus-presentation-old","84","350843","0.0-21.0-1.2","SS1619739734513","trial","","40","500","874.7150000417605","images/stimuli/spore_stims/simple_13_A_a.gif","images/stimuli/spore_stims/simple_08_A_b.gif","self_paced","","6","simple_dissimilar","images/stimuli/spore_stims/simple_08_A_b.gif","","","","",""
"","null","html-keyboard-response","85","352091","0.0-21.0-0.3","SS1619739734513","","","null","","","","","","<p><img src= images/blank.png width =""600"" height = ""600"" style=""position:fixed;top:50%; left:50%; transform: translate(-50%, -50%); border:5px solid black"">","","","","","","","",""
"","1333.249999966938","sequential-stimulus-presentation-old","86","353926","0.0-21.0-1.3","SS1619739734513","trial","","40","500","1833.249999966938","images/stimuli/spore_stims/simple_13_A_a.gif","images/stimuli/spore_stims/simple_08_A_b.gif","self_paced","","6","simple_dissimilar","images/stimuli/spore_stims/simple_08_A_b.gif","","","","",""
"","null","html-keyboard-response","87","355160","0.0-21.0-0.4","SS1619739734513","","","null","","","","","","<p><img src= images/blank.png width =""600"" height = ""600"" style=""position:fixed;top:50%; left:50%; transform: translate(-50%, -50%); border:5px solid black"">","","","","","","","",""
"","744.2049999954179","sequential-stimulus-presentation-old","88","356407","0.0-21.0-1.4","SS1619739734513","trial","","40","500","1244.204999995418","images/stimuli/spore_stims/simple_13_A_a.gif","images/stimuli/spore_stims/simple_08_A_b.gif","self_paced","","6","simple_dissimilar","images/stimuli/spore_stims/simple_08_A_b.gif","","","","",""
"","null","html-keyboard-response","89","357428","0.0-21.0-0.5","SS1619739734513","","","null","","","","","","<p><img src= images/blank.png width =""600"" height = ""600"" style=""position:fixed;top:50%; left:50%; transform: translate(-50%, -50%); border:5px solid black"">","","","","","","","",""
"","2446.094999962952","sequential-stimulus-presentation-old","90","360377","0.0-21.0-1.5","SS1619739734513","trial","","40","500","2946.094999962952","images/stimuli/spore_stims/simple_13_A_a.gif","images/stimuli/spore_stims/simple_08_A_b.gif","self_paced","","6","simple_dissimilar","images/stimuli/spore_stims/simple_13_A_a.gif","","","","",""
"","3194.2500000004657","survey-multi-choice","91","363573","0.0-22.0","SS1619739734513","math_question","","","","","","","","","","","","{""Q0"":""8""}","[0]","8","",""
"","null","html-keyboard-response","92","364607","0.0-23.0-0.0","SS1619739734513","","","null","","","","","","<p><img src= images/blank.png width =""600"" height = ""600"" style=""position:fixed;top:50%; left:50%; transform: translate(-50%, -50%); border:5px solid black"">","","","","","","","",""
"","33137.94500002405","sequential-stimulus-presentation-old","93","413420","0.0-23.0-1.0","SS1619739734513","trial","","40","500","33637.94500002405","images/stimuli/spore_stims/complex_11_A_b.gif","images/stimuli/spore_stims/complex_07_A_a.gif","forced_long","","7","complex_dissimilar","images/stimuli/spore_stims/complex_07_A_a.gif","","","","",""
"","null","html-keyboard-response","94","414680","0.0-23.0-0.1","SS1619739734513","","","null","","","","","","<p><img src= images/blank.png width =""600"" height = ""600"" style=""position:fixed;top:50%; left:50%; transform: translate(-50%, -50%); border:5px solid black"">","","","","","","","",""
"","568.7000000034459","sequential-stimulus-presentation-old","95","415752","0.0-23.0-1.1","SS1619739734513","trial","","40","500","1068.700000003446","images/stimuli/spore_stims/complex_11_A_b.gif","images/stimuli/spore_stims/complex_07_A_a.gif","forced_long","","7","complex_dissimilar","images/stimuli/spore_stims/complex_07_A_a.gif","","","","",""
"","null","html-keyboard-response","96","416922","0.0-23.0-0.2","SS1619739734513","","","null","","","","","","<p><img src= images/blank.png width =""600"" height = ""600"" style=""position:fixed;top:50%; left:50%; transform: translate(-50%, -50%); border:5px solid black"">","","","","","","","",""
"","146.39999996870756","sequential-stimulus-presentation-old","97","417571","0.0-23.0-1.2","SS1619739734513","trial","","40","500","646.3999999687076","images/stimuli/spore_stims/complex_11_A_b.gif","images/stimuli/spore_stims/complex_07_A_a.gif","forced_long","","7","complex_dissimilar","images/stimuli/spore_stims/complex_07_A_a.gif","","","","",""
"","null","html-keyboard-response","98","418510","0.0-23.0-0.3","SS1619739734513","","","null","","","","","","<p><img src= images/blank.png width =""600"" height = ""600"" style=""position:fixed;top:50%; left:50%; transform: translate(-50%, -50%); border:5px solid black"">","","","","","","","",""
"","389.28499998291954","sequential-stimulus-presentation-old","99","419402","0.0-23.0-1.3","SS1619739734513","trial","","40","500","889.2849999829195","images/stimuli/spore_stims/complex_11_A_b.gif","images/stimuli/spore_stims/complex_07_A_a.gif","forced_long","","7","complex_dissimilar","images/stimuli/spore_stims/complex_11_A_b.gif","","","","",""
"","null","html-keyboard-response","100","420352","0.0-23.0-0.4","SS1619739734513","","","null","","","","","","<p><img src= images/blank.png width =""600"" height = ""600"" style=""position:fixed;top:50%; left:50%; transform: translate(-50%, -50%); border:5px solid black"">","","","","","","","",""
"","161.57999995630234","sequential-stimulus-presentation-old","101","421017","0.0-23.0-1.4","SS1619739734513","trial","","40","500","661.5799999563023","images/stimuli/spore_stims/complex_11_A_b.gif","images/stimuli/spore_stims/complex_07_A_a.gif","forced_long","","7","complex_dissimilar","images/stimuli/spore_stims/complex_11_A_b.gif","","","","",""
"","null","html-keyboard-response","102","422090","0.0-23.0-0.5","SS1619739734513","","","null","","","","","","<p><img src= images/blank.png width =""600"" height = ""600"" style=""position:fixed;top:50%; left:50%; transform: translate(-50%, -50%); border:5px solid black"">","","","","","","","",""
"","20.48000000650063","sequential-stimulus-presentation-old","103","422622","0.0-23.0-1.5","SS1619739734513","trial","","40","500","520.4800000065006","images/stimuli/spore_stims/complex_11_A_b.gif","images/stimuli/spore_stims/complex_07_A_a.gif","forced_long","","7","complex_dissimilar","images/stimuli/spore_stims/complex_07_A_a.gif","","","","",""
"","3859.7000000299886","survey-multi-choice","104","426484","0.0-24.0","SS1619739734513","math_question","","","","","","","","","","","","{""Q0"":""11""}","[0]","11","",""
"","null","html-keyboard-response","105","427385","0.0-25.0-0.0","SS1619739734513","","","null","","","","","","<p><img src= images/blank.png width =""600"" height = ""600"" style=""position:fixed;top:50%; left:50%; transform: translate(-50%, -50%); border:5px solid black"">","","","","","","","",""
"","587.0349999750033","sequential-stimulus-presentation-old","106","428485","0.0-25.0-1.0","SS1619739734513","trial","","40","500","1087.0349999750033","images/stimuli/spore_stims/simple_11_A_b.gif","images/stimuli/spore_stims/simple_10_A_a.gif","forced_short","","8","simple_dissimilar","images/stimuli/spore_stims/simple_10_A_a.gif","","","","",""
"","null","html-keyboard-response","107","429474","0.0-25.0-0.1","SS1619739734513","","","null","","","","","","<p><img src= images/blank.png width =""600"" height = ""600"" style=""position:fixed;top:50%; left:50%; transform: translate(-50%, -50%); border:5px solid black"">","","","","","","","",""
"","43.69000002043322","sequential-stimulus-presentation-old","108","430030","0.0-25.0-1.1","SS1619739734513","trial","","40","500","543.6900000204332","images/stimuli/spore_stims/simple_11_A_b.gif","images/stimuli/spore_stims/simple_10_A_a.gif","forced_short","","8","simple_dissimilar","images/stimuli/spore_stims/simple_10_A_a.gif","","","","",""
"","null","html-keyboard-response","109","431111","0.0-25.0-0.2","SS1619739734513","","","null","","","","","","<p><img src= images/blank.png width =""600"" height = ""600"" style=""position:fixed;top:50%; left:50%; transform: translate(-50%, -50%); border:5px solid black"">","","","","","","","",""
"","142.45499996468425","sequential-stimulus-presentation-old","110","431755","0.0-25.0-1.2","SS1619739734513","trial","","40","500","642.4549999646842","images/stimuli/spore_stims/simple_11_A_b.gif","images/stimuli/spore_stims/simple_10_A_a.gif","forced_short","","8","simple_dissimilar","images/stimuli/spore_stims/simple_10_A_a.gif","","","","",""
"","null","html-keyboard-response","111","432659","0.0-25.0-0.3","SS1619739734513","","","null","","","","","","<p><img src= images/blank.png width =""600"" height = ""600"" style=""position:fixed;top:50%; left:50%; transform: translate(-50%, -50%); border:5px solid black"">","","","","","","","",""
"","106.02500004461035","sequential-stimulus-presentation-old","112","433277","0.0-25.0-1.3","SS1619739734513","trial","","40","500","606.0250000446104","images/stimuli/spore_stims/simple_11_A_b.gif","images/stimuli/spore_stims/simple_10_A_a.gif","forced_short","","8","simple_dissimilar","images/stimuli/spore_stims/simple_10_A_a.gif","","","","",""
"","null","html-keyboard-response","113","434381","0.0-25.0-0.4","SS1619739734513","","","null","","","","","","<p><img src= images/blank.png width =""600"" height = ""600"" style=""position:fixed;top:50%; left:50%; transform: translate(-50%, -50%); border:5px solid black"">","","","","","","","",""
"","312.00999999418855","sequential-stimulus-presentation-old","114","435197","0.0-25.0-1.4","SS1619739734513","trial","","40","500","812.0099999941885","images/stimuli/spore_stims/simple_11_A_b.gif","images/stimuli/spore_stims/simple_10_A_a.gif","forced_short","","8","simple_dissimilar","images/stimuli/spore_stims/simple_10_A_a.gif","","","","",""
"","null","html-keyboard-response","115","436228","0.0-25.0-0.5","SS1619739734513","","","null","","","","","","<p><img src= images/blank.png width =""600"" height = ""600"" style=""position:fixed;top:50%; left:50%; transform: translate(-50%, -50%); border:5px solid black"">","","","","","","","",""
"","204.4449999812059","sequential-stimulus-presentation-old","116","436935","0.0-25.0-1.5","SS1619739734513","trial","","40","500","704.4449999812059","images/stimuli/spore_stims/simple_11_A_b.gif","images/stimuli/spore_stims/simple_10_A_a.gif","forced_short","","8","simple_dissimilar","images/stimuli/spore_stims/simple_11_A_b.gif","","","","",""
"","2473.63000002224","survey-multi-choice","117","439411","0.0-26.0","SS1619739734513","math_question","","","","","","","","","","","","{""Q0"":""7""}","[0]","7","",""
"","null","html-keyboard-response","118","440318","0.0-27.0-0.0","SS1619739734513","","","null","","","","","","<p><img src= images/blank.png width =""600"" height = ""600"" style=""position:fixed;top:50%; left:50%; transform: translate(-50%, -50%); border:5px solid black"">","","","","","","","",""
"","3762.860000017099","sequential-stimulus-presentation-old","119","459097","0.0-27.0-1.0","SS1619739734513","trial","","40","500","4262.860000017099","images/stimuli/spore_stims/simple_17_A_a.gif","images/stimuli/spore_stims/simple_13_A_b.gif","forced_long","","9","simple_dissimilar","images/stimuli/spore_stims/simple_13_A_b.gif","","","","",""
"","null","html-keyboard-response","120","460204","0.0-27.0-0.1","SS1619739734513","","","null","","","","","","<p><img src= images/blank.png width =""600"" height = ""600"" style=""position:fixed;top:50%; left:50%; transform: translate(-50%, -50%); border:5px solid black"">","","","","","","","",""
"","188.72999999439344","sequential-stimulus-presentation-old","121","460908","0.0-27.0-1.1","SS1619739734513","trial","","40","500","688.7299999943934","images/stimuli/spore_stims/simple_17_A_a.gif","images/stimuli/spore_stims/simple_13_A_b.gif","forced_long","","9","simple_dissimilar","images/stimuli/spore_stims/simple_13_A_b.gif","","","","",""
"","null","html-keyboard-response","122","462016","0.0-27.0-0.2","SS1619739734513","","","null","","","","","","<p><img src= images/blank.png width =""600"" height = ""600"" style=""position:fixed;top:50%; left:50%; transform: translate(-50%, -50%); border:5px solid black"">","","","","","","","",""
"","1634.6149999881163","sequential-stimulus-presentation-old","123","464153","0.0-27.0-1.2","SS1619739734513","trial","","40","500","2134.6149999881163","images/stimuli/spore_stims/simple_17_A_a.gif","images/stimuli/spore_stims/simple_13_A_b.gif","forced_long","","9","simple_dissimilar","images/stimuli/spore_stims/simple_13_A_b.gif","","","","",""
"","null","html-keyboard-response","124","465451","0.0-27.0-0.3","SS1619739734513","","","null","","","","","","<p><img src= images/blank.png width =""600"" height = ""600"" style=""position:fixed;top:50%; left:50%; transform: translate(-50%, -50%); border:5px solid black"">","","","","","","","",""
"","39.31999998167157","sequential-stimulus-presentation-old","125","465994","0.0-27.0-1.3","SS1619739734513","trial","","40","500","539.3199999816716","images/stimuli/spore_stims/simple_17_A_a.gif","images/stimuli/spore_stims/simple_13_A_b.gif","forced_long","","9","simple_dissimilar","images/stimuli/spore_stims/simple_13_A_b.gif","","","","",""
"","null","html-keyboard-response","126","467023","0.0-27.0-0.4","SS1619739734513","","","null","","","","","","<p><img src= images/blank.png width =""600"" height = ""600"" style=""position:fixed;top:50%; left:50%; transform: translate(-50%, -50%); border:5px solid black"">","","","","","","","",""
"","208.74999999068677","sequential-stimulus-presentation-old","127","467735","0.0-27.0-1.4","SS1619739734513","trial","","40","500","708.7499999906868","images/stimuli/spore_stims/simple_17_A_a.gif","images/stimuli/spore_stims/simple_13_A_b.gif","forced_long","","9","simple_dissimilar","images/stimuli/spore_stims/simple_13_A_b.gif","","","","",""
"","null","html-keyboard-response","128","468789","0.0-27.0-0.5","SS1619739734513","","","null","","","","","","<p><img src= images/blank.png width =""600"" height = ""600"" style=""position:fixed;top:50%; left:50%; transform: translate(-50%, -50%); border:5px solid black"">","","","","","","","",""
"","270.6400000024587","sequential-stimulus-presentation-old","129","469577","0.0-27.0-1.5","SS1619739734513","trial","","40","500","770.6400000024587","images/stimuli/spore_stims/simple_17_A_a.gif","images/stimuli/spore_stims/simple_13_A_b.gif","forced_long","","9","simple_dissimilar","images/stimuli/spore_stims/simple_13_A_b.gif","","","","",""
"","3214.9349999963306","survey-multi-choice","130","472795","0.0-28.0","SS1619739734513","math_question","","","","","","","","","","","","{""Q0"":""8""}","[0]","8","",""
"","null","html-keyboard-response","131","474081","0.0-29.0-0.0","SS1619739734513","","","null","","","","","","<p><img src= images/blank.png width =""600"" height = ""600"" style=""position:fixed;top:50%; left:50%; transform: translate(-50%, -50%); border:5px solid black"">","","","","","","","",""
"","3109.2899999930523","sequential-stimulus-presentation-old","132","477694","0.0-29.0-1.0","SS1619739734513","trial","","40","500","3609.2899999930523","images/stimuli/spore_stims/complex_18_A_a.gif","images/stimuli/spore_stims/complex_12_A_b.gif","self_paced","","10","complex_dissimilar","images/stimuli/spore_stims/complex_12_A_b.gif","","","","",""
"","null","html-keyboard-response","133","478595","0.0-29.0-0.1","SS1619739734513","","","null","","","","","","<p><img src= images/blank.png width =""600"" height = ""600"" style=""position:fixed;top:50%; left:50%; transform: translate(-50%, -50%); border:5px solid black"">","","","","","","","",""
"","152.77500002412125","sequential-stimulus-presentation-old","134","479251","0.0-29.0-1.1","SS1619739734513","trial","","40","500","652.7750000241213","images/stimuli/spore_stims/complex_18_A_a.gif","images/stimuli/spore_stims/complex_12_A_b.gif","self_paced","","10","complex_dissimilar","images/stimuli/spore_stims/complex_12_A_b.gif","","","","",""
"","null","html-keyboard-response","135","480394","0.0-29.0-0.2","SS1619739734513","","","null","","","","","","<p><img src= images/blank.png width =""600"" height = ""600"" style=""position:fixed;top:50%; left:50%; transform: translate(-50%, -50%); border:5px solid black"">","","","","","","","",""
"","223.85000000940636","sequential-stimulus-presentation-old","136","481122","0.0-29.0-1.2","SS1619739734513","trial","","40","500","723.8500000094064","images/stimuli/spore_stims/complex_18_A_a.gif","images/stimuli/spore_stims/complex_12_A_b.gif","self_paced","","10","complex_dissimilar","images/stimuli/spore_stims/complex_12_A_b.gif","","","","",""
"","null","html-keyboard-response","137","482145","0.0-29.0-0.3","SS1619739734513","","","null","","","","","","<p><img src= images/blank.png width =""600"" height = ""600"" style=""position:fixed;top:50%; left:50%; transform: translate(-50%, -50%); border:5px solid black"">","","","","","","","",""
"","324.13000002270564","sequential-stimulus-presentation-old","138","482983","0.0-29.0-1.3","SS1619739734513","trial","","40","500","824.1300000227056","images/stimuli/spore_stims/complex_18_A_a.gif","images/stimuli/spore_stims/complex_12_A_b.gif","self_paced","","10","complex_dissimilar","images/stimuli/spore_stims/complex_12_A_b.gif","","","","",""
"","2606.2849999871105","survey-multi-choice","139","485591","0.0-30.0","SS1619739734513","math_question","","","","","","","","","","","","{""Q0"":""4""}","[0]","4","",""
"","null","html-keyboard-response","140","486508","0.0-31.0-0.0","SS1619739734513","","","null","","","","","","<p><img src= images/blank.png width =""600"" height = ""600"" style=""position:fixed;top:50%; left:50%; transform: translate(-50%, -50%); border:5px solid black"">","","","","","","","",""
"","514.7200000355951","sequential-stimulus-presentation-old","141","487536","0.0-31.0-1.0","SS1619739734513","trial","","40","500","1014.7200000355951","images/stimuli/spore_stims/simple_17_A_b.gif","images/stimuli/spore_stims/simple_07_A_a.gif","forced_short","","11","simple_dissimilar","images/stimuli/spore_stims/simple_07_A_a.gif","","","","",""
"","null","html-keyboard-response","142","488808","0.0-31.0-0.1","SS1619739734513","","","null","","","","","","<p><img src= images/blank.png width =""600"" height = ""600"" style=""position:fixed;top:50%; left:50%; transform: translate(-50%, -50%); border:5px solid black"">","","","","","","","",""
"","635.7150000403635","sequential-stimulus-presentation-old","143","489947","0.0-31.0-1.1","SS1619739734513","trial","","40","500","1135.7150000403635","images/stimuli/spore_stims/simple_17_A_b.gif","images/stimuli/spore_stims/simple_07_A_a.gif","forced_short","","11","simple_dissimilar","images/stimuli/spore_stims/simple_17_A_b.gif","","","","",""
"","null","html-keyboard-response","144","491136","0.0-31.0-0.2","SS1619739734513","","","null","","","","","","<p><img src= images/blank.png width =""600"" height = ""600"" style=""position:fixed;top:50%; left:50%; transform: translate(-50%, -50%); border:5px solid black"">","","","","","","","",""
"","118.0700000259094","sequential-stimulus-presentation-old","145","491757","0.0-31.0-1.2","SS1619739734513","trial","","40","500","618.0700000259094","images/stimuli/spore_stims/simple_17_A_b.gif","images/stimuli/spore_stims/simple_07_A_a.gif","forced_short","","11","simple_dissimilar","images/stimuli/spore_stims/simple_07_A_a.gif","","","","",""
"","null","html-keyboard-response","146","492962","0.0-31.0-0.3","SS1619739734513","","","null","","","","","","<p><img src= images/blank.png width =""600"" height = ""600"" style=""position:fixed;top:50%; left:50%; transform: translate(-50%, -50%); border:5px solid black"">","","","","","","","",""
"","106.19500000029802","sequential-stimulus-presentation-old","147","493578","0.0-31.0-1.3","SS1619739734513","trial","","40","500","606.195000000298","images/stimuli/spore_stims/simple_17_A_b.gif","images/stimuli/spore_stims/simple_07_A_a.gif","forced_short","","11","simple_dissimilar","images/stimuli/spore_stims/simple_17_A_b.gif","","","","",""
"[{""page_index"":0,""viewing_time"":2249.5750000234693}]","2249.8300000443123","instructions","148","495831","0.0-32.0","SS1619739734513","instructions","","","","","","","","","","","","","","","",""
"","11518.879999988712","survey-likert","149","507352","0.0-33.0","SS1619739734513","similarity_question","","","","","","","","","","","","{""Q0"":2}","[0]","","images/stimuli/spore_stims/complex_07_A_a.gif","images/stimuli/spore_stims/complex_11_A_b.gif"
"","4311.5949999773875","survey-likert","150","511667","0.0-34.0","SS1619739734513","similarity_question","","","","","","","","","","","","{""Q0"":2}","[0]","","images/stimuli/spore_stims/simple_11_A_b.gif","images/stimuli/spore_stims/simple_10_A_a.gif"
"","2405.254999990575","survey-likert","151","514075","0.0-35.0","SS1619739734513","similarity_question","","","","","","","","","","","","{""Q0"":5}","[0]","","images/stimuli/spore_stims/simple_11_A_a.gif","images/stimuli/spore_stims/simple_16_A_b.gif"
"","3979.109999956563","survey-likert","152","518057","0.0-36.0","SS1619739734513","similarity_question","","","","","","","","","","","","{""Q0"":3}","[0]","","images/stimuli/spore_stims/simple_18_A_a.gif","images/stimuli/spore_stims/simple_12_A_b.gif"
"","3289.855000039097","survey-likert","153","521349","0.0-37.0","SS1619739734513","similarity_question","","","","","","","","","","","","{""Q0"":4}","[0]","","images/stimuli/spore_stims/complex_12_A_b.gif","images/stimuli/spore_stims/complex_18_A_a.gif"
"","3073.804999992717","survey-likert","154","524426","0.0-38.0","SS1619739734513","similarity_question","","","","","","","","","","","","{""Q0"":4}","[0]","","images/stimuli/spore_stims/simple_13_A_b.gif","images/stimuli/spore_stims/simple_17_A_a.gif"
"","1864.125000021886","survey-likert","155","526293","0.0-39.0","SS1619739734513","similarity_question","","","","","","","","","","","","{""Q0"":4}","[0]","","images/stimuli/spore_stims/simple_13_A_a.gif","images/stimuli/spore_stims/simple_08_A_b.gif"
"","3124.210000038147","survey-likert","156","529421","0.0-40.0","SS1619739734513","similarity_question","","","","","","","","","","","","{""Q0"":1}","[0]","","images/stimuli/spore_stims/complex_19_A_b.gif","images/stimuli/spore_stims/complex_09_A_a.gif"
"","2007.1250000037253","survey-likert","157","531431","0.0-41.0","SS1619739734513","similarity_question","","","","","","","","","","","","{""Q0"":2}","[0]","","images/stimuli/spore_stims/complex_18_A_b.gif","images/stimuli/spore_stims/complex_01_A_a.gif"
"","2905.109999992419","survey-likert","158","534338","0.0-42.0","SS1619739734513","similarity_question","","","","","","","","","","","","{""Q0"":4}","[0]","","images/stimuli/spore_stims/simple_17_A_b.gif","images/stimuli/spore_stims/simple_07_A_a.gif"
"","6329.8199999844655","survey-likert","159","540671","0.0-43.0","SS1619739734513","similarity_question","","","","","","","","","","","","{""Q0"":4}","[0]","","images/stimuli/spore_stims/complex_05_A_a.gif","images/stimuli/spore_stims/complex_04_A_b.gif"
"","2509.9649999756366","survey-likert","160","543184","0.0-44.0","SS1619739734513","similarity_question","","","","","","","","","","","","{""Q0"":2}","[0]","","images/stimuli/spore_stims/complex_10_A_a.gif","images/stimuli/spore_stims/complex_13_A_b.gif"
"[{""page_index"":0,""viewing_time"":761.7500000051223}]","762.0250000036322","instructions","161","543948","0.0-45.0","SS1619739734513","instructions","","","","","","","","","","","","","","","",""
"","3742.2800000058487","survey-likert","162","547693","0.0-46.0","SS1619739734513","","","","","","","","","images/stimuli/spore_stims/complex_18_A_a.gif","","","","{""Q0"":4}","[0]","","",""
"","1462.3000000137836","survey-likert","163","549157","0.0-47.0","SS1619739734513","","","","","","","","","images/stimuli/spore_stims/complex_09_A_a.gif","","","","{""Q0"":4}","[0]","","",""
"","2707.075000042096","survey-likert","164","551867","0.0-48.0","SS1619739734513","","","","","","","","","images/stimuli/spore_stims/simple_12_A_b.gif","","","","{""Q0"":0}","[0]","","",""
"","1869.364999991376","survey-likert","165","553740","0.0-49.0","SS1619739734513","","","","","","","","","images/stimuli/spore_stims/simple_17_A_a.gif","","","","{""Q0"":1}","[0]","","",""
"","1977.9100000159815","survey-likert","166","555720","0.0-50.0","SS1619739734513","","","","","","","","","images/stimuli/spore_stims/complex_05_A_a.gif","","","","{""Q0"":5}","[0]","","",""
"","3164.760000014212","survey-likert","167","558888","0.0-51.0","SS1619739734513","","","","","","","","","images/stimuli/spore_stims/complex_07_A_a.gif","","","","{""Q0"":6}","[0]","","",""
"","1477.0700000226498","survey-likert","168","560368","0.0-52.0","SS1619739734513","","","","","","","","","images/stimuli/spore_stims/complex_10_A_a.gif","","","","{""Q0"":5}","[0]","","",""
"","1813.2650000043213","survey-likert","169","562184","0.0-53.0","SS1619739734513","","","","","","","","","images/stimuli/spore_stims/simple_08_A_b.gif","","","","{""Q0"":0}","[0]","","",""
"","3226.8950000288896","survey-likert","170","565413","0.0-54.0","SS1619739734513","","","","","","","","","images/stimuli/spore_stims/simple_16_A_b.gif","","","","{""Q0"":1}","[0]","","",""
"","1943.3650000137277","survey-likert","171","567360","0.0-55.0","SS1619739734513","","","","","","","","","images/stimuli/spore_stims/simple_17_A_b.gif","","","","{""Q0"":1}","[0]","","",""
"","1885.8300000429153","survey-likert","172","569249","0.0-56.0","SS1619739734513","","","","","","","","","images/stimuli/spore_stims/simple_11_A_b.gif","","","","{""Q0"":1}","[0]","","",""
"","1572.9400000418536","survey-likert","173","570825","0.0-57.0","SS1619739734513","","","","","","","","","images/stimuli/spore_stims/complex_01_A_a.gif","","","","{""Q0"":5}","[0]","","",""
"[{""page_index"":0,""viewing_time"":920.4000000027008}]","920.6499999854714","instructions","174","571749","0.0-58.0","SS1619739734513","instructions","","","","","","","","","","","","","","","",""
"","2774.6599999954924","demog-age","175","574528","0.0-59.0","SS1619739734513","","","","","","","","","","","","","{""age"":""19""}","","","",""
"","3693.1450000265613","demog-ethnic-US","176","578225","0.0-60.0","SS1619739734513","","","","","","","","","","","","","{""ethnicity"":[""White""]}","[0]","","",""
"","6433.120000001509","demog-gender-and-education","177","584662","0.0-61.0","SS1619739734513","","","","","","","","","","","","","{""gender"":""Female"",""education"":""Some high school""}","[0,1]","","",""
"","8157.409999985248","survey-text","178","592822","0.0-62.0","SS1619739734513","feedback","","","","","","","","","","","","{""Q0"":""no""}","","","",""
"[{""page_index"":0,""viewing_time"":1085.224999987986}]","1085.3900000220165","instructions","179","593910","0.0-63.0","SS1619739734513","instructions","","","","","","","","","","","","","","","",""
