"view_history","rt","trial_type","trial_index","time_elapsed","internal_node_id","subject","stimulus_type","trial_stimulus","key_press","minimum_viewing_duration","trial_looking_time","block_deviant","block_background","exposure_type","stimulus","block_number","block_type","stimulus_displayed","responses","question_order","math_correct_answer","stimulus_left","stimulus_right"
"[{""page_index"":0,""viewing_time"":12632.004999992205}]","12633.054999998421","instructions","0","12637","0.0-0.0","SS1619740209264","","","","","","","","","","","","","","","","",""
"[{""page_index"":0,""viewing_time"":13822.234999999637},{""page_index"":1,""viewing_time"":5716.46999999939}]","19539.104999988922","instructions","1","34189","0.0-1.0","SS1619740209264","instructions","","","","","","","","","","","","","","","",""
"","7763.810000004014","sequential-stimulus-presentation-old","2","42458","0.0-2.0","SS1619740209264","","","40","500","8263.810000004014","null","null","self_paced","","","","","","","","",""
"","5226.244999998016","sequential-stimulus-presentation-old","3","48189","0.0-3.0","SS1619740209264","","","40","500","5726.244999998016","null","null","self_paced","","","","","","","","",""
"[{""page_index"":0,""viewing_time"":15681.120000008377}]","15681.519999998272","instructions","4","63873","0.0-4.0","SS1619740209264","instructions","","","","","","","","","","","","","","","",""
"","4831.999999994878","sequential-stimulus-presentation-old","5","83712","0.0-5.0","SS1619740209264","","","40","500","5331.999999994878","null","null","forced_long","","","","","","","","",""
"","721.095000000787","sequential-stimulus-presentation-old","6","84940","0.0-6.0","SS1619740209264","","","40","500","1221.095000000787","null","null","forced_long","","","","","","","","",""
"[{""page_index"":0,""viewing_time"":2746.274999997695}]","2746.614999996382","instructions","7","87690","0.0-7.0","SS1619740209264","instructions","","","","","","","","","","","","","","","",""
"[{""page_index"":0,""viewing_time"":8538.469999999506},{""page_index"":1,""viewing_time"":9482.239999997546},{""page_index"":2,""viewing_time"":7668.519999991986},{""page_index"":3,""viewing_time"":1834.305000011227},{""page_index"":4,""viewing_time"":908.6999999999534}]","28432.709999993676","instructions","8","116127","0.0-8.0","SS1619740209264","instructions","","","","","","","","","","","","","","","",""
"","null","html-keyboard-response","9","116955","0.0-9.0-0.0","SS1619740209264","","","null","","","","","","<p><img src= images/blank.png width =""600"" height = ""600"" style=""position:fixed;top:50%; left:50%; transform: translate(-50%, -50%); border:5px solid black"">","","","","","","","",""
"","4029.7450000070967","sequential-stimulus-presentation-old","10","121489","0.0-9.0-1.0","SS1619740209264","trial","","40","500","4529.745000007097","images/stimuli/spore_stims/simple_11_A_b.gif","images/stimuli/spore_stims/simple_07_A_a.gif","self_paced","","0","simple_dissimilar","images/stimuli/spore_stims/simple_07_A_a.gif","","","","",""
"","null","html-keyboard-response","11","122778","0.0-9.0-0.1","SS1619740209264","","","null","","","","","","<p><img src= images/blank.png width =""600"" height = ""600"" style=""position:fixed;top:50%; left:50%; transform: translate(-50%, -50%); border:5px solid black"">","","","","","","","",""
"","6652.824999997392","sequential-stimulus-presentation-old","12","129935","0.0-9.0-1.1","SS1619740209264","trial","","40","500","7152.824999997392","images/stimuli/spore_stims/simple_11_A_b.gif","images/stimuli/spore_stims/simple_07_A_a.gif","self_paced","","0","simple_dissimilar","images/stimuli/spore_stims/simple_07_A_a.gif","","","","",""
"","null","html-keyboard-response","13","131202","0.0-9.0-0.2","SS1619740209264","","","null","","","","","","<p><img src= images/blank.png width =""600"" height = ""600"" style=""position:fixed;top:50%; left:50%; transform: translate(-50%, -50%); border:5px solid black"">","","","","","","","",""
"","7103.235000002314","sequential-stimulus-presentation-old","14","138813","0.0-9.0-1.2","SS1619740209264","trial","","40","500","7603.235000002314","images/stimuli/spore_stims/simple_11_A_b.gif","images/stimuli/spore_stims/simple_07_A_a.gif","self_paced","","0","simple_dissimilar","images/stimuli/spore_stims/simple_07_A_a.gif","","","","",""
"","null","html-keyboard-response","15","139879","0.0-9.0-0.3","SS1619740209264","","","null","","","","","","<p><img src= images/blank.png width =""600"" height = ""600"" style=""position:fixed;top:50%; left:50%; transform: translate(-50%, -50%); border:5px solid black"">","","","","","","","",""
"","5565.890000012587","sequential-stimulus-presentation-old","16","145956","0.0-9.0-1.3","SS1619740209264","trial","","40","500","6065.890000012587","images/stimuli/spore_stims/simple_11_A_b.gif","images/stimuli/spore_stims/simple_07_A_a.gif","self_paced","","0","simple_dissimilar","images/stimuli/spore_stims/simple_11_A_b.gif","","","","",""
"","null","html-keyboard-response","17","146892","0.0-9.0-0.4","SS1619740209264","","","null","","","","","","<p><img src= images/blank.png width =""600"" height = ""600"" style=""position:fixed;top:50%; left:50%; transform: translate(-50%, -50%); border:5px solid black"">","","","","","","","",""
"","1008.8600000017323","sequential-stimulus-presentation-old","18","148411","0.0-9.0-1.4","SS1619740209264","trial","","40","500","1508.8600000017323","images/stimuli/spore_stims/simple_11_A_b.gif","images/stimuli/spore_stims/simple_07_A_a.gif","self_paced","","0","simple_dissimilar","images/stimuli/spore_stims/simple_11_A_b.gif","","","","",""
"","null","html-keyboard-response","19","149440","0.0-9.0-0.5","SS1619740209264","","","null","","","","","","<p><img src= images/blank.png width =""600"" height = ""600"" style=""position:fixed;top:50%; left:50%; transform: translate(-50%, -50%); border:5px solid black"">","","","","","","","",""
"","1526.4400000014575","sequential-stimulus-presentation-old","20","151474","0.0-9.0-1.5","SS1619740209264","trial","","40","500","2026.4400000014575","images/stimuli/spore_stims/simple_11_A_b.gif","images/stimuli/spore_stims/simple_07_A_a.gif","self_paced","","0","simple_dissimilar","images/stimuli/spore_stims/simple_07_A_a.gif","","","","",""
"","4079.475000005914","survey-multi-choice","21","155562","0.0-10.0","SS1619740209264","math_question","","","","","","","","","","","","{""Q0"":""12""}","[0]","12","",""
"","null","html-keyboard-response","22","156502","0.0-11.0-0.0","SS1619740209264","","","null","","","","","","<p><img src= images/blank.png width =""600"" height = ""600"" style=""position:fixed;top:50%; left:50%; transform: translate(-50%, -50%); border:5px solid black"">","","","","","","","",""
"","62.34000000404194","sequential-stimulus-presentation-old","23","171573","0.0-11.0-1.0","SS1619740209264","trial","","40","500","562.3400000040419","images/stimuli/spore_stims/simple_03_A_a.gif","images/stimuli/spore_stims/simple_13_A_b.gif","forced_long","","1","simple_dissimilar","images/stimuli/spore_stims/simple_13_A_b.gif","","","","",""
"","null","html-keyboard-response","24","172445","0.0-11.0-0.1","SS1619740209264","","","null","","","","","","<p><img src= images/blank.png width =""600"" height = ""600"" style=""position:fixed;top:50%; left:50%; transform: translate(-50%, -50%); border:5px solid black"">","","","","","","","",""
"","2994.860000006156","sequential-stimulus-presentation-old","25","175949","0.0-11.0-1.1","SS1619740209264","trial","","40","500","3494.860000006156","images/stimuli/spore_stims/simple_03_A_a.gif","images/stimuli/spore_stims/simple_13_A_b.gif","forced_long","","1","simple_dissimilar","images/stimuli/spore_stims/simple_13_A_b.gif","","","","",""
"","null","html-keyboard-response","26","177223","0.0-11.0-0.2","SS1619740209264","","","null","","","","","","<p><img src= images/blank.png width =""600"" height = ""600"" style=""position:fixed;top:50%; left:50%; transform: translate(-50%, -50%); border:5px solid black"">","","","","","","","",""
"","1378.5449999995762","sequential-stimulus-presentation-old","27","179109","0.0-11.0-1.2","SS1619740209264","trial","","40","500","1878.5449999995762","images/stimuli/spore_stims/simple_03_A_a.gif","images/stimuli/spore_stims/simple_13_A_b.gif","forced_long","","1","simple_dissimilar","images/stimuli/spore_stims/simple_03_A_a.gif","","","","",""
"","null","html-keyboard-response","28","180207","0.0-11.0-0.3","SS1619740209264","","","null","","","","","","<p><img src= images/blank.png width =""600"" height = ""600"" style=""position:fixed;top:50%; left:50%; transform: translate(-50%, -50%); border:5px solid black"">","","","","","","","",""
"","544.064999994589","sequential-stimulus-presentation-old","29","181259","0.0-11.0-1.3","SS1619740209264","trial","","40","500","1044.064999994589","images/stimuli/spore_stims/simple_03_A_a.gif","images/stimuli/spore_stims/simple_13_A_b.gif","forced_long","","1","simple_dissimilar","images/stimuli/spore_stims/simple_13_A_b.gif","","","","",""
"","3421.1249999934807","survey-multi-choice","30","184685","0.0-12.0","SS1619740209264","math_question","","","","","","","","","","","","{""Q0"":""9""}","[0]","9","",""
"","null","html-keyboard-response","31","185907","0.0-13.0-0.0","SS1619740209264","","","null","","","","","","<p><img src= images/blank.png width =""600"" height = ""600"" style=""position:fixed;top:50%; left:50%; transform: translate(-50%, -50%); border:5px solid black"">","","","","","","","",""
"","116.47500000253785","sequential-stimulus-presentation-old","32","186534","0.0-13.0-1.0","SS1619740209264","trial","","40","500","616.4750000025379","images/stimuli/spore_stims/simple_13_A_a.gif","images/stimuli/spore_stims/simple_10_A_b.gif","forced_short","","2","simple_dissimilar","images/stimuli/spore_stims/simple_10_A_b.gif","","","","",""
"","null","html-keyboard-response","33","187645","0.0-13.0-0.1","SS1619740209264","","","null","","","","","","<p><img src= images/blank.png width =""600"" height = ""600"" style=""position:fixed;top:50%; left:50%; transform: translate(-50%, -50%); border:5px solid black"">","","","","","","","",""
"","1242.6100000011502","sequential-stimulus-presentation-old","34","189396","0.0-13.0-1.1","SS1619740209264","trial","","40","500","1742.6100000011502","images/stimuli/spore_stims/simple_13_A_a.gif","images/stimuli/spore_stims/simple_10_A_b.gif","forced_short","","2","simple_dissimilar","images/stimuli/spore_stims/simple_10_A_b.gif","","","","",""
"","null","html-keyboard-response","35","190551","0.0-13.0-0.2","SS1619740209264","","","null","","","","","","<p><img src= images/blank.png width =""600"" height = ""600"" style=""position:fixed;top:50%; left:50%; transform: translate(-50%, -50%); border:5px solid black"">","","","","","","","",""
"","674.9950000084937","sequential-stimulus-presentation-old","36","191734","0.0-13.0-1.2","SS1619740209264","trial","","40","500","1174.9950000084937","images/stimuli/spore_stims/simple_13_A_a.gif","images/stimuli/spore_stims/simple_10_A_b.gif","forced_short","","2","simple_dissimilar","images/stimuli/spore_stims/simple_10_A_b.gif","","","","",""
"","null","html-keyboard-response","37","192653","0.0-13.0-0.3","SS1619740209264","","","null","","","","","","<p><img src= images/blank.png width =""600"" height = ""600"" style=""position:fixed;top:50%; left:50%; transform: translate(-50%, -50%); border:5px solid black"">","","","","","","","",""
"","393.15000000351574","sequential-stimulus-presentation-old","38","193555","0.0-13.0-1.3","SS1619740209264","trial","","40","500","893.1500000035157","images/stimuli/spore_stims/simple_13_A_a.gif","images/stimuli/spore_stims/simple_10_A_b.gif","forced_short","","2","simple_dissimilar","images/stimuli/spore_stims/simple_13_A_a.gif","","","","",""
"","null","html-keyboard-response","39","194481","0.0-13.0-0.4","SS1619740209264","","","null","","","","","","<p><img src= images/blank.png width =""600"" height = ""600"" style=""position:fixed;top:50%; left:50%; transform: translate(-50%, -50%); border:5px solid black"">","","","","","","","",""
"","971.2349999899743","sequential-stimulus-presentation-old","40","195996","0.0-13.0-1.4","SS1619740209264","trial","","40","500","1471.2349999899743","images/stimuli/spore_stims/simple_13_A_a.gif","images/stimuli/spore_stims/simple_10_A_b.gif","forced_short","","2","simple_dissimilar","images/stimuli/spore_stims/simple_13_A_a.gif","","","","",""
"","2876.560000004247","survey-multi-choice","41","198879","0.0-14.0","SS1619740209264","math_question","","","","","","","","","","","","{""Q0"":""3""}","[0]","3","",""
"","null","html-keyboard-response","42","200112","0.0-15.0-0.0","SS1619740209264","","","null","","","","","","<p><img src= images/blank.png width =""600"" height = ""600"" style=""position:fixed;top:50%; left:50%; transform: translate(-50%, -50%); border:5px solid black"">","","","","","","","",""
"","58.53999999817461","sequential-stimulus-presentation-old","43","215180","0.0-15.0-1.0","SS1619740209264","trial","","40","500","558.5399999981746","images/stimuli/spore_stims/complex_08_A_a.gif","images/stimuli/spore_stims/complex_14_A_b.gif","forced_long","","3","complex_dissimilar","images/stimuli/spore_stims/complex_14_A_b.gif","","","","",""
"","null","html-keyboard-response","44","216048","0.0-15.0-0.1","SS1619740209264","","","null","","","","","","<p><img src= images/blank.png width =""600"" height = ""600"" style=""position:fixed;top:50%; left:50%; transform: translate(-50%, -50%); border:5px solid black"">","","","","","","","",""
"","20.70000000821892","sequential-stimulus-presentation-old","45","216574","0.0-15.0-1.1","SS1619740209264","trial","","40","500","520.7000000082189","images/stimuli/spore_stims/complex_08_A_a.gif","images/stimuli/spore_stims/complex_14_A_b.gif","forced_long","","3","complex_dissimilar","images/stimuli/spore_stims/complex_14_A_b.gif","","","","",""
"","null","html-keyboard-response","46","217746","0.0-15.0-0.2","SS1619740209264","","","null","","","","","","<p><img src= images/blank.png width =""600"" height = ""600"" style=""position:fixed;top:50%; left:50%; transform: translate(-50%, -50%); border:5px solid black"">","","","","","","","",""
"","1.680000001215376","sequential-stimulus-presentation-old","47","218254","0.0-15.0-1.2","SS1619740209264","trial","","40","500","501.6800000012154","images/stimuli/spore_stims/complex_08_A_a.gif","images/stimuli/spore_stims/complex_14_A_b.gif","forced_long","","3","complex_dissimilar","images/stimuli/spore_stims/complex_14_A_b.gif","","","","",""
"","null","html-keyboard-response","48","219339","0.0-15.0-0.3","SS1619740209264","","","null","","","","","","<p><img src= images/blank.png width =""600"" height = ""600"" style=""position:fixed;top:50%; left:50%; transform: translate(-50%, -50%); border:5px solid black"">","","","","","","","",""
"","25.63999999256339","sequential-stimulus-presentation-old","49","219873","0.0-15.0-1.3","SS1619740209264","trial","","40","500","525.6399999925634","images/stimuli/spore_stims/complex_08_A_a.gif","images/stimuli/spore_stims/complex_14_A_b.gif","forced_long","","3","complex_dissimilar","images/stimuli/spore_stims/complex_14_A_b.gif","","","","",""
"","null","html-keyboard-response","50","220963","0.0-15.0-0.4","SS1619740209264","","","null","","","","","","<p><img src= images/blank.png width =""600"" height = ""600"" style=""position:fixed;top:50%; left:50%; transform: translate(-50%, -50%); border:5px solid black"">","","","","","","","",""
"","3384.875000003376","sequential-stimulus-presentation-old","51","224853","0.0-15.0-1.4","SS1619740209264","trial","","40","500","3884.875000003376","images/stimuli/spore_stims/complex_08_A_a.gif","images/stimuli/spore_stims/complex_14_A_b.gif","forced_long","","3","complex_dissimilar","images/stimuli/spore_stims/complex_08_A_a.gif","","","","",""
"","null","html-keyboard-response","52","225889","0.0-15.0-0.5","SS1619740209264","","","null","","","","","","<p><img src= images/blank.png width =""600"" height = ""600"" style=""position:fixed;top:50%; left:50%; transform: translate(-50%, -50%); border:5px solid black"">","","","","","","","",""
"","714.1949999931967","sequential-stimulus-presentation-old","53","227119","0.0-15.0-1.5","SS1619740209264","trial","","40","500","1214.1949999931967","images/stimuli/spore_stims/complex_08_A_a.gif","images/stimuli/spore_stims/complex_14_A_b.gif","forced_long","","3","complex_dissimilar","images/stimuli/spore_stims/complex_14_A_b.gif","","","","",""
"","2963.4599999990314","survey-multi-choice","54","230087","0.0-16.0","SS1619740209264","math_question","","","","","","","","","","","","{""Q0"":""8""}","[0]","8","",""
"","null","html-keyboard-response","55","231393","0.0-17.0-0.0","SS1619740209264","","","null","","","","","","<p><img src= images/blank.png width =""600"" height = ""600"" style=""position:fixed;top:50%; left:50%; transform: translate(-50%, -50%); border:5px solid black"">","","","","","","","",""
"","756.8449999962468","sequential-stimulus-presentation-old","56","232663","0.0-17.0-1.0","SS1619740209264","trial","","40","500","1256.8449999962468","images/stimuli/spore_stims/complex_05_A_b.gif","images/stimuli/spore_stims/complex_04_A_a.gif","forced_short","","4","complex_dissimilar","images/stimuli/spore_stims/complex_04_A_a.gif","","","","",""
"","null","html-keyboard-response","57","233969","0.0-17.0-0.1","SS1619740209264","","","null","","","","","","<p><img src= images/blank.png width =""600"" height = ""600"" style=""position:fixed;top:50%; left:50%; transform: translate(-50%, -50%); border:5px solid black"">","","","","","","","",""
"","2295.1849999953993","sequential-stimulus-presentation-old","58","236772","0.0-17.0-1.1","SS1619740209264","trial","","40","500","2795.1849999953993","images/stimuli/spore_stims/complex_05_A_b.gif","images/stimuli/spore_stims/complex_04_A_a.gif","forced_short","","4","complex_dissimilar","images/stimuli/spore_stims/complex_05_A_b.gif","","","","",""
"","null","html-keyboard-response","59","238001","0.0-17.0-0.2","SS1619740209264","","","null","","","","","","<p><img src= images/blank.png width =""600"" height = ""600"" style=""position:fixed;top:50%; left:50%; transform: translate(-50%, -50%); border:5px solid black"">","","","","","","","",""
"","271.57499999157153","sequential-stimulus-presentation-old","60","238784","0.0-17.0-1.2","SS1619740209264","trial","","40","500","771.5749999915715","images/stimuli/spore_stims/complex_05_A_b.gif","images/stimuli/spore_stims/complex_04_A_a.gif","forced_short","","4","complex_dissimilar","images/stimuli/spore_stims/complex_05_A_b.gif","","","","",""
"","null","html-keyboard-response","61","240046","0.0-17.0-0.3","SS1619740209264","","","null","","","","","","<p><img src= images/blank.png width =""600"" height = ""600"" style=""position:fixed;top:50%; left:50%; transform: translate(-50%, -50%); border:5px solid black"">","","","","","","","",""
"","2530.754999999772","sequential-stimulus-presentation-old","62","243085","0.0-17.0-1.3","SS1619740209264","trial","","40","500","3030.754999999772","images/stimuli/spore_stims/complex_05_A_b.gif","images/stimuli/spore_stims/complex_04_A_a.gif","forced_short","","4","complex_dissimilar","images/stimuli/spore_stims/complex_04_A_a.gif","","","","",""
"","3117.5599999987753","survey-multi-choice","63","246208","0.0-18.0","SS1619740209264","math_question","","","","","","","","","","","","{""Q0"":""11""}","[0]","11","",""
"","null","html-keyboard-response","64","247129","0.0-19.0-0.0","SS1619740209264","","","null","","","","","","<p><img src= images/blank.png width =""600"" height = ""600"" style=""position:fixed;top:50%; left:50%; transform: translate(-50%, -50%); border:5px solid black"">","","","","","","","",""
"","612.9650000075344","sequential-stimulus-presentation-old","65","262753","0.0-19.0-1.0","SS1619740209264","trial","","40","500","1112.9650000075344","images/stimuli/spore_stims/simple_01_A_b.gif","images/stimuli/spore_stims/simple_08_A_a.gif","forced_long","","5","simple_dissimilar","images/stimuli/spore_stims/simple_08_A_a.gif","","","","",""
"","null","html-keyboard-response","66","263878","0.0-19.0-0.1","SS1619740209264","","","null","","","","","","<p><img src= images/blank.png width =""600"" height = ""600"" style=""position:fixed;top:50%; left:50%; transform: translate(-50%, -50%); border:5px solid black"">","","","","","","","",""
"","90.1750000048196","sequential-stimulus-presentation-old","67","264480","0.0-19.0-1.1","SS1619740209264","trial","","40","500","590.1750000048196","images/stimuli/spore_stims/simple_01_A_b.gif","images/stimuli/spore_stims/simple_08_A_a.gif","forced_long","","5","simple_dissimilar","images/stimuli/spore_stims/simple_08_A_a.gif","","","","",""
"","null","html-keyboard-response","68","265529","0.0-19.0-0.2","SS1619740209264","","","null","","","","","","<p><img src= images/blank.png width =""600"" height = ""600"" style=""position:fixed;top:50%; left:50%; transform: translate(-50%, -50%); border:5px solid black"">","","","","","","","",""
"","244.72000000241678","sequential-stimulus-presentation-old","69","266281","0.0-19.0-1.2","SS1619740209264","trial","","40","500","744.7200000024168","images/stimuli/spore_stims/simple_01_A_b.gif","images/stimuli/spore_stims/simple_08_A_a.gif","forced_long","","5","simple_dissimilar","images/stimuli/spore_stims/simple_08_A_a.gif","","","","",""
"","null","html-keyboard-response","70","267358","0.0-19.0-0.3","SS1619740209264","","","null","","","","","","<p><img src= images/blank.png width =""600"" height = ""600"" style=""position:fixed;top:50%; left:50%; transform: translate(-50%, -50%); border:5px solid black"">","","","","","","","",""
"","1022.7400000003399","sequential-stimulus-presentation-old","71","268892","0.0-19.0-1.3","SS1619740209264","trial","","40","500","1522.74000000034","images/stimuli/spore_stims/simple_01_A_b.gif","images/stimuli/spore_stims/simple_08_A_a.gif","forced_long","","5","simple_dissimilar","images/stimuli/spore_stims/simple_08_A_a.gif","","","","",""
"","null","html-keyboard-response","72","269726","0.0-19.0-0.4","SS1619740209264","","","null","","","","","","<p><img src= images/blank.png width =""600"" height = ""600"" style=""position:fixed;top:50%; left:50%; transform: translate(-50%, -50%); border:5px solid black"">","","","","","","","",""
"","906.0000000026776","sequential-stimulus-presentation-old","73","271141","0.0-19.0-1.4","SS1619740209264","trial","","40","500","1406.0000000026776","images/stimuli/spore_stims/simple_01_A_b.gif","images/stimuli/spore_stims/simple_08_A_a.gif","forced_long","","5","simple_dissimilar","images/stimuli/spore_stims/simple_08_A_a.gif","","","","",""
"","null","html-keyboard-response","74","272168","0.0-19.0-0.5","SS1619740209264","","","null","","","","","","<p><img src= images/blank.png width =""600"" height = ""600"" style=""position:fixed;top:50%; left:50%; transform: translate(-50%, -50%); border:5px solid black"">","","","","","","","",""
"","74.0700000023935","sequential-stimulus-presentation-old","75","272751","0.0-19.0-1.5","SS1619740209264","trial","","40","500","574.0700000023935","images/stimuli/spore_stims/simple_01_A_b.gif","images/stimuli/spore_stims/simple_08_A_a.gif","forced_long","","5","simple_dissimilar","images/stimuli/spore_stims/simple_08_A_a.gif","","","","",""
"","4870.645000002696","survey-multi-choice","76","277627","0.0-20.0","SS1619740209264","math_question","","","","","","","","","","","","{""Q0"":""11""}","[0]","11","",""
"","null","html-keyboard-response","77","278524","0.0-21.0-0.0","SS1619740209264","","","null","","","","","","<p><img src= images/blank.png width =""600"" height = ""600"" style=""position:fixed;top:50%; left:50%; transform: translate(-50%, -50%); border:5px solid black"">","","","","","","","",""
"","3610.65500001132","sequential-stimulus-presentation-old","78","282647","0.0-21.0-1.0","SS1619740209264","trial","","40","500","4110.65500001132","images/stimuli/spore_stims/complex_14_A_a.gif","images/stimuli/spore_stims/complex_16_A_b.gif","self_paced","","6","complex_dissimilar","images/stimuli/spore_stims/complex_16_A_b.gif","","","","",""
"","null","html-keyboard-response","79","283520","0.0-21.0-0.1","SS1619740209264","","","null","","","","","","<p><img src= images/blank.png width =""600"" height = ""600"" style=""position:fixed;top:50%; left:50%; transform: translate(-50%, -50%); border:5px solid black"">","","","","","","","",""
"","795.4100000060862","sequential-stimulus-presentation-old","80","284831","0.0-21.0-1.1","SS1619740209264","trial","","40","500","1295.4100000060862","images/stimuli/spore_stims/complex_14_A_a.gif","images/stimuli/spore_stims/complex_16_A_b.gif","self_paced","","6","complex_dissimilar","images/stimuli/spore_stims/complex_16_A_b.gif","","","","",""
"","null","html-keyboard-response","81","285815","0.0-21.0-0.2","SS1619740209264","","","null","","","","","","<p><img src= images/blank.png width =""600"" height = ""600"" style=""position:fixed;top:50%; left:50%; transform: translate(-50%, -50%); border:5px solid black"">","","","","","","","",""
"","1024.6750000078464","sequential-stimulus-presentation-old","82","287346","0.0-21.0-1.2","SS1619740209264","trial","","40","500","1524.6750000078464","images/stimuli/spore_stims/complex_14_A_a.gif","images/stimuli/spore_stims/complex_16_A_b.gif","self_paced","","6","complex_dissimilar","images/stimuli/spore_stims/complex_14_A_a.gif","","","","",""
"","null","html-keyboard-response","83","288482","0.0-21.0-0.3","SS1619740209264","","","null","","","","","","<p><img src= images/blank.png width =""600"" height = ""600"" style=""position:fixed;top:50%; left:50%; transform: translate(-50%, -50%); border:5px solid black"">","","","","","","","",""
"","1493.8450000045123","sequential-stimulus-presentation-old","84","290487","0.0-21.0-1.3","SS1619740209264","trial","","40","500","1993.8450000045123","images/stimuli/spore_stims/complex_14_A_a.gif","images/stimuli/spore_stims/complex_16_A_b.gif","self_paced","","6","complex_dissimilar","images/stimuli/spore_stims/complex_16_A_b.gif","","","","",""
"","null","html-keyboard-response","85","291703","0.0-21.0-0.4","SS1619740209264","","","null","","","","","","<p><img src= images/blank.png width =""600"" height = ""600"" style=""position:fixed;top:50%; left:50%; transform: translate(-50%, -50%); border:5px solid black"">","","","","","","","",""
"","276.16500000294764","sequential-stimulus-presentation-old","86","292489","0.0-21.0-1.4","SS1619740209264","trial","","40","500","776.1650000029476","images/stimuli/spore_stims/complex_14_A_a.gif","images/stimuli/spore_stims/complex_16_A_b.gif","self_paced","","6","complex_dissimilar","images/stimuli/spore_stims/complex_16_A_b.gif","","","","",""
"","null","html-keyboard-response","87","293725","0.0-21.0-0.5","SS1619740209264","","","null","","","","","","<p><img src= images/blank.png width =""600"" height = ""600"" style=""position:fixed;top:50%; left:50%; transform: translate(-50%, -50%); border:5px solid black"">","","","","","","","",""
"","500.9299999946961","sequential-stimulus-presentation-old","88","294734","0.0-21.0-1.5","SS1619740209264","trial","","40","500","1000.9299999946961","images/stimuli/spore_stims/complex_14_A_a.gif","images/stimuli/spore_stims/complex_16_A_b.gif","self_paced","","6","complex_dissimilar","images/stimuli/spore_stims/complex_16_A_b.gif","","","","",""
"","3946.200000005774","survey-multi-choice","89","298687","0.0-22.0","SS1619740209264","math_question","","","","","","","","","","","","{""Q0"":""7""}","[0]","7","",""
"","null","html-keyboard-response","90","299729","0.0-23.0-0.0","SS1619740209264","","","null","","","","","","<p><img src= images/blank.png width =""600"" height = ""600"" style=""position:fixed;top:50%; left:50%; transform: translate(-50%, -50%); border:5px solid black"">","","","","","","","",""
"","317.5399999890942","sequential-stimulus-presentation-old","91","300562","0.0-23.0-1.0","SS1619740209264","trial","","40","500","817.5399999890942","images/stimuli/spore_stims/simple_04_A_a.gif","images/stimuli/spore_stims/simple_07_A_b.gif","forced_short","","7","simple_dissimilar","images/stimuli/spore_stims/simple_07_A_b.gif","","","","",""
"","null","html-keyboard-response","92","301743","0.0-23.0-0.1","SS1619740209264","","","null","","","","","","<p><img src= images/blank.png width =""600"" height = ""600"" style=""position:fixed;top:50%; left:50%; transform: translate(-50%, -50%); border:5px solid black"">","","","","","","","",""
"","86.29999999538995","sequential-stimulus-presentation-old","93","302338","0.0-23.0-1.1","SS1619740209264","trial","","40","500","586.29999999539","images/stimuli/spore_stims/simple_04_A_a.gif","images/stimuli/spore_stims/simple_07_A_b.gif","forced_short","","7","simple_dissimilar","images/stimuli/spore_stims/simple_07_A_b.gif","","","","",""
"","null","html-keyboard-response","94","303369","0.0-23.0-0.2","SS1619740209264","","","null","","","","","","<p><img src= images/blank.png width =""600"" height = ""600"" style=""position:fixed;top:50%; left:50%; transform: translate(-50%, -50%); border:5px solid black"">","","","","","","","",""
"","928.4400000033202","sequential-stimulus-presentation-old","95","304805","0.0-23.0-1.2","SS1619740209264","trial","","40","500","1428.4400000033202","images/stimuli/spore_stims/simple_04_A_a.gif","images/stimuli/spore_stims/simple_07_A_b.gif","forced_short","","7","simple_dissimilar","images/stimuli/spore_stims/simple_04_A_a.gif","","","","",""
"","null","html-keyboard-response","96","305908","0.0-23.0-0.3","SS1619740209264","","","null","","","","","","<p><img src= images/blank.png width =""600"" height = ""600"" style=""position:fixed;top:50%; left:50%; transform: translate(-50%, -50%); border:5px solid black"">","","","","","","","",""
"","938.1250000005821","sequential-stimulus-presentation-old","97","307359","0.0-23.0-1.3","SS1619740209264","trial","","40","500","1438.125000000582","images/stimuli/spore_stims/simple_04_A_a.gif","images/stimuli/spore_stims/simple_07_A_b.gif","forced_short","","7","simple_dissimilar","images/stimuli/spore_stims/simple_07_A_b.gif","","","","",""
"","null","html-keyboard-response","98","308228","0.0-23.0-0.4","SS1619740209264","","","null","","","","","","<p><img src= images/blank.png width =""600"" height = ""600"" style=""position:fixed;top:50%; left:50%; transform: translate(-50%, -50%); border:5px solid black"">","","","","","","","",""
"","541.9799999945099","sequential-stimulus-presentation-old","99","309281","0.0-23.0-1.4","SS1619740209264","trial","","40","500","1041.9799999945099","images/stimuli/spore_stims/simple_04_A_a.gif","images/stimuli/spore_stims/simple_07_A_b.gif","forced_short","","7","simple_dissimilar","images/stimuli/spore_stims/simple_07_A_b.gif","","","","",""
"","3173.660000000382","survey-multi-choice","100","312462","0.0-24.0","SS1619740209264","math_question","","","","","","","","","","","","{""Q0"":""3""}","[0]","3","",""
"","null","html-keyboard-response","101","313712","0.0-25.0-0.0","SS1619740209264","","","null","","","","","","<p><img src= images/blank.png width =""600"" height = ""600"" style=""position:fixed;top:50%; left:50%; transform: translate(-50%, -50%); border:5px solid black"">","","","","","","","",""
"","2127.984999999171","sequential-stimulus-presentation-old","102","316354","0.0-25.0-1.0","SS1619740209264","trial","","40","500","2627.984999999171","images/stimuli/spore_stims/complex_09_A_a.gif","images/stimuli/spore_stims/complex_07_A_b.gif","forced_short","","8","complex_dissimilar","images/stimuli/spore_stims/complex_07_A_b.gif","","","","",""
"","null","html-keyboard-response","103","317517","0.0-25.0-0.1","SS1619740209264","","","null","","","","","","<p><img src= images/blank.png width =""600"" height = ""600"" style=""position:fixed;top:50%; left:50%; transform: translate(-50%, -50%); border:5px solid black"">","","","","","","","",""
"","470.68500000750646","sequential-stimulus-presentation-old","104","318504","0.0-25.0-1.1","SS1619740209264","trial","","40","500","970.6850000075065","images/stimuli/spore_stims/complex_09_A_a.gif","images/stimuli/spore_stims/complex_07_A_b.gif","forced_short","","8","complex_dissimilar","images/stimuli/spore_stims/complex_07_A_b.gif","","","","",""
"","null","html-keyboard-response","105","319601","0.0-25.0-0.2","SS1619740209264","","","null","","","","","","<p><img src= images/blank.png width =""600"" height = ""600"" style=""position:fixed;top:50%; left:50%; transform: translate(-50%, -50%); border:5px solid black"">","","","","","","","",""
"","985.6849999923725","sequential-stimulus-presentation-old","106","321098","0.0-25.0-1.2","SS1619740209264","trial","","40","500","1485.6849999923725","images/stimuli/spore_stims/complex_09_A_a.gif","images/stimuli/spore_stims/complex_07_A_b.gif","forced_short","","8","complex_dissimilar","images/stimuli/spore_stims/complex_07_A_b.gif","","","","",""
"","null","html-keyboard-response","107","321990","0.0-25.0-0.3","SS1619740209264","","","null","","","","","","<p><img src= images/blank.png width =""600"" height = ""600"" style=""position:fixed;top:50%; left:50%; transform: translate(-50%, -50%); border:5px solid black"">","","","","","","","",""
"","1284.270000003744","sequential-stimulus-presentation-old","108","323784","0.0-25.0-1.3","SS1619740209264","trial","","40","500","1784.270000003744","images/stimuli/spore_stims/complex_09_A_a.gif","images/stimuli/spore_stims/complex_07_A_b.gif","forced_short","","8","complex_dissimilar","images/stimuli/spore_stims/complex_07_A_b.gif","","","","",""
"","null","html-keyboard-response","109","324851","0.0-25.0-0.4","SS1619740209264","","","null","","","","","","<p><img src= images/blank.png width =""600"" height = ""600"" style=""position:fixed;top:50%; left:50%; transform: translate(-50%, -50%); border:5px solid black"">","","","","","","","",""
"","449.89499999792315","sequential-stimulus-presentation-old","110","325811","0.0-25.0-1.4","SS1619740209264","trial","","40","500","949.8949999979232","images/stimuli/spore_stims/complex_09_A_a.gif","images/stimuli/spore_stims/complex_07_A_b.gif","forced_short","","8","complex_dissimilar","images/stimuli/spore_stims/complex_07_A_b.gif","","","","",""
"","null","html-keyboard-response","111","326763","0.0-25.0-0.5","SS1619740209264","","","null","","","","","","<p><img src= images/blank.png width =""600"" height = ""600"" style=""position:fixed;top:50%; left:50%; transform: translate(-50%, -50%); border:5px solid black"">","","","","","","","",""
"","1047.5100000039674","sequential-stimulus-presentation-old","112","328325","0.0-25.0-1.5","SS1619740209264","trial","","40","500","1547.5100000039674","images/stimuli/spore_stims/complex_09_A_a.gif","images/stimuli/spore_stims/complex_07_A_b.gif","forced_short","","8","complex_dissimilar","images/stimuli/spore_stims/complex_07_A_b.gif","","","","",""
"","3209.470000001602","survey-multi-choice","113","331544","0.0-26.0","SS1619740209264","math_question","","","","","","","","","","","","{""Q0"":""10""}","[0]","10","",""
"","null","html-keyboard-response","114","332710","0.0-27.0-0.0","SS1619740209264","","","null","","","","","","<p><img src= images/blank.png width =""600"" height = ""600"" style=""position:fixed;top:50%; left:50%; transform: translate(-50%, -50%); border:5px solid black"">","","","","","","","",""
"","1379.2450000037206","sequential-stimulus-presentation-old","115","349102","0.0-27.0-1.0","SS1619740209264","trial","","40","500","1879.2450000037206","images/stimuli/spore_stims/complex_05_A_a.gif","images/stimuli/spore_stims/complex_01_A_b.gif","forced_long","","9","complex_dissimilar","images/stimuli/spore_stims/complex_01_A_b.gif","","","","",""
"","null","html-keyboard-response","116","350409","0.0-27.0-0.1","SS1619740209264","","","null","","","","","","<p><img src= images/blank.png width =""600"" height = ""600"" style=""position:fixed;top:50%; left:50%; transform: translate(-50%, -50%); border:5px solid black"">","","","","","","","",""
"","419.23999998834915","sequential-stimulus-presentation-old","117","351341","0.0-27.0-1.1","SS1619740209264","trial","","40","500","919.2399999883492","images/stimuli/spore_stims/complex_05_A_a.gif","images/stimuli/spore_stims/complex_01_A_b.gif","forced_long","","9","complex_dissimilar","images/stimuli/spore_stims/complex_01_A_b.gif","","","","",""
"","null","html-keyboard-response","118","352429","0.0-27.0-0.2","SS1619740209264","","","null","","","","","","<p><img src= images/blank.png width =""600"" height = ""600"" style=""position:fixed;top:50%; left:50%; transform: translate(-50%, -50%); border:5px solid black"">","","","","","","","",""
"","1377.3649999930058","sequential-stimulus-presentation-old","119","354320","0.0-27.0-1.2","SS1619740209264","trial","","40","500","1877.3649999930058","images/stimuli/spore_stims/complex_05_A_a.gif","images/stimuli/spore_stims/complex_01_A_b.gif","forced_long","","9","complex_dissimilar","images/stimuli/spore_stims/complex_01_A_b.gif","","","","",""
"","null","html-keyboard-response","120","355180","0.0-27.0-0.3","SS1619740209264","","","null","","","","","","<p><img src= images/blank.png width =""600"" height = ""600"" style=""position:fixed;top:50%; left:50%; transform: translate(-50%, -50%); border:5px solid black"">","","","","","","","",""
"","1785.3999999933876","sequential-stimulus-presentation-old","121","357478","0.0-27.0-1.3","SS1619740209264","trial","","40","500","2285.3999999933876","images/stimuli/spore_stims/complex_05_A_a.gif","images/stimuli/spore_stims/complex_01_A_b.gif","forced_long","","9","complex_dissimilar","images/stimuli/spore_stims/complex_05_A_a.gif","","","","",""
"","2867.9899999988265","survey-multi-choice","122","360353","0.0-28.0","SS1619740209264","math_question","","","","","","","","","","","","{""Q0"":""10""}","[0]","10","",""
"","null","html-keyboard-response","123","361253","0.0-29.0-0.0","SS1619740209264","","","null","","","","","","<p><img src= images/blank.png width =""600"" height = ""600"" style=""position:fixed;top:50%; left:50%; transform: translate(-50%, -50%); border:5px solid black"">","","","","","","","",""
"","2353.804999991553","sequential-stimulus-presentation-old","124","364119","0.0-29.0-1.0","SS1619740209264","trial","","40","500","2853.804999991553","images/stimuli/spore_stims/simple_08_A_b.gif","images/stimuli/spore_stims/simple_17_A_a.gif","self_paced","","10","simple_dissimilar","images/stimuli/spore_stims/simple_17_A_a.gif","","","","",""
"","null","html-keyboard-response","125","365377","0.0-29.0-0.1","SS1619740209264","","","null","","","","","","<p><img src= images/blank.png width =""600"" height = ""600"" style=""position:fixed;top:50%; left:50%; transform: translate(-50%, -50%); border:5px solid black"">","","","","","","","",""
"","5859.890000006999","sequential-stimulus-presentation-old","126","371748","0.0-29.0-1.1","SS1619740209264","trial","","40","500","6359.890000006999","images/stimuli/spore_stims/simple_08_A_b.gif","images/stimuli/spore_stims/simple_17_A_a.gif","self_paced","","10","simple_dissimilar","images/stimuli/spore_stims/simple_17_A_a.gif","","","","",""
"","null","html-keyboard-response","127","372974","0.0-29.0-0.2","SS1619740209264","","","null","","","","","","<p><img src= images/blank.png width =""600"" height = ""600"" style=""position:fixed;top:50%; left:50%; transform: translate(-50%, -50%); border:5px solid black"">","","","","","","","",""
"","2017.6050000009127","sequential-stimulus-presentation-old","128","375504","0.0-29.0-1.2","SS1619740209264","trial","","40","500","2517.6050000009127","images/stimuli/spore_stims/simple_08_A_b.gif","images/stimuli/spore_stims/simple_17_A_a.gif","self_paced","","10","simple_dissimilar","images/stimuli/spore_stims/simple_17_A_a.gif","","","","",""
"","null","html-keyboard-response","129","376512","0.0-29.0-0.3","SS1619740209264","","","null","","","","","","<p><img src= images/blank.png width =""600"" height = ""600"" style=""position:fixed;top:50%; left:50%; transform: translate(-50%, -50%); border:5px solid black"">","","","","","","","",""
"","126.63500000780914","sequential-stimulus-presentation-old","130","377150","0.0-29.0-1.3","SS1619740209264","trial","","40","500","626.6350000078091","images/stimuli/spore_stims/simple_08_A_b.gif","images/stimuli/spore_stims/simple_17_A_a.gif","self_paced","","10","simple_dissimilar","images/stimuli/spore_stims/simple_17_A_a.gif","","","","",""
"","null","html-keyboard-response","131","378124","0.0-29.0-0.4","SS1619740209264","","","null","","","","","","<p><img src= images/blank.png width =""600"" height = ""600"" style=""position:fixed;top:50%; left:50%; transform: translate(-50%, -50%); border:5px solid black"">","","","","","","","",""
"","257.0300000079442","sequential-stimulus-presentation-old","132","378892","0.0-29.0-1.4","SS1619740209264","trial","","40","500","757.0300000079442","images/stimuli/spore_stims/simple_08_A_b.gif","images/stimuli/spore_stims/simple_17_A_a.gif","self_paced","","10","simple_dissimilar","images/stimuli/spore_stims/simple_08_A_b.gif","","","","",""
"","3655.590000009397","survey-multi-choice","133","382559","0.0-30.0","SS1619740209264","math_question","","","","","","","","","","","","{""Q0"":""7""}","[0]","7","",""
"","null","html-keyboard-response","134","383714","0.0-31.0-0.0","SS1619740209264","","","null","","","","","","<p><img src= images/blank.png width =""600"" height = ""600"" style=""position:fixed;top:50%; left:50%; transform: translate(-50%, -50%); border:5px solid black"">","","","","","","","",""
"","871.5050000027986","sequential-stimulus-presentation-old","135","385100","0.0-31.0-1.0","SS1619740209264","trial","","40","500","1371.5050000027986","images/stimuli/spore_stims/complex_06_A_a.gif","images/stimuli/spore_stims/complex_09_A_b.gif","self_paced","","11","complex_dissimilar","images/stimuli/spore_stims/complex_09_A_b.gif","","","","",""
"","null","html-keyboard-response","136","386235","0.0-31.0-0.1","SS1619740209264","","","null","","","","","","<p><img src= images/blank.png width =""600"" height = ""600"" style=""position:fixed;top:50%; left:50%; transform: translate(-50%, -50%); border:5px solid black"">","","","","","","","",""
"","618.3699999965029","sequential-stimulus-presentation-old","137","387363","0.0-31.0-1.1","SS1619740209264","trial","","40","500","1118.3699999965029","images/stimuli/spore_stims/complex_06_A_a.gif","images/stimuli/spore_stims/complex_09_A_b.gif","self_paced","","11","complex_dissimilar","images/stimuli/spore_stims/complex_09_A_b.gif","","","","",""
"","null","html-keyboard-response","138","388251","0.0-31.0-0.2","SS1619740209264","","","null","","","","","","<p><img src= images/blank.png width =""600"" height = ""600"" style=""position:fixed;top:50%; left:50%; transform: translate(-50%, -50%); border:5px solid black"">","","","","","","","",""
"","835.6149999890476","sequential-stimulus-presentation-old","139","389599","0.0-31.0-1.2","SS1619740209264","trial","","40","500","1335.6149999890476","images/stimuli/spore_stims/complex_06_A_a.gif","images/stimuli/spore_stims/complex_09_A_b.gif","self_paced","","11","complex_dissimilar","images/stimuli/spore_stims/complex_09_A_b.gif","","","","",""
"","null","html-keyboard-response","140","390765","0.0-31.0-0.3","SS1619740209264","","","null","","","","","","<p><img src= images/blank.png width =""600"" height = ""600"" style=""position:fixed;top:50%; left:50%; transform: translate(-50%, -50%); border:5px solid black"">","","","","","","","",""
"","970.5199999880278","sequential-stimulus-presentation-old","141","392248","0.0-31.0-1.3","SS1619740209264","trial","","40","500","1470.5199999880278","images/stimuli/spore_stims/complex_06_A_a.gif","images/stimuli/spore_stims/complex_09_A_b.gif","self_paced","","11","complex_dissimilar","images/stimuli/spore_stims/complex_09_A_b.gif","","","","",""
"","null","html-keyboard-response","142","393177","0.0-31.0-0.4","SS1619740209264","","","null","","","","","","<p><img src= images/blank.png width =""600"" height = ""600"" style=""position:fixed;top:50%; left:50%; transform: translate(-50%, -50%); border:5px solid black"">","","","","","","","",""
"","1345.0799999991432","sequential-stimulus-presentation-old","143","395036","0.0-31.0-1.4","SS1619740209264","trial","","40","500","1845.0799999991432","images/stimuli/spore_stims/complex_06_A_a.gif","images/stimuli/spore_stims/complex_09_A_b.gif","self_paced","","11","complex_dissimilar","images/stimuli/spore_stims/complex_09_A_b.gif","","","","",""
"[{""page_index"":0,""viewing_time"":5638.5299999965355}]","5638.974999994389","instructions","144","400681","0.0-32.0","SS1619740209264","instructions","","","","","","","","","","","","","","","",""
"","5907.270000010612","survey-likert","145","406595","0.0-33.0","SS1619740209264","similarity_question","","","","","","","","","","","","{""Q0"":5}","[0]","","images/stimuli/spore_stims/simple_01_A_b.gif","images/stimuli/spore_stims/simple_08_A_a.gif"
"","5075.709999990067","survey-likert","146","411682","0.0-34.0","SS1619740209264","similarity_question","","","","","","","","","","","","{""Q0"":4}","[0]","","images/stimuli/spore_stims/simple_07_A_b.gif","images/stimuli/spore_stims/simple_04_A_a.gif"
"","12392.015000004903","survey-likert","147","424085","0.0-35.0","SS1619740209264","similarity_question","","","","","","","","","","","","{""Q0"":2}","[0]","","images/stimuli/spore_stims/complex_14_A_b.gif","images/stimuli/spore_stims/complex_08_A_a.gif"
"","4746.585000000778","survey-likert","148","428843","0.0-36.0","SS1619740209264","similarity_question","","","","","","","","","","","","{""Q0"":3}","[0]","","images/stimuli/spore_stims/simple_11_A_b.gif","images/stimuli/spore_stims/simple_07_A_a.gif"
"","6635.72999999451","survey-likert","149","435490","0.0-37.0","SS1619740209264","similarity_question","","","","","","","","","","","","{""Q0"":0}","[0]","","images/stimuli/spore_stims/complex_05_A_b.gif","images/stimuli/spore_stims/complex_04_A_a.gif"
"","6858.42999999295","survey-likert","150","442359","0.0-38.0","SS1619740209264","similarity_question","","","","","","","","","","","","{""Q0"":1}","[0]","","images/stimuli/spore_stims/complex_07_A_b.gif","images/stimuli/spore_stims/complex_09_A_a.gif"
"","5336.53499999491","survey-likert","151","447708","0.0-39.0","SS1619740209264","similarity_question","","","","","","","","","","","","{""Q0"":5}","[0]","","images/stimuli/spore_stims/simple_13_A_a.gif","images/stimuli/spore_stims/simple_10_A_b.gif"
"","3419.865000003483","survey-likert","152","451140","0.0-40.0","SS1619740209264","similarity_question","","","","","","","","","","","","{""Q0"":5}","[0]","","images/stimuli/spore_stims/simple_08_A_b.gif","images/stimuli/spore_stims/simple_17_A_a.gif"
"","5259.500000000116","survey-likert","153","456409","0.0-41.0","SS1619740209264","similarity_question","","","","","","","","","","","","{""Q0"":1}","[0]","","images/stimuli/spore_stims/complex_09_A_b.gif","images/stimuli/spore_stims/complex_06_A_a.gif"
"","5763.005000000703","survey-likert","154","462184","0.0-42.0","SS1619740209264","similarity_question","","","","","","","","","","","","{""Q0"":1}","[0]","","images/stimuli/spore_stims/complex_16_A_b.gif","images/stimuli/spore_stims/complex_14_A_a.gif"
"","7566.725000011502","survey-likert","155","469761","0.0-43.0","SS1619740209264","similarity_question","","","","","","","","","","","","{""Q0"":2}","[0]","","images/stimuli/spore_stims/complex_05_A_a.gif","images/stimuli/spore_stims/complex_01_A_b.gif"
"","4243.610000004992","survey-likert","156","474015","0.0-44.0","SS1619740209264","similarity_question","","","","","","","","","","","","{""Q0"":5}","[0]","","images/stimuli/spore_stims/simple_13_A_b.gif","images/stimuli/spore_stims/simple_03_A_a.gif"
"[{""page_index"":0,""viewing_time"":4670.7150000002}]","4671.149999994668","instructions","157","478695","0.0-45.0","SS1619740209264","instructions","","","","","","","","","","","","","","","",""
"","3658.244999998715","survey-likert","158","482358","0.0-46.0","SS1619740209264","","","","","","","","","images/stimuli/spore_stims/complex_14_A_b.gif","","","","{""Q0"":6}","[0]","","",""
"","7032.2850000084145","survey-likert","159","489402","0.0-47.0","SS1619740209264","","","","","","","","","images/stimuli/spore_stims/simple_07_A_b.gif","","","","{""Q0"":1}","[0]","","",""
"","3497.205000006943","survey-likert","160","492910","0.0-48.0","SS1619740209264","","","","","","","","","images/stimuli/spore_stims/complex_01_A_b.gif","","","","{""Q0"":5}","[0]","","",""
"","4686.350000003586","survey-likert","161","497610","0.0-49.0","SS1619740209264","","","","","","","","","images/stimuli/spore_stims/complex_09_A_b.gif","","","","{""Q0"":5}","[0]","","",""
"","3166.0249999986263","survey-likert","162","500788","0.0-50.0","SS1619740209264","","","","","","","","","images/stimuli/spore_stims/simple_13_A_b.gif","","","","{""Q0"":0}","[0]","","",""
"","2916.2800000049174","survey-likert","163","503713","0.0-51.0","SS1619740209264","","","","","","","","","images/stimuli/spore_stims/simple_07_A_a.gif","","","","{""Q0"":1}","[0]","","",""
"","3146.8299999978626","survey-likert","164","506872","0.0-52.0","SS1619740209264","","","","","","","","","images/stimuli/spore_stims/simple_10_A_b.gif","","","","{""Q0"":1}","[0]","","",""
"","3979.7899999975925","survey-likert","165","510864","0.0-53.0","SS1619740209264","","","","","","","","","images/stimuli/spore_stims/simple_17_A_a.gif","","","","{""Q0"":1}","[0]","","",""
"","3477.5100000115344","survey-likert","166","514353","0.0-54.0","SS1619740209264","","","","","","","","","images/stimuli/spore_stims/complex_16_A_b.gif","","","","{""Q0"":6}","[0]","","",""
"","4357.770000002347","survey-likert","167","518723","0.0-55.0","SS1619740209264","","","","","","","","","images/stimuli/spore_stims/simple_08_A_a.gif","","","","{""Q0"":0}","[0]","","",""
"","3729.42500001227","survey-likert","168","522462","0.0-56.0","SS1619740209264","","","","","","","","","images/stimuli/spore_stims/complex_09_A_a.gif","","","","{""Q0"":5}","[0]","","",""
"","3631.485000005341","survey-likert","169","526105","0.0-57.0","SS1619740209264","","","","","","","","","images/stimuli/spore_stims/complex_04_A_a.gif","","","","{""Q0"":5}","[0]","","",""
"[{""page_index"":0,""viewing_time"":2800.8349999872735}]","2801.224999988335","instructions","170","528915","0.0-58.0","SS1619740209264","instructions","","","","","","","","","","","","","","","",""
"","3478.384999994887","demog-age","171","532403","0.0-59.0","SS1619740209264","","","","","","","","","","","","","{""age"":""26""}","","","",""
"","4419.009999997797","demog-ethnic-US","172","536832","0.0-60.0","SS1619740209264","","","","","","","","","","","","","{""ethnicity"":[""Hispanic or Latino""]}","[0]","","",""
"","8118.109999995795","demog-gender-and-education","173","544961","0.0-61.0","SS1619740209264","","","","","","","","","","","","","{""gender"":""Female"",""education"":""Bachelor's Degree""}","[0,1]","","",""
"","20299.455000000307","survey-text","174","565274","0.0-62.0","SS1619740209264","feedback","","","","","","","","","","","","{""Q0"":""It was laggy and the keyboard reaction was low""}","","","",""
"[{""page_index"":0,""viewing_time"":1739.449999993667}]","1740.189999996801","instructions","175","567018","0.0-63.0","SS1619740209264","instructions","","","","","","","","","","","","","","","",""
