"view_history","rt","trial_type","trial_index","time_elapsed","internal_node_id","subject","stimulus_type","trial_stimulus","key_press","minimum_viewing_duration","trial_looking_time","block_deviant","block_background","exposure_type","stimulus","block_number","block_type","stimulus_displayed","responses","question_order","math_correct_answer","stimulus_left","stimulus_right"
"[{""page_index"":0,""viewing_time"":1520011.665}]","1520012.1049999997","instructions","0","1520015","0.0-0.0","SS1619739821646","","","","","","","","","","","","","","","","",""
"[{""page_index"":0,""viewing_time"":23080.66999999946},{""page_index"":1,""viewing_time"":7814.8199999995995}]","30895.79500000039","instructions","1","1552918","0.0-1.0","SS1619739821646","instructions","","","","","","","","","","","","","","","",""
"","9055.640000000596","sequential-stimulus-presentation-old","2","1562480","0.0-2.0","SS1619739821646","","","40","500","9555.640000000596","null","null","self_paced","","","","","","","","",""
"","4411.630000000587","sequential-stimulus-presentation-old","3","1567398","0.0-3.0","SS1619739821646","","","40","500","4911.630000000587","null","null","self_paced","","","","","","","","",""
"[{""page_index"":0,""viewing_time"":16269.925000000512}]","16270.220000000438","instructions","4","1583670","0.0-4.0","SS1619739821646","instructions","","","","","","","","","","","","","","","",""
"","280.0649999990128","sequential-stimulus-presentation-old","5","1598957","0.0-5.0","SS1619739821646","","","40","500","780.0649999990128","null","null","forced_long","","","","","","","","",""
"","759.1800000008661","sequential-stimulus-presentation-old","6","1600222","0.0-6.0","SS1619739821646","","","40","500","1259.1800000008661","null","null","forced_long","","","","","","","","",""
"[{""page_index"":0,""viewing_time"":20581.264999998966}]","20581.854999998584","instructions","7","1620807","0.0-7.0","SS1619739821646","instructions","","","","","","","","","","","","","","","",""
"[{""page_index"":0,""viewing_time"":9452.264999999898},{""page_index"":1,""viewing_time"":10143.919999998761},{""page_index"":2,""viewing_time"":12032.065000001108},{""page_index"":3,""viewing_time"":1552.1099999987055},{""page_index"":4,""viewing_time"":1095.8400000000838}]","34276.84999999846","instructions","8","1655087","0.0-8.0","SS1619739821646","instructions","","","","","","","","","","","","","","","",""
"","null","html-keyboard-response","9","1656304","0.0-9.0-0.0","SS1619739821646","","","null","","","","","","<p><img src= images/blank.png width =""600"" height = ""600"" style=""position:fixed;top:50%; left:50%; transform: translate(-50%, -50%); border:5px solid black"">","","","","","","","",""
"","7096.51999999932","sequential-stimulus-presentation-old","10","1663928","0.0-9.0-1.0","SS1619739821646","trial","","40","500","7596.51999999932","images/stimuli/spore_stims/complex_12_A_a.gif","images/stimuli/spore_stims/complex_11_A_b.gif","self_paced","","0","complex_dissimilar","images/stimuli/spore_stims/complex_11_A_b.gif","","","","",""
"","null","html-keyboard-response","11","1665061","0.0-9.0-0.1","SS1619739821646","","","null","","","","","","<p><img src= images/blank.png width =""600"" height = ""600"" style=""position:fixed;top:50%; left:50%; transform: translate(-50%, -50%); border:5px solid black"">","","","","","","","",""
"","11192.549999999814","sequential-stimulus-presentation-old","12","1676759","0.0-9.0-1.1","SS1619739821646","trial","","40","500","11692.549999999814","images/stimuli/spore_stims/complex_12_A_a.gif","images/stimuli/spore_stims/complex_11_A_b.gif","self_paced","","0","complex_dissimilar","images/stimuli/spore_stims/complex_11_A_b.gif","","","","",""
"","null","html-keyboard-response","13","1677955","0.0-9.0-0.2","SS1619739821646","","","null","","","","","","<p><img src= images/blank.png width =""600"" height = ""600"" style=""position:fixed;top:50%; left:50%; transform: translate(-50%, -50%); border:5px solid black"">","","","","","","","",""
"","7992.800000000047","sequential-stimulus-presentation-old","14","1686454","0.0-9.0-1.2","SS1619739821646","trial","","40","500","8492.800000000047","images/stimuli/spore_stims/complex_12_A_a.gif","images/stimuli/spore_stims/complex_11_A_b.gif","self_paced","","0","complex_dissimilar","images/stimuli/spore_stims/complex_12_A_a.gif","","","","",""
"","null","html-keyboard-response","15","1687483","0.0-9.0-0.3","SS1619739821646","","","null","","","","","","<p><img src= images/blank.png width =""600"" height = ""600"" style=""position:fixed;top:50%; left:50%; transform: translate(-50%, -50%); border:5px solid black"">","","","","","","","",""
"","4683.589999998687","sequential-stimulus-presentation-old","16","1692673","0.0-9.0-1.3","SS1619739821646","trial","","40","500","5183.589999998687","images/stimuli/spore_stims/complex_12_A_a.gif","images/stimuli/spore_stims/complex_11_A_b.gif","self_paced","","0","complex_dissimilar","images/stimuli/spore_stims/complex_11_A_b.gif","","","","",""
"","null","html-keyboard-response","17","1693501","0.0-9.0-0.4","SS1619739821646","","","null","","","","","","<p><img src= images/blank.png width =""600"" height = ""600"" style=""position:fixed;top:50%; left:50%; transform: translate(-50%, -50%); border:5px solid black"">","","","","","","","",""
"","6247.470000000438","sequential-stimulus-presentation-old","18","1700254","0.0-9.0-1.4","SS1619739821646","trial","","40","500","6747.470000000438","images/stimuli/spore_stims/complex_12_A_a.gif","images/stimuli/spore_stims/complex_11_A_b.gif","self_paced","","0","complex_dissimilar","images/stimuli/spore_stims/complex_11_A_b.gif","","","","",""
"","null","html-keyboard-response","19","1701149","0.0-9.0-0.5","SS1619739821646","","","null","","","","","","<p><img src= images/blank.png width =""600"" height = ""600"" style=""position:fixed;top:50%; left:50%; transform: translate(-50%, -50%); border:5px solid black"">","","","","","","","",""
"","3443.354999999283","sequential-stimulus-presentation-old","20","1705103","0.0-9.0-1.5","SS1619739821646","trial","","40","500","3943.354999999283","images/stimuli/spore_stims/complex_12_A_a.gif","images/stimuli/spore_stims/complex_11_A_b.gif","self_paced","","0","complex_dissimilar","images/stimuli/spore_stims/complex_12_A_a.gif","","","","",""
"","3833.9650000017136","survey-multi-choice","21","1708943","0.0-10.0","SS1619739821646","math_question","","","","","","","","","","","","{""Q0"":""8""}","[0]","8","",""
"","null","html-keyboard-response","22","1710063","0.0-11.0-0.0","SS1619739821646","","","null","","","","","","<p><img src= images/blank.png width =""600"" height = ""600"" style=""position:fixed;top:50%; left:50%; transform: translate(-50%, -50%); border:5px solid black"">","","","","","","","",""
"","3877.225000000326","sequential-stimulus-presentation-old","23","1714447","0.0-11.0-1.0","SS1619739821646","trial","","40","500","4377.225000000326","images/stimuli/spore_stims/simple_17_A_b.gif","images/stimuli/spore_stims/simple_01_A_a.gif","self_paced","","1","simple_dissimilar","images/stimuli/spore_stims/simple_01_A_a.gif","","","","",""
"","null","html-keyboard-response","24","1715598","0.0-11.0-0.1","SS1619739821646","","","null","","","","","","<p><img src= images/blank.png width =""600"" height = ""600"" style=""position:fixed;top:50%; left:50%; transform: translate(-50%, -50%); border:5px solid black"">","","","","","","","",""
"","5069.269999999786","sequential-stimulus-presentation-old","25","1721176","0.0-11.0-1.1","SS1619739821646","trial","","40","500","5569.269999999786","images/stimuli/spore_stims/simple_17_A_b.gif","images/stimuli/spore_stims/simple_01_A_a.gif","self_paced","","1","simple_dissimilar","images/stimuli/spore_stims/simple_17_A_b.gif","","","","",""
"","null","html-keyboard-response","26","1722142","0.0-11.0-0.2","SS1619739821646","","","null","","","","","","<p><img src= images/blank.png width =""600"" height = ""600"" style=""position:fixed;top:50%; left:50%; transform: translate(-50%, -50%); border:5px solid black"">","","","","","","","",""
"","2799.639999999199","sequential-stimulus-presentation-old","27","1725454","0.0-11.0-1.2","SS1619739821646","trial","","40","500","3299.639999999199","images/stimuli/spore_stims/simple_17_A_b.gif","images/stimuli/spore_stims/simple_01_A_a.gif","self_paced","","1","simple_dissimilar","images/stimuli/spore_stims/simple_01_A_a.gif","","","","",""
"","null","html-keyboard-response","28","1726548","0.0-11.0-0.3","SS1619739821646","","","null","","","","","","<p><img src= images/blank.png width =""600"" height = ""600"" style=""position:fixed;top:50%; left:50%; transform: translate(-50%, -50%); border:5px solid black"">","","","","","","","",""
"","3734.304999999935","sequential-stimulus-presentation-old","29","1730829","0.0-11.0-1.3","SS1619739821646","trial","","40","500","4234.304999999935","images/stimuli/spore_stims/simple_17_A_b.gif","images/stimuli/spore_stims/simple_01_A_a.gif","self_paced","","1","simple_dissimilar","images/stimuli/spore_stims/simple_01_A_a.gif","","","","",""
"","null","html-keyboard-response","30","1731891","0.0-11.0-0.4","SS1619739821646","","","null","","","","","","<p><img src= images/blank.png width =""600"" height = ""600"" style=""position:fixed;top:50%; left:50%; transform: translate(-50%, -50%); border:5px solid black"">","","","","","","","",""
"","3512.9149999993388","sequential-stimulus-presentation-old","31","1735917","0.0-11.0-1.4","SS1619739821646","trial","","40","500","4012.9149999993388","images/stimuli/spore_stims/simple_17_A_b.gif","images/stimuli/spore_stims/simple_01_A_a.gif","self_paced","","1","simple_dissimilar","images/stimuli/spore_stims/simple_01_A_a.gif","","","","",""
"","3013.9600000001956","survey-multi-choice","32","1738934","0.0-12.0","SS1619739821646","math_question","","","","","","","","","","","","{""Q0"":""13""}","[0]","13","",""
"","null","html-keyboard-response","33","1740130","0.0-13.0-0.0","SS1619739821646","","","null","","","","","","<p><img src= images/blank.png width =""600"" height = ""600"" style=""position:fixed;top:50%; left:50%; transform: translate(-50%, -50%); border:5px solid black"">","","","","","","","",""
"","666.4949999994133","sequential-stimulus-presentation-old","34","1755806","0.0-13.0-1.0","SS1619739821646","trial","","40","500","1166.4949999994133","images/stimuli/spore_stims/simple_11_A_b.gif","images/stimuli/spore_stims/simple_16_A_a.gif","forced_long","","2","simple_dissimilar","images/stimuli/spore_stims/simple_16_A_a.gif","","","","",""
"","null","html-keyboard-response","35","1756944","0.0-13.0-0.1","SS1619739821646","","","null","","","","","","<p><img src= images/blank.png width =""600"" height = ""600"" style=""position:fixed;top:50%; left:50%; transform: translate(-50%, -50%); border:5px solid black"">","","","","","","","",""
"","4947.215000000084","sequential-stimulus-presentation-old","36","1762398","0.0-13.0-1.1","SS1619739821646","trial","","40","500","5447.215000000084","images/stimuli/spore_stims/simple_11_A_b.gif","images/stimuli/spore_stims/simple_16_A_a.gif","forced_long","","2","simple_dissimilar","images/stimuli/spore_stims/simple_16_A_a.gif","","","","",""
"","null","html-keyboard-response","37","1763548","0.0-13.0-0.2","SS1619739821646","","","null","","","","","","<p><img src= images/blank.png width =""600"" height = ""600"" style=""position:fixed;top:50%; left:50%; transform: translate(-50%, -50%); border:5px solid black"">","","","","","","","",""
"","4535.495000000112","sequential-stimulus-presentation-old","38","1768590","0.0-13.0-1.2","SS1619739821646","trial","","40","500","5035.495000000112","images/stimuli/spore_stims/simple_11_A_b.gif","images/stimuli/spore_stims/simple_16_A_a.gif","forced_long","","2","simple_dissimilar","images/stimuli/spore_stims/simple_16_A_a.gif","","","","",""
"","null","html-keyboard-response","39","1769613","0.0-13.0-0.3","SS1619739821646","","","null","","","","","","<p><img src= images/blank.png width =""600"" height = ""600"" style=""position:fixed;top:50%; left:50%; transform: translate(-50%, -50%); border:5px solid black"">","","","","","","","",""
"","3242.409999998985","sequential-stimulus-presentation-old","40","1773366","0.0-13.0-1.3","SS1619739821646","trial","","40","500","3742.409999998985","images/stimuli/spore_stims/simple_11_A_b.gif","images/stimuli/spore_stims/simple_16_A_a.gif","forced_long","","2","simple_dissimilar","images/stimuli/spore_stims/simple_11_A_b.gif","","","","",""
"","null","html-keyboard-response","41","1774523","0.0-13.0-0.4","SS1619739821646","","","null","","","","","","<p><img src= images/blank.png width =""600"" height = ""600"" style=""position:fixed;top:50%; left:50%; transform: translate(-50%, -50%); border:5px solid black"">","","","","","","","",""
"","4521.889999999898","sequential-stimulus-presentation-old","42","1779549","0.0-13.0-1.4","SS1619739821646","trial","","40","500","5021.889999999898","images/stimuli/spore_stims/simple_11_A_b.gif","images/stimuli/spore_stims/simple_16_A_a.gif","forced_long","","2","simple_dissimilar","images/stimuli/spore_stims/simple_16_A_a.gif","","","","",""
"","null","html-keyboard-response","43","1780489","0.0-13.0-0.5","SS1619739821646","","","null","","","","","","<p><img src= images/blank.png width =""600"" height = ""600"" style=""position:fixed;top:50%; left:50%; transform: translate(-50%, -50%); border:5px solid black"">","","","","","","","",""
"","3919.1949999984354","sequential-stimulus-presentation-old","44","1784918","0.0-13.0-1.5","SS1619739821646","trial","","40","500","4419.194999998435","images/stimuli/spore_stims/simple_11_A_b.gif","images/stimuli/spore_stims/simple_16_A_a.gif","forced_long","","2","simple_dissimilar","images/stimuli/spore_stims/simple_11_A_b.gif","","","","",""
"","2787.849999998696","survey-multi-choice","45","1787710","0.0-14.0","SS1619739821646","math_question","","","","","","","","","","","","{""Q0"":""15""}","[0]","15","",""
"","null","html-keyboard-response","46","1788960","0.0-15.0-0.0","SS1619739821646","","","null","","","","","","<p><img src= images/blank.png width =""600"" height = ""600"" style=""position:fixed;top:50%; left:50%; transform: translate(-50%, -50%); border:5px solid black"">","","","","","","","",""
"","3112.3649999990594","sequential-stimulus-presentation-old","47","1792582","0.0-15.0-1.0","SS1619739821646","trial","","40","500","3612.3649999990594","images/stimuli/spore_stims/complex_16_A_a.gif","images/stimuli/spore_stims/complex_12_A_b.gif","self_paced","","3","complex_dissimilar","images/stimuli/spore_stims/complex_12_A_b.gif","","","","",""
"","null","html-keyboard-response","48","1793724","0.0-15.0-0.1","SS1619739821646","","","null","","","","","","<p><img src= images/blank.png width =""600"" height = ""600"" style=""position:fixed;top:50%; left:50%; transform: translate(-50%, -50%); border:5px solid black"">","","","","","","","",""
"","1791.035000000149","sequential-stimulus-presentation-old","49","1796030","0.0-15.0-1.1","SS1619739821646","trial","","40","500","2291.035000000149","images/stimuli/spore_stims/complex_16_A_a.gif","images/stimuli/spore_stims/complex_12_A_b.gif","self_paced","","3","complex_dissimilar","images/stimuli/spore_stims/complex_12_A_b.gif","","","","",""
"","null","html-keyboard-response","50","1796898","0.0-15.0-0.2","SS1619739821646","","","null","","","","","","<p><img src= images/blank.png width =""600"" height = ""600"" style=""position:fixed;top:50%; left:50%; transform: translate(-50%, -50%); border:5px solid black"">","","","","","","","",""
"","3453.954999999143","sequential-stimulus-presentation-old","51","1800861","0.0-15.0-1.2","SS1619739821646","trial","","40","500","3953.954999999143","images/stimuli/spore_stims/complex_16_A_a.gif","images/stimuli/spore_stims/complex_12_A_b.gif","self_paced","","3","complex_dissimilar","images/stimuli/spore_stims/complex_16_A_a.gif","","","","",""
"","null","html-keyboard-response","52","1801898","0.0-15.0-0.3","SS1619739821646","","","null","","","","","","<p><img src= images/blank.png width =""600"" height = ""600"" style=""position:fixed;top:50%; left:50%; transform: translate(-50%, -50%); border:5px solid black"">","","","","","","","",""
"","3073.569999998668","sequential-stimulus-presentation-old","53","1805485","0.0-15.0-1.3","SS1619739821646","trial","","40","500","3573.569999998668","images/stimuli/spore_stims/complex_16_A_a.gif","images/stimuli/spore_stims/complex_12_A_b.gif","self_paced","","3","complex_dissimilar","images/stimuli/spore_stims/complex_16_A_a.gif","","","","",""
"","3286.0550000004005","survey-multi-choice","54","1808774","0.0-16.0","SS1619739821646","math_question","","","","","","","","","","","","{""Q0"":""17""}","[0]","17","",""
"","null","html-keyboard-response","55","1809952","0.0-17.0-0.0","SS1619739821646","","","null","","","","","","<p><img src= images/blank.png width =""600"" height = ""600"" style=""position:fixed;top:50%; left:50%; transform: translate(-50%, -50%); border:5px solid black"">","","","","","","","",""
"","5292.665000000736","sequential-stimulus-presentation-old","56","1815751","0.0-17.0-1.0","SS1619739821646","trial","","40","500","5792.665000000736","images/stimuli/spore_stims/simple_08_A_a.gif","images/stimuli/spore_stims/simple_12_A_b.gif","forced_short","","4","simple_dissimilar","images/stimuli/spore_stims/simple_12_A_b.gif","","","","",""
"","null","html-keyboard-response","57","1816862","0.0-17.0-0.1","SS1619739821646","","","null","","","","","","<p><img src= images/blank.png width =""600"" height = ""600"" style=""position:fixed;top:50%; left:50%; transform: translate(-50%, -50%); border:5px solid black"">","","","","","","","",""
"","5754.514999998733","sequential-stimulus-presentation-old","58","1823128","0.0-17.0-1.1","SS1619739821646","trial","","40","500","6254.514999998733","images/stimuli/spore_stims/simple_08_A_a.gif","images/stimuli/spore_stims/simple_12_A_b.gif","forced_short","","4","simple_dissimilar","images/stimuli/spore_stims/simple_12_A_b.gif","","","","",""
"","null","html-keyboard-response","59","1824337","0.0-17.0-0.2","SS1619739821646","","","null","","","","","","<p><img src= images/blank.png width =""600"" height = ""600"" style=""position:fixed;top:50%; left:50%; transform: translate(-50%, -50%); border:5px solid black"">","","","","","","","",""
"","2726.1650000000373","sequential-stimulus-presentation-old","60","1827574","0.0-17.0-1.2","SS1619739821646","trial","","40","500","3226.1650000000373","images/stimuli/spore_stims/simple_08_A_a.gif","images/stimuli/spore_stims/simple_12_A_b.gif","forced_short","","4","simple_dissimilar","images/stimuli/spore_stims/simple_08_A_a.gif","","","","",""
"","null","html-keyboard-response","61","1828704","0.0-17.0-0.3","SS1619739821646","","","null","","","","","","<p><img src= images/blank.png width =""600"" height = ""600"" style=""position:fixed;top:50%; left:50%; transform: translate(-50%, -50%); border:5px solid black"">","","","","","","","",""
"","2911.655000000028","sequential-stimulus-presentation-old","62","1832126","0.0-17.0-1.3","SS1619739821646","trial","","40","500","3411.655000000028","images/stimuli/spore_stims/simple_08_A_a.gif","images/stimuli/spore_stims/simple_12_A_b.gif","forced_short","","4","simple_dissimilar","images/stimuli/spore_stims/simple_08_A_a.gif","","","","",""
"","2876.7499999995343","survey-multi-choice","63","1835006","0.0-18.0","SS1619739821646","math_question","","","","","","","","","","","","{""Q0"":""17""}","[0]","17","",""
"","null","html-keyboard-response","64","1836001","0.0-19.0-0.0","SS1619739821646","","","null","","","","","","<p><img src= images/blank.png width =""600"" height = ""600"" style=""position:fixed;top:50%; left:50%; transform: translate(-50%, -50%); border:5px solid black"">","","","","","","","",""
"","11841.984999999171","sequential-stimulus-presentation-old","65","1862854","0.0-19.0-1.0","SS1619739821646","trial","","40","500","12341.984999999171","images/stimuli/spore_stims/simple_06_A_a.gif","images/stimuli/spore_stims/simple_07_A_b.gif","forced_long","","5","simple_dissimilar","images/stimuli/spore_stims/simple_07_A_b.gif","","","","",""
"","null","html-keyboard-response","66","1864073","0.0-19.0-0.1","SS1619739821646","","","null","","","","","","<p><img src= images/blank.png width =""600"" height = ""600"" style=""position:fixed;top:50%; left:50%; transform: translate(-50%, -50%); border:5px solid black"">","","","","","","","",""
"","3032.439999999013","sequential-stimulus-presentation-old","67","1867621","0.0-19.0-1.1","SS1619739821646","trial","","40","500","3532.439999999013","images/stimuli/spore_stims/simple_06_A_a.gif","images/stimuli/spore_stims/simple_07_A_b.gif","forced_long","","5","simple_dissimilar","images/stimuli/spore_stims/simple_07_A_b.gif","","","","",""
"","null","html-keyboard-response","68","1868641","0.0-19.0-0.2","SS1619739821646","","","null","","","","","","<p><img src= images/blank.png width =""600"" height = ""600"" style=""position:fixed;top:50%; left:50%; transform: translate(-50%, -50%); border:5px solid black"">","","","","","","","",""
"","2914.8899999998976","sequential-stimulus-presentation-old","69","1872061","0.0-19.0-1.2","SS1619739821646","trial","","40","500","3414.8899999998976","images/stimuli/spore_stims/simple_06_A_a.gif","images/stimuli/spore_stims/simple_07_A_b.gif","forced_long","","5","simple_dissimilar","images/stimuli/spore_stims/simple_07_A_b.gif","","","","",""
"","null","html-keyboard-response","70","1873086","0.0-19.0-0.3","SS1619739821646","","","null","","","","","","<p><img src= images/blank.png width =""600"" height = ""600"" style=""position:fixed;top:50%; left:50%; transform: translate(-50%, -50%); border:5px solid black"">","","","","","","","",""
"","2485.8199999998324","sequential-stimulus-presentation-old","71","1876086","0.0-19.0-1.3","SS1619739821646","trial","","40","500","2985.8199999998324","images/stimuli/spore_stims/simple_06_A_a.gif","images/stimuli/spore_stims/simple_07_A_b.gif","forced_long","","5","simple_dissimilar","images/stimuli/spore_stims/simple_07_A_b.gif","","","","",""
"","null","html-keyboard-response","72","1877270","0.0-19.0-0.4","SS1619739821646","","","null","","","","","","<p><img src= images/blank.png width =""600"" height = ""600"" style=""position:fixed;top:50%; left:50%; transform: translate(-50%, -50%); border:5px solid black"">","","","","","","","",""
"","1750.6400000003632","sequential-stimulus-presentation-old","73","1879526","0.0-19.0-1.4","SS1619739821646","trial","","40","500","2250.640000000363","images/stimuli/spore_stims/simple_06_A_a.gif","images/stimuli/spore_stims/simple_07_A_b.gif","forced_long","","5","simple_dissimilar","images/stimuli/spore_stims/simple_07_A_b.gif","","","","",""
"","3212.6150000002235","survey-multi-choice","74","1882742","0.0-20.0","SS1619739821646","math_question","","","","","","","","","","","","{""Q0"":""6""}","[0]","6","",""
"","null","html-keyboard-response","75","1884040","0.0-21.0-0.0","SS1619739821646","","","null","","","","","","<p><img src= images/blank.png width =""600"" height = ""600"" style=""position:fixed;top:50%; left:50%; transform: translate(-50%, -50%); border:5px solid black"">","","","","","","","",""
"","13145.155000000028","sequential-stimulus-presentation-old","76","1912198","0.0-21.0-1.0","SS1619739821646","trial","","40","500","13645.155000000028","images/stimuli/spore_stims/complex_15_A_a.gif","images/stimuli/spore_stims/complex_09_A_b.gif","forced_long","","6","complex_dissimilar","images/stimuli/spore_stims/complex_09_A_b.gif","","","","",""
"","null","html-keyboard-response","77","1913220","0.0-21.0-0.1","SS1619739821646","","","null","","","","","","<p><img src= images/blank.png width =""600"" height = ""600"" style=""position:fixed;top:50%; left:50%; transform: translate(-50%, -50%); border:5px solid black"">","","","","","","","",""
"","4085.684999999823","sequential-stimulus-presentation-old","78","1917821","0.0-21.0-1.1","SS1619739821646","trial","","40","500","4585.684999999823","images/stimuli/spore_stims/complex_15_A_a.gif","images/stimuli/spore_stims/complex_09_A_b.gif","forced_long","","6","complex_dissimilar","images/stimuli/spore_stims/complex_09_A_b.gif","","","","",""
"","null","html-keyboard-response","79","1918993","0.0-21.0-0.2","SS1619739821646","","","null","","","","","","<p><img src= images/blank.png width =""600"" height = ""600"" style=""position:fixed;top:50%; left:50%; transform: translate(-50%, -50%); border:5px solid black"">","","","","","","","",""
"","2934.619999999879","sequential-stimulus-presentation-old","80","1922445","0.0-21.0-1.2","SS1619739821646","trial","","40","500","3434.619999999879","images/stimuli/spore_stims/complex_15_A_a.gif","images/stimuli/spore_stims/complex_09_A_b.gif","forced_long","","6","complex_dissimilar","images/stimuli/spore_stims/complex_15_A_a.gif","","","","",""
"","null","html-keyboard-response","81","1923492","0.0-21.0-0.3","SS1619739821646","","","null","","","","","","<p><img src= images/blank.png width =""600"" height = ""600"" style=""position:fixed;top:50%; left:50%; transform: translate(-50%, -50%); border:5px solid black"">","","","","","","","",""
"","2779.5500000012107","sequential-stimulus-presentation-old","82","1926781","0.0-21.0-1.3","SS1619739821646","trial","","40","500","3279.5500000012107","images/stimuli/spore_stims/complex_15_A_a.gif","images/stimuli/spore_stims/complex_09_A_b.gif","forced_long","","6","complex_dissimilar","images/stimuli/spore_stims/complex_09_A_b.gif","","","","",""
"","3044.7100000001956","survey-multi-choice","83","1929830","0.0-22.0","SS1619739821646","math_question","","","","","","","","","","","","{""Q0"":""14""}","[0]","14","",""
"","null","html-keyboard-response","84","1930831","0.0-23.0-0.0","SS1619739821646","","","null","","","","","","<p><img src= images/blank.png width =""600"" height = ""600"" style=""position:fixed;top:50%; left:50%; transform: translate(-50%, -50%); border:5px solid black"">","","","","","","","",""
"","3344.215000001015","sequential-stimulus-presentation-old","85","1934687","0.0-23.0-1.0","SS1619739821646","trial","","40","500","3844.215000001015","images/stimuli/spore_stims/simple_17_A_a.gif","images/stimuli/spore_stims/simple_09_A_b.gif","forced_short","","7","simple_dissimilar","images/stimuli/spore_stims/simple_09_A_b.gif","","","","",""
"","null","html-keyboard-response","86","1935793","0.0-23.0-0.1","SS1619739821646","","","null","","","","","","<p><img src= images/blank.png width =""600"" height = ""600"" style=""position:fixed;top:50%; left:50%; transform: translate(-50%, -50%); border:5px solid black"">","","","","","","","",""
"","533.8449999999721","sequential-stimulus-presentation-old","87","1936833","0.0-23.0-1.1","SS1619739821646","trial","","40","500","1033.844999999972","images/stimuli/spore_stims/simple_17_A_a.gif","images/stimuli/spore_stims/simple_09_A_b.gif","forced_short","","7","simple_dissimilar","images/stimuli/spore_stims/simple_09_A_b.gif","","","","",""
"","null","html-keyboard-response","88","1937657","0.0-23.0-0.2","SS1619739821646","","","null","","","","","","<p><img src= images/blank.png width =""600"" height = ""600"" style=""position:fixed;top:50%; left:50%; transform: translate(-50%, -50%); border:5px solid black"">","","","","","","","",""
"","1158.5450000003912","sequential-stimulus-presentation-old","89","1939326","0.0-23.0-1.2","SS1619739821646","trial","","40","500","1658.5450000003912","images/stimuli/spore_stims/simple_17_A_a.gif","images/stimuli/spore_stims/simple_09_A_b.gif","forced_short","","7","simple_dissimilar","images/stimuli/spore_stims/simple_09_A_b.gif","","","","",""
"","null","html-keyboard-response","90","1940163","0.0-23.0-0.3","SS1619739821646","","","null","","","","","","<p><img src= images/blank.png width =""600"" height = ""600"" style=""position:fixed;top:50%; left:50%; transform: translate(-50%, -50%); border:5px solid black"">","","","","","","","",""
"","5155.389999999898","sequential-stimulus-presentation-old","91","1945830","0.0-23.0-1.3","SS1619739821646","trial","","40","500","5655.389999999898","images/stimuli/spore_stims/simple_17_A_a.gif","images/stimuli/spore_stims/simple_09_A_b.gif","forced_short","","7","simple_dissimilar","images/stimuli/spore_stims/simple_17_A_a.gif","","","","",""
"","null","html-keyboard-response","92","1946902","0.0-23.0-0.4","SS1619739821646","","","null","","","","","","<p><img src= images/blank.png width =""600"" height = ""600"" style=""position:fixed;top:50%; left:50%; transform: translate(-50%, -50%); border:5px solid black"">","","","","","","","",""
"","1462.4649999986868","sequential-stimulus-presentation-old","93","1948878","0.0-23.0-1.4","SS1619739821646","trial","","40","500","1962.4649999986868","images/stimuli/spore_stims/simple_17_A_a.gif","images/stimuli/spore_stims/simple_09_A_b.gif","forced_short","","7","simple_dissimilar","images/stimuli/spore_stims/simple_17_A_a.gif","","","","",""
"","3773.520000000717","survey-multi-choice","94","1952662","0.0-24.0","SS1619739821646","math_question","","","","","","","","","","","","{""Q0"":""5""}","[0]","5","",""
"","null","html-keyboard-response","95","1953574","0.0-25.0-0.0","SS1619739821646","","","null","","","","","","<p><img src= images/blank.png width =""600"" height = ""600"" style=""position:fixed;top:50%; left:50%; transform: translate(-50%, -50%); border:5px solid black"">","","","","","","","",""
"","1459.530000000028","sequential-stimulus-presentation-old","96","1955542","0.0-25.0-1.0","SS1619739821646","trial","","40","500","1959.530000000028","images/stimuli/spore_stims/complex_18_A_b.gif","images/stimuli/spore_stims/complex_01_A_a.gif","forced_short","","8","complex_dissimilar","images/stimuli/spore_stims/complex_01_A_a.gif","","","","",""
"","null","html-keyboard-response","97","1956778","0.0-25.0-0.1","SS1619739821646","","","null","","","","","","<p><img src= images/blank.png width =""600"" height = ""600"" style=""position:fixed;top:50%; left:50%; transform: translate(-50%, -50%); border:5px solid black"">","","","","","","","",""
"","2647.2150000007823","sequential-stimulus-presentation-old","98","1959935","0.0-25.0-1.1","SS1619739821646","trial","","40","500","3147.2150000007823","images/stimuli/spore_stims/complex_18_A_b.gif","images/stimuli/spore_stims/complex_01_A_a.gif","forced_short","","8","complex_dissimilar","images/stimuli/spore_stims/complex_18_A_b.gif","","","","",""
"","null","html-keyboard-response","99","1960992","0.0-25.0-0.2","SS1619739821646","","","null","","","","","","<p><img src= images/blank.png width =""600"" height = ""600"" style=""position:fixed;top:50%; left:50%; transform: translate(-50%, -50%); border:5px solid black"">","","","","","","","",""
"","2758.5150000012945","sequential-stimulus-presentation-old","100","1964261","0.0-25.0-1.2","SS1619739821646","trial","","40","500","3258.5150000012945","images/stimuli/spore_stims/complex_18_A_b.gif","images/stimuli/spore_stims/complex_01_A_a.gif","forced_short","","8","complex_dissimilar","images/stimuli/spore_stims/complex_01_A_a.gif","","","","",""
"","null","html-keyboard-response","101","1965358","0.0-25.0-0.3","SS1619739821646","","","null","","","","","","<p><img src= images/blank.png width =""600"" height = ""600"" style=""position:fixed;top:50%; left:50%; transform: translate(-50%, -50%); border:5px solid black"">","","","","","","","",""
"","1699.4949999989476","sequential-stimulus-presentation-old","102","1967573","0.0-25.0-1.3","SS1619739821646","trial","","40","500","2199.4949999989476","images/stimuli/spore_stims/complex_18_A_b.gif","images/stimuli/spore_stims/complex_01_A_a.gif","forced_short","","8","complex_dissimilar","images/stimuli/spore_stims/complex_01_A_a.gif","","","","",""
"","null","html-keyboard-response","103","1968675","0.0-25.0-0.4","SS1619739821646","","","null","","","","","","<p><img src= images/blank.png width =""600"" height = ""600"" style=""position:fixed;top:50%; left:50%; transform: translate(-50%, -50%); border:5px solid black"">","","","","","","","",""
"","2454.599999999162","sequential-stimulus-presentation-old","104","1971638","0.0-25.0-1.4","SS1619739821646","trial","","40","500","2954.599999999162","images/stimuli/spore_stims/complex_18_A_b.gif","images/stimuli/spore_stims/complex_01_A_a.gif","forced_short","","8","complex_dissimilar","images/stimuli/spore_stims/complex_18_A_b.gif","","","","",""
"","null","html-keyboard-response","105","1972916","0.0-25.0-0.5","SS1619739821646","","","null","","","","","","<p><img src= images/blank.png width =""600"" height = ""600"" style=""position:fixed;top:50%; left:50%; transform: translate(-50%, -50%); border:5px solid black"">","","","","","","","",""
"","1602.93999999878","sequential-stimulus-presentation-old","106","1975029","0.0-25.0-1.5","SS1619739821646","trial","","40","500","2102.93999999878","images/stimuli/spore_stims/complex_18_A_b.gif","images/stimuli/spore_stims/complex_01_A_a.gif","forced_short","","8","complex_dissimilar","images/stimuli/spore_stims/complex_01_A_a.gif","","","","",""
"","3235.6550000002608","survey-multi-choice","107","1978270","0.0-26.0","SS1619739821646","math_question","","","","","","","","","","","","{""Q0"":""14""}","[0]","14","",""
"","null","html-keyboard-response","108","1979191","0.0-27.0-0.0","SS1619739821646","","","null","","","","","","<p><img src= images/blank.png width =""600"" height = ""600"" style=""position:fixed;top:50%; left:50%; transform: translate(-50%, -50%); border:5px solid black"">","","","","","","","",""
"","1563.6450000002515","sequential-stimulus-presentation-old","109","1995767","0.0-27.0-1.0","SS1619739821646","trial","","40","500","2063.6450000002515","images/stimuli/spore_stims/complex_05_A_a.gif","images/stimuli/spore_stims/complex_02_A_b.gif","forced_long","","9","complex_dissimilar","images/stimuli/spore_stims/complex_02_A_b.gif","","","","",""
"","null","html-keyboard-response","110","1996623","0.0-27.0-0.1","SS1619739821646","","","null","","","","","","<p><img src= images/blank.png width =""600"" height = ""600"" style=""position:fixed;top:50%; left:50%; transform: translate(-50%, -50%); border:5px solid black"">","","","","","","","",""
"","14050.180000000168","sequential-stimulus-presentation-old","111","2011182","0.0-27.0-1.1","SS1619739821646","trial","","40","500","14550.180000000168","images/stimuli/spore_stims/complex_05_A_a.gif","images/stimuli/spore_stims/complex_02_A_b.gif","forced_long","","9","complex_dissimilar","images/stimuli/spore_stims/complex_02_A_b.gif","","","","",""
"","null","html-keyboard-response","112","2012303","0.0-27.0-0.2","SS1619739821646","","","null","","","","","","<p><img src= images/blank.png width =""600"" height = ""600"" style=""position:fixed;top:50%; left:50%; transform: translate(-50%, -50%); border:5px solid black"">","","","","","","","",""
"","14101.114999999525","sequential-stimulus-presentation-old","113","2026910","0.0-27.0-1.2","SS1619739821646","trial","","40","500","14601.114999999525","images/stimuli/spore_stims/complex_05_A_a.gif","images/stimuli/spore_stims/complex_02_A_b.gif","forced_long","","9","complex_dissimilar","images/stimuli/spore_stims/complex_02_A_b.gif","","","","",""
"","null","html-keyboard-response","114","2027951","0.0-27.0-0.3","SS1619739821646","","","null","","","","","","<p><img src= images/blank.png width =""600"" height = ""600"" style=""position:fixed;top:50%; left:50%; transform: translate(-50%, -50%); border:5px solid black"">","","","","","","","",""
"","12601.520000000251","sequential-stimulus-presentation-old","115","2041063","0.0-27.0-1.3","SS1619739821646","trial","","40","500","13101.520000000251","images/stimuli/spore_stims/complex_05_A_a.gif","images/stimuli/spore_stims/complex_02_A_b.gif","forced_long","","9","complex_dissimilar","images/stimuli/spore_stims/complex_02_A_b.gif","","","","",""
"","null","html-keyboard-response","116","2042050","0.0-27.0-0.4","SS1619739821646","","","null","","","","","","<p><img src= images/blank.png width =""600"" height = ""600"" style=""position:fixed;top:50%; left:50%; transform: translate(-50%, -50%); border:5px solid black"">","","","","","","","",""
"","12983.354999998352","sequential-stimulus-presentation-old","117","2055551","0.0-27.0-1.4","SS1619739821646","trial","","40","500","13483.354999998352","images/stimuli/spore_stims/complex_05_A_a.gif","images/stimuli/spore_stims/complex_02_A_b.gif","forced_long","","9","complex_dissimilar","images/stimuli/spore_stims/complex_02_A_b.gif","","","","",""
"","null","html-keyboard-response","118","2056450","0.0-27.0-0.5","SS1619739821646","","","null","","","","","","<p><img src= images/blank.png width =""600"" height = ""600"" style=""position:fixed;top:50%; left:50%; transform: translate(-50%, -50%); border:5px solid black"">","","","","","","","",""
"","11866.915000000503","sequential-stimulus-presentation-old","119","2068831","0.0-27.0-1.5","SS1619739821646","trial","","40","500","12366.915000000503","images/stimuli/spore_stims/complex_05_A_a.gif","images/stimuli/spore_stims/complex_02_A_b.gif","forced_long","","9","complex_dissimilar","images/stimuli/spore_stims/complex_02_A_b.gif","","","","",""
"","3934.1149999999907","survey-multi-choice","120","2072774","0.0-28.0","SS1619739821646","math_question","","","","","","","","","","","","{""Q0"":""13""}","[0]","13","",""
"","null","html-keyboard-response","121","2074057","0.0-29.0-0.0","SS1619739821646","","","null","","","","","","<p><img src= images/blank.png width =""600"" height = ""600"" style=""position:fixed;top:50%; left:50%; transform: translate(-50%, -50%); border:5px solid black"">","","","","","","","",""
"","3362.7850000010803","sequential-stimulus-presentation-old","122","2077928","0.0-29.0-1.0","SS1619739821646","trial","","40","500","3862.7850000010803","images/stimuli/spore_stims/complex_11_A_a.gif","images/stimuli/spore_stims/complex_14_A_b.gif","forced_short","","10","complex_dissimilar","images/stimuli/spore_stims/complex_14_A_b.gif","","","","",""
"","null","html-keyboard-response","123","2079151","0.0-29.0-0.1","SS1619739821646","","","null","","","","","","<p><img src= images/blank.png width =""600"" height = ""600"" style=""position:fixed;top:50%; left:50%; transform: translate(-50%, -50%); border:5px solid black"">","","","","","","","",""
"","1107.1499999999069","sequential-stimulus-presentation-old","124","2080774","0.0-29.0-1.1","SS1619739821646","trial","","40","500","1607.1499999999069","images/stimuli/spore_stims/complex_11_A_a.gif","images/stimuli/spore_stims/complex_14_A_b.gif","forced_short","","10","complex_dissimilar","images/stimuli/spore_stims/complex_11_A_a.gif","","","","",""
"","null","html-keyboard-response","125","2081654","0.0-29.0-0.2","SS1619739821646","","","null","","","","","","<p><img src= images/blank.png width =""600"" height = ""600"" style=""position:fixed;top:50%; left:50%; transform: translate(-50%, -50%); border:5px solid black"">","","","","","","","",""
"","523.8349999999627","sequential-stimulus-presentation-old","126","2082687","0.0-29.0-1.2","SS1619739821646","trial","","40","500","1023.8349999999627","images/stimuli/spore_stims/complex_11_A_a.gif","images/stimuli/spore_stims/complex_14_A_b.gif","forced_short","","10","complex_dissimilar","images/stimuli/spore_stims/complex_14_A_b.gif","","","","",""
"","null","html-keyboard-response","127","2083892","0.0-29.0-0.3","SS1619739821646","","","null","","","","","","<p><img src= images/blank.png width =""600"" height = ""600"" style=""position:fixed;top:50%; left:50%; transform: translate(-50%, -50%); border:5px solid black"">","","","","","","","",""
"","1066.7300000006799","sequential-stimulus-presentation-old","128","2085470","0.0-29.0-1.3","SS1619739821646","trial","","40","500","1566.7300000006799","images/stimuli/spore_stims/complex_11_A_a.gif","images/stimuli/spore_stims/complex_14_A_b.gif","forced_short","","10","complex_dissimilar","images/stimuli/spore_stims/complex_11_A_a.gif","","","","",""
"","null","html-keyboard-response","129","2086738","0.0-29.0-0.4","SS1619739821646","","","null","","","","","","<p><img src= images/blank.png width =""600"" height = ""600"" style=""position:fixed;top:50%; left:50%; transform: translate(-50%, -50%); border:5px solid black"">","","","","","","","",""
"","103.71999999904074","sequential-stimulus-presentation-old","130","2087349","0.0-29.0-1.4","SS1619739821646","trial","","40","500","603.7199999990407","images/stimuli/spore_stims/complex_11_A_a.gif","images/stimuli/spore_stims/complex_14_A_b.gif","forced_short","","10","complex_dissimilar","images/stimuli/spore_stims/complex_14_A_b.gif","","","","",""
"","3881.6349999997765","survey-multi-choice","131","2091237","0.0-30.0","SS1619739821646","math_question","","","","","","","","","","","","{""Q0"":""12""}","[0]","12","",""
"","null","html-keyboard-response","132","2092219","0.0-31.0-0.0","SS1619739821646","","","null","","","","","","<p><img src= images/blank.png width =""600"" height = ""600"" style=""position:fixed;top:50%; left:50%; transform: translate(-50%, -50%); border:5px solid black"">","","","","","","","",""
"","15208.655000000494","sequential-stimulus-presentation-old","133","2107933","0.0-31.0-1.0","SS1619739821646","trial","","40","500","15708.655000000494","images/stimuli/spore_stims/simple_01_A_b.gif","images/stimuli/spore_stims/simple_03_A_a.gif","self_paced","","11","simple_dissimilar","images/stimuli/spore_stims/simple_03_A_a.gif","","","","",""
"","null","html-keyboard-response","134","2108920","0.0-31.0-0.1","SS1619739821646","","","null","","","","","","<p><img src= images/blank.png width =""600"" height = ""600"" style=""position:fixed;top:50%; left:50%; transform: translate(-50%, -50%); border:5px solid black"">","","","","","","","",""
"","1324.3350000013597","sequential-stimulus-presentation-old","135","2110757","0.0-31.0-1.1","SS1619739821646","trial","","40","500","1824.3350000013597","images/stimuli/spore_stims/simple_01_A_b.gif","images/stimuli/spore_stims/simple_03_A_a.gif","self_paced","","11","simple_dissimilar","images/stimuli/spore_stims/simple_03_A_a.gif","","","","",""
"","null","html-keyboard-response","136","2111806","0.0-31.0-0.2","SS1619739821646","","","null","","","","","","<p><img src= images/blank.png width =""600"" height = ""600"" style=""position:fixed;top:50%; left:50%; transform: translate(-50%, -50%); border:5px solid black"">","","","","","","","",""
"","791.2350000008009","sequential-stimulus-presentation-old","137","2113109","0.0-31.0-1.2","SS1619739821646","trial","","40","500","1291.235000000801","images/stimuli/spore_stims/simple_01_A_b.gif","images/stimuli/spore_stims/simple_03_A_a.gif","self_paced","","11","simple_dissimilar","images/stimuli/spore_stims/simple_03_A_a.gif","","","","",""
"","null","html-keyboard-response","138","2114405","0.0-31.0-0.3","SS1619739821646","","","null","","","","","","<p><img src= images/blank.png width =""600"" height = ""600"" style=""position:fixed;top:50%; left:50%; transform: translate(-50%, -50%); border:5px solid black"">","","","","","","","",""
"","628.8899999996647","sequential-stimulus-presentation-old","139","2115541","0.0-31.0-1.3","SS1619739821646","trial","","40","500","1128.8899999996647","images/stimuli/spore_stims/simple_01_A_b.gif","images/stimuli/spore_stims/simple_03_A_a.gif","self_paced","","11","simple_dissimilar","images/stimuli/spore_stims/simple_03_A_a.gif","","","","",""
"","null","html-keyboard-response","140","2116601","0.0-31.0-0.4","SS1619739821646","","","null","","","","","","<p><img src= images/blank.png width =""600"" height = ""600"" style=""position:fixed;top:50%; left:50%; transform: translate(-50%, -50%); border:5px solid black"">","","","","","","","",""
"","1766.825000000652","sequential-stimulus-presentation-old","141","2118877","0.0-31.0-1.4","SS1619739821646","trial","","40","500","2266.825000000652","images/stimuli/spore_stims/simple_01_A_b.gif","images/stimuli/spore_stims/simple_03_A_a.gif","self_paced","","11","simple_dissimilar","images/stimuli/spore_stims/simple_03_A_a.gif","","","","",""
"","null","html-keyboard-response","142","2119900","0.0-31.0-0.5","SS1619739821646","","","null","","","","","","<p><img src= images/blank.png width =""600"" height = ""600"" style=""position:fixed;top:50%; left:50%; transform: translate(-50%, -50%); border:5px solid black"">","","","","","","","",""
"","1514.2500000004657","sequential-stimulus-presentation-old","143","2121926","0.0-31.0-1.5","SS1619739821646","trial","","40","500","2014.2500000004657","images/stimuli/spore_stims/simple_01_A_b.gif","images/stimuli/spore_stims/simple_03_A_a.gif","self_paced","","11","simple_dissimilar","images/stimuli/spore_stims/simple_01_A_b.gif","","","","",""
"[{""page_index"":0,""viewing_time"":7080.459999999497}]","7080.749999999069","instructions","144","2129013","0.0-32.0","SS1619739821646","instructions","","","","","","","","","","","","","","","",""
"","12389.605000000447","survey-likert","145","2141407","0.0-33.0","SS1619739821646","similarity_question","","","","","","","","","","","","{""Q0"":2}","[0]","","images/stimuli/spore_stims/complex_12_A_b.gif","images/stimuli/spore_stims/complex_16_A_a.gif"
"","8232.990000000224","survey-likert","146","2149653","0.0-34.0","SS1619739821646","similarity_question","","","","","","","","","","","","{""Q0"":5}","[0]","","images/stimuli/spore_stims/simple_01_A_a.gif","images/stimuli/spore_stims/simple_17_A_b.gif"
"","7424.329999999609","survey-likert","147","2157087","0.0-35.0","SS1619739821646","similarity_question","","","","","","","","","","","","{""Q0"":5}","[0]","","images/stimuli/spore_stims/simple_08_A_a.gif","images/stimuli/spore_stims/simple_12_A_b.gif"
"","11501.584999999963","survey-likert","148","2168598","0.0-36.0","SS1619739821646","similarity_question","","","","","","","","","","","","{""Q0"":4}","[0]","","images/stimuli/spore_stims/complex_09_A_b.gif","images/stimuli/spore_stims/complex_15_A_a.gif"
"","6090.890000001527","survey-likert","149","2174701","0.0-37.0","SS1619739821646","similarity_question","","","","","","","","","","","","{""Q0"":1}","[0]","","images/stimuli/spore_stims/complex_01_A_a.gif","images/stimuli/spore_stims/complex_18_A_b.gif"
"","12439.034999999218","survey-likert","150","2187151","0.0-38.0","SS1619739821646","similarity_question","","","","","","","","","","","","{""Q0"":2}","[0]","","images/stimuli/spore_stims/complex_05_A_a.gif","images/stimuli/spore_stims/complex_02_A_b.gif"
"","9732.394999999087","survey-likert","151","2196893","0.0-39.0","SS1619739821646","similarity_question","","","","","","","","","","","","{""Q0"":4}","[0]","","images/stimuli/spore_stims/complex_14_A_b.gif","images/stimuli/spore_stims/complex_11_A_a.gif"
"","18059.41499999957","survey-likert","152","2214965","0.0-40.0","SS1619739821646","similarity_question","","","","","","","","","","","","{""Q0"":3}","[0]","","images/stimuli/spore_stims/simple_03_A_a.gif","images/stimuli/spore_stims/simple_01_A_b.gif"
"","5797.354999998584","survey-likert","153","2220774","0.0-41.0","SS1619739821646","similarity_question","","","","","","","","","","","","{""Q0"":2}","[0]","","images/stimuli/spore_stims/simple_17_A_a.gif","images/stimuli/spore_stims/simple_09_A_b.gif"
"","4163.690000001341","survey-likert","154","2224950","0.0-42.0","SS1619739821646","similarity_question","","","","","","","","","","","","{""Q0"":6}","[0]","","images/stimuli/spore_stims/simple_11_A_b.gif","images/stimuli/spore_stims/simple_16_A_a.gif"
"","5349.280000000261","survey-likert","155","2230309","0.0-43.0","SS1619739821646","similarity_question","","","","","","","","","","","","{""Q0"":5}","[0]","","images/stimuli/spore_stims/simple_07_A_b.gif","images/stimuli/spore_stims/simple_06_A_a.gif"
"","9374.114999998827","survey-likert","156","2239693","0.0-44.0","SS1619739821646","similarity_question","","","","","","","","","","","","{""Q0"":2}","[0]","","images/stimuli/spore_stims/complex_12_A_a.gif","images/stimuli/spore_stims/complex_11_A_b.gif"
"[{""page_index"":0,""viewing_time"":4804.425000000279}]","4804.720000000205","instructions","157","2244509","0.0-45.0","SS1619739821646","instructions","","","","","","","","","","","","","","","",""
"","9948.055000000633","survey-likert","158","2254461","0.0-46.0","SS1619739821646","","","","","","","","","images/stimuli/spore_stims/simple_11_A_b.gif","","","","{""Q0"":2}","[0]","","",""
"","3541.4299999992363","survey-likert","159","2258014","0.0-47.0","SS1619739821646","","","","","","","","","images/stimuli/spore_stims/simple_08_A_a.gif","","","","{""Q0"":0}","[0]","","",""
"","5662.199999998789","survey-likert","160","2263686","0.0-48.0","SS1619739821646","","","","","","","","","images/stimuli/spore_stims/complex_14_A_b.gif","","","","{""Q0"":5}","[0]","","",""
"","5213.340000000317","survey-likert","161","2268909","0.0-49.0","SS1619739821646","","","","","","","","","images/stimuli/spore_stims/complex_01_A_a.gif","","","","{""Q0"":4}","[0]","","",""
"","6892.440000001341","survey-likert","162","2275813","0.0-50.0","SS1619739821646","","","","","","","","","images/stimuli/spore_stims/simple_01_A_b.gif","","","","{""Q0"":1}","[0]","","",""
"","4845.279999999329","survey-likert","163","2280669","0.0-51.0","SS1619739821646","","","","","","","","","images/stimuli/spore_stims/simple_07_A_b.gif","","","","{""Q0"":0}","[0]","","",""
"","7780.969999999739","survey-likert","164","2288461","0.0-52.0","SS1619739821646","","","","","","","","","images/stimuli/spore_stims/complex_15_A_a.gif","","","","{""Q0"":5}","[0]","","",""
"","2765.3349999999627","survey-likert","165","2291237","0.0-53.0","SS1619739821646","","","","","","","","","images/stimuli/spore_stims/complex_16_A_a.gif","","","","{""Q0"":5}","[0]","","",""
"","3924.489999999292","survey-likert","166","2295173","0.0-54.0","SS1619739821646","","","","","","","","","images/stimuli/spore_stims/simple_01_A_a.gif","","","","{""Q0"":2}","[0]","","",""
"","4404.944999999832","survey-likert","167","2299589","0.0-55.0","SS1619739821646","","","","","","","","","images/stimuli/spore_stims/complex_12_A_a.gif","","","","{""Q0"":5}","[0]","","",""
"","5996.459999999963","survey-likert","168","2305597","0.0-56.0","SS1619739821646","","","","","","","","","images/stimuli/spore_stims/simple_09_A_b.gif","","","","{""Q0"":0}","[0]","","",""
"","2917.339999999851","survey-likert","169","2308525","0.0-57.0","SS1619739821646","","","","","","","","","images/stimuli/spore_stims/complex_02_A_b.gif","","","","{""Q0"":4}","[0]","","",""
"[{""page_index"":0,""viewing_time"":1925.3550000013784}]","1925.6299999998882","instructions","170","2310460","0.0-58.0","SS1619739821646","instructions","","","","","","","","","","","","","","","",""
"","3799.380000000354","demog-age","171","2314269","0.0-59.0","SS1619739821646","","","","","","","","","","","","","{""age"":""19""}","","","",""
"","2358.8250000011176","demog-ethnic-US","172","2316637","0.0-60.0","SS1619739821646","","","","","","","","","","","","","{""ethnicity"":[""Hispanic or Latino""]}","[0]","","",""
"","18132.350000000093","demog-gender-and-education","173","2334781","0.0-61.0","SS1619739821646","","","","","","","","","","","","","{""gender"":""Male"",""education"":""High school diploma""}","[0,1]","","",""
"","20377.28000000026","survey-text","174","2355173","0.0-62.0","SS1619739821646","feedback","","","","","","","","","","","","{""Q0"":""All right!""}","","","",""
"[{""page_index"":0,""viewing_time"":2258.6050000009127}]","2258.885000000708","instructions","175","2357436","0.0-63.0","SS1619739821646","instructions","","","","","","","","","","","","","","","",""
