"view_history","rt","trial_type","trial_index","time_elapsed","internal_node_id","subject","stimulus_type","trial_stimulus","key_press","minimum_viewing_duration","trial_looking_time","block_deviant","block_background","exposure_type","stimulus","block_number","block_type","stimulus_displayed","responses","question_order","math_correct_answer","stimulus_left","stimulus_right"
"[{""page_index"":0,""viewing_time"":13497}]","13498","instructions","0","13503","0.0-0.0","SS1619739883619","","","","","","","","","","","","","","","","",""
"[{""page_index"":0,""viewing_time"":45580},{""page_index"":1,""viewing_time"":39706}]","85286","instructions","1","100804","0.0-1.0","SS1619739883619","instructions","","","","","","","","","","","","","","","",""
"","6051","sequential-stimulus-presentation-old","2","107371","0.0-2.0","SS1619739883619","","","40","500","6551","null","null","self_paced","","","","","","","","",""
"","4652","sequential-stimulus-presentation-old","3","112537","0.0-3.0","SS1619739883619","","","40","500","5152","null","null","self_paced","","","","","","","","",""
"[{""page_index"":0,""viewing_time"":73808}]","73808","instructions","4","186348","0.0-4.0","SS1619739883619","instructions","","","","","","","","","","","","","","","",""
"","1704","sequential-stimulus-presentation-old","5","203055","0.0-5.0","SS1619739883619","","","40","500","2204","null","null","forced_long","","","","","","","","",""
"","1446","sequential-stimulus-presentation-old","6","205013","0.0-6.0","SS1619739883619","","","40","500","1946","null","null","forced_long","","","","","","","","",""
"[{""page_index"":0,""viewing_time"":2771}]","2772","instructions","7","207788","0.0-7.0","SS1619739883619","instructions","","","","","","","","","","","","","","","",""
"[{""page_index"":0,""viewing_time"":20576},{""page_index"":1,""viewing_time"":14765},{""page_index"":2,""viewing_time"":14316},{""page_index"":3,""viewing_time"":1210},{""page_index"":4,""viewing_time"":1086}]","51954","instructions","8","259743","0.0-8.0","SS1619739883619","instructions","","","","","","","","","","","","","","","",""
"","null","html-keyboard-response","9","260861","0.0-9.0-0.0","SS1619739883619","","","null","","","","","","<p><img src= images/blank.png width =""600"" height = ""600"" style=""position:fixed;top:50%; left:50%; transform: translate(-50%, -50%); border:5px solid black"">","","","","","","","",""
"","1131","sequential-stimulus-presentation-old","10","262512","0.0-9.0-1.0","SS1619739883619","trial","","40","500","1631","images/stimuli/spore_stims/complex_11_A_a.gif","images/stimuli/spore_stims/complex_08_A_b.gif","forced_short","","0","complex_dissimilar","images/stimuli/spore_stims/complex_08_A_b.gif","","","","",""
"","null","html-keyboard-response","11","263365","0.0-9.0-0.1","SS1619739883619","","","null","","","","","","<p><img src= images/blank.png width =""600"" height = ""600"" style=""position:fixed;top:50%; left:50%; transform: translate(-50%, -50%); border:5px solid black"">","","","","","","","",""
"","462","sequential-stimulus-presentation-old","12","264331","0.0-9.0-1.1","SS1619739883619","trial","","40","500","962","images/stimuli/spore_stims/complex_11_A_a.gif","images/stimuli/spore_stims/complex_08_A_b.gif","forced_short","","0","complex_dissimilar","images/stimuli/spore_stims/complex_08_A_b.gif","","","","",""
"","null","html-keyboard-response","13","265171","0.0-9.0-0.2","SS1619739883619","","","null","","","","","","<p><img src= images/blank.png width =""600"" height = ""600"" style=""position:fixed;top:50%; left:50%; transform: translate(-50%, -50%); border:5px solid black"">","","","","","","","",""
"","8657","sequential-stimulus-presentation-old","14","274342","0.0-9.0-1.2","SS1619739883619","trial","","40","500","9157","images/stimuli/spore_stims/complex_11_A_a.gif","images/stimuli/spore_stims/complex_08_A_b.gif","forced_short","","0","complex_dissimilar","images/stimuli/spore_stims/complex_08_A_b.gif","","","","",""
"","null","html-keyboard-response","15","275240","0.0-9.0-0.3","SS1619739883619","","","null","","","","","","<p><img src= images/blank.png width =""600"" height = ""600"" style=""position:fixed;top:50%; left:50%; transform: translate(-50%, -50%); border:5px solid black"">","","","","","","","",""
"","194","sequential-stimulus-presentation-old","16","275941","0.0-9.0-1.3","SS1619739883619","trial","","40","500","694","images/stimuli/spore_stims/complex_11_A_a.gif","images/stimuli/spore_stims/complex_08_A_b.gif","forced_short","","0","complex_dissimilar","images/stimuli/spore_stims/complex_08_A_b.gif","","","","",""
"","null","html-keyboard-response","17","277261","0.0-9.0-0.4","SS1619739883619","","","null","","","","","","<p><img src= images/blank.png width =""600"" height = ""600"" style=""position:fixed;top:50%; left:50%; transform: translate(-50%, -50%); border:5px solid black"">","","","","","","","",""
"","2094","sequential-stimulus-presentation-old","18","279874","0.0-9.0-1.4","SS1619739883619","trial","","40","500","2594","images/stimuli/spore_stims/complex_11_A_a.gif","images/stimuli/spore_stims/complex_08_A_b.gif","forced_short","","0","complex_dissimilar","images/stimuli/spore_stims/complex_08_A_b.gif","","","","",""
"","12476","survey-multi-choice","19","292354","0.0-10.0","SS1619739883619","math_question","","","","","","","","","","","","{""Q0"":""15""}","[0]","15","",""
"","null","html-keyboard-response","20","293336","0.0-11.0-0.0","SS1619739883619","","","null","","","","","","<p><img src= images/blank.png width =""600"" height = ""600"" style=""position:fixed;top:50%; left:50%; transform: translate(-50%, -50%); border:5px solid black"">","","","","","","","",""
"","1581","sequential-stimulus-presentation-old","21","295432","0.0-11.0-1.0","SS1619739883619","trial","","40","500","2081","images/stimuli/spore_stims/simple_09_A_a.gif","images/stimuli/spore_stims/simple_02_A_b.gif","forced_short","","1","simple_dissimilar","images/stimuli/spore_stims/simple_02_A_b.gif","","","","",""
"","null","html-keyboard-response","22","296521","0.0-11.0-0.1","SS1619739883619","","","null","","","","","","<p><img src= images/blank.png width =""600"" height = ""600"" style=""position:fixed;top:50%; left:50%; transform: translate(-50%, -50%); border:5px solid black"">","","","","","","","",""
"","1909","sequential-stimulus-presentation-old","23","298944","0.0-11.0-1.1","SS1619739883619","trial","","40","500","2409","images/stimuli/spore_stims/simple_09_A_a.gif","images/stimuli/spore_stims/simple_02_A_b.gif","forced_short","","1","simple_dissimilar","images/stimuli/spore_stims/simple_02_A_b.gif","","","","",""
"","null","html-keyboard-response","24","300010","0.0-11.0-0.2","SS1619739883619","","","null","","","","","","<p><img src= images/blank.png width =""600"" height = ""600"" style=""position:fixed;top:50%; left:50%; transform: translate(-50%, -50%); border:5px solid black"">","","","","","","","",""
"","1960","sequential-stimulus-presentation-old","25","302477","0.0-11.0-1.2","SS1619739883619","trial","","40","500","2460","images/stimuli/spore_stims/simple_09_A_a.gif","images/stimuli/spore_stims/simple_02_A_b.gif","forced_short","","1","simple_dissimilar","images/stimuli/spore_stims/simple_02_A_b.gif","","","","",""
"","null","html-keyboard-response","26","303681","0.0-11.0-0.3","SS1619739883619","","","null","","","","","","<p><img src= images/blank.png width =""600"" height = ""600"" style=""position:fixed;top:50%; left:50%; transform: translate(-50%, -50%); border:5px solid black"">","","","","","","","",""
"","1292","sequential-stimulus-presentation-old","27","305491","0.0-11.0-1.3","SS1619739883619","trial","","40","500","1792","images/stimuli/spore_stims/simple_09_A_a.gif","images/stimuli/spore_stims/simple_02_A_b.gif","forced_short","","1","simple_dissimilar","images/stimuli/spore_stims/simple_02_A_b.gif","","","","",""
"","null","html-keyboard-response","28","306721","0.0-11.0-0.4","SS1619739883619","","","null","","","","","","<p><img src= images/blank.png width =""600"" height = ""600"" style=""position:fixed;top:50%; left:50%; transform: translate(-50%, -50%); border:5px solid black"">","","","","","","","",""
"","312","sequential-stimulus-presentation-old","29","307537","0.0-11.0-1.4","SS1619739883619","trial","","40","500","812","images/stimuli/spore_stims/simple_09_A_a.gif","images/stimuli/spore_stims/simple_02_A_b.gif","forced_short","","1","simple_dissimilar","images/stimuli/spore_stims/simple_02_A_b.gif","","","","",""
"","4626","survey-multi-choice","30","312168","0.0-12.0","SS1619739883619","math_question","","","","","","","","","","","","{""Q0"":""13""}","[0]","13","",""
"","null","html-keyboard-response","31","313215","0.0-13.0-0.0","SS1619739883619","","","null","","","","","","<p><img src= images/blank.png width =""600"" height = ""600"" style=""position:fixed;top:50%; left:50%; transform: translate(-50%, -50%); border:5px solid black"">","","","","","","","",""
"","459","sequential-stimulus-presentation-old","32","328694","0.0-13.0-1.0","SS1619739883619","trial","","40","500","959","images/stimuli/spore_stims/complex_19_A_b.gif","images/stimuli/spore_stims/complex_07_A_a.gif","forced_long","","2","complex_dissimilar","images/stimuli/spore_stims/complex_07_A_a.gif","","","","",""
"","null","html-keyboard-response","33","329505","0.0-13.0-0.1","SS1619739883619","","","null","","","","","","<p><img src= images/blank.png width =""600"" height = ""600"" style=""position:fixed;top:50%; left:50%; transform: translate(-50%, -50%); border:5px solid black"">","","","","","","","",""
"","68","sequential-stimulus-presentation-old","34","330084","0.0-13.0-1.1","SS1619739883619","trial","","40","500","568","images/stimuli/spore_stims/complex_19_A_b.gif","images/stimuli/spore_stims/complex_07_A_a.gif","forced_long","","2","complex_dissimilar","images/stimuli/spore_stims/complex_07_A_a.gif","","","","",""
"","null","html-keyboard-response","35","331090","0.0-13.0-0.2","SS1619739883619","","","null","","","","","","<p><img src= images/blank.png width =""600"" height = ""600"" style=""position:fixed;top:50%; left:50%; transform: translate(-50%, -50%); border:5px solid black"">","","","","","","","",""
"","3710","sequential-stimulus-presentation-old","36","335312","0.0-13.0-1.2","SS1619739883619","trial","","40","500","4210","images/stimuli/spore_stims/complex_19_A_b.gif","images/stimuli/spore_stims/complex_07_A_a.gif","forced_long","","2","complex_dissimilar","images/stimuli/spore_stims/complex_19_A_b.gif","","","","",""
"","null","html-keyboard-response","37","336270","0.0-13.0-0.3","SS1619739883619","","","null","","","","","","<p><img src= images/blank.png width =""600"" height = ""600"" style=""position:fixed;top:50%; left:50%; transform: translate(-50%, -50%); border:5px solid black"">","","","","","","","",""
"","6255","sequential-stimulus-presentation-old","38","343036","0.0-13.0-1.3","SS1619739883619","trial","","40","500","6755","images/stimuli/spore_stims/complex_19_A_b.gif","images/stimuli/spore_stims/complex_07_A_a.gif","forced_long","","2","complex_dissimilar","images/stimuli/spore_stims/complex_07_A_a.gif","","","","",""
"","null","html-keyboard-response","39","344340","0.0-13.0-0.4","SS1619739883619","","","null","","","","","","<p><img src= images/blank.png width =""600"" height = ""600"" style=""position:fixed;top:50%; left:50%; transform: translate(-50%, -50%); border:5px solid black"">","","","","","","","",""
"","43","sequential-stimulus-presentation-old","40","344904","0.0-13.0-1.4","SS1619739883619","trial","","40","500","543","images/stimuli/spore_stims/complex_19_A_b.gif","images/stimuli/spore_stims/complex_07_A_a.gif","forced_long","","2","complex_dissimilar","images/stimuli/spore_stims/complex_07_A_a.gif","","","","",""
"","null","html-keyboard-response","41","345760","0.0-13.0-0.5","SS1619739883619","","","null","","","","","","<p><img src= images/blank.png width =""600"" height = ""600"" style=""position:fixed;top:50%; left:50%; transform: translate(-50%, -50%); border:5px solid black"">","","","","","","","",""
"","4228","sequential-stimulus-presentation-old","42","350504","0.0-13.0-1.5","SS1619739883619","trial","","40","500","4728","images/stimuli/spore_stims/complex_19_A_b.gif","images/stimuli/spore_stims/complex_07_A_a.gif","forced_long","","2","complex_dissimilar","images/stimuli/spore_stims/complex_07_A_a.gif","","","","",""
"","4931","survey-multi-choice","43","355439","0.0-14.0","SS1619739883619","math_question","","","","","","","","","","","","{""Q0"":""9""}","[0]","9","",""
"","null","html-keyboard-response","44","356626","0.0-15.0-0.0","SS1619739883619","","","null","","","","","","<p><img src= images/blank.png width =""600"" height = ""600"" style=""position:fixed;top:50%; left:50%; transform: translate(-50%, -50%); border:5px solid black"">","","","","","","","",""
"","12620","sequential-stimulus-presentation-old","45","369756","0.0-15.0-1.0","SS1619739883619","trial","","40","500","13120","images/stimuli/spore_stims/complex_20_A_b.gif","images/stimuli/spore_stims/complex_15_A_a.gif","self_paced","","3","complex_dissimilar","images/stimuli/spore_stims/complex_15_A_a.gif","","","","",""
"","null","html-keyboard-response","46","370715","0.0-15.0-0.1","SS1619739883619","","","null","","","","","","<p><img src= images/blank.png width =""600"" height = ""600"" style=""position:fixed;top:50%; left:50%; transform: translate(-50%, -50%); border:5px solid black"">","","","","","","","",""
"","7452","sequential-stimulus-presentation-old","47","378683","0.0-15.0-1.1","SS1619739883619","trial","","40","500","7952","images/stimuli/spore_stims/complex_20_A_b.gif","images/stimuli/spore_stims/complex_15_A_a.gif","self_paced","","3","complex_dissimilar","images/stimuli/spore_stims/complex_15_A_a.gif","","","","",""
"","null","html-keyboard-response","48","379954","0.0-15.0-0.2","SS1619739883619","","","null","","","","","","<p><img src= images/blank.png width =""600"" height = ""600"" style=""position:fixed;top:50%; left:50%; transform: translate(-50%, -50%); border:5px solid black"">","","","","","","","",""
"","17935","sequential-stimulus-presentation-old","49","398410","0.0-15.0-1.2","SS1619739883619","trial","","40","500","18435","images/stimuli/spore_stims/complex_20_A_b.gif","images/stimuli/spore_stims/complex_15_A_a.gif","self_paced","","3","complex_dissimilar","images/stimuli/spore_stims/complex_15_A_a.gif","","","","",""
"","null","html-keyboard-response","50","399621","0.0-15.0-0.3","SS1619739883619","","","null","","","","","","<p><img src= images/blank.png width =""600"" height = ""600"" style=""position:fixed;top:50%; left:50%; transform: translate(-50%, -50%); border:5px solid black"">","","","","","","","",""
"","668","sequential-stimulus-presentation-old","51","400801","0.0-15.0-1.3","SS1619739883619","trial","","40","500","1168","images/stimuli/spore_stims/complex_20_A_b.gif","images/stimuli/spore_stims/complex_15_A_a.gif","self_paced","","3","complex_dissimilar","images/stimuli/spore_stims/complex_20_A_b.gif","","","","",""
"","null","html-keyboard-response","52","401924","0.0-15.0-0.4","SS1619739883619","","","null","","","","","","<p><img src= images/blank.png width =""600"" height = ""600"" style=""position:fixed;top:50%; left:50%; transform: translate(-50%, -50%); border:5px solid black"">","","","","","","","",""
"","614","sequential-stimulus-presentation-old","53","403044","0.0-15.0-1.4","SS1619739883619","trial","","40","500","1114","images/stimuli/spore_stims/complex_20_A_b.gif","images/stimuli/spore_stims/complex_15_A_a.gif","self_paced","","3","complex_dissimilar","images/stimuli/spore_stims/complex_15_A_a.gif","","","","",""
"","20561","survey-multi-choice","54","423609","0.0-16.0","SS1619739883619","math_question","","","","","","","","","","","","{""Q0"":""16""}","[0]","16","",""
"","null","html-keyboard-response","55","424651","0.0-17.0-0.0","SS1619739883619","","","null","","","","","","<p><img src= images/blank.png width =""600"" height = ""600"" style=""position:fixed;top:50%; left:50%; transform: translate(-50%, -50%); border:5px solid black"">","","","","","","","",""
"","1097","sequential-stimulus-presentation-old","56","440758","0.0-17.0-1.0","SS1619739883619","trial","","40","500","1597","images/stimuli/spore_stims/simple_17_A_a.gif","images/stimuli/spore_stims/simple_08_A_b.gif","forced_long","","4","simple_dissimilar","images/stimuli/spore_stims/simple_08_A_b.gif","","","","",""
"","null","html-keyboard-response","57","441840","0.0-17.0-0.1","SS1619739883619","","","null","","","","","","<p><img src= images/blank.png width =""600"" height = ""600"" style=""position:fixed;top:50%; left:50%; transform: translate(-50%, -50%); border:5px solid black"">","","","","","","","",""
"","20","sequential-stimulus-presentation-old","58","442379","0.0-17.0-1.1","SS1619739883619","trial","","40","500","520","images/stimuli/spore_stims/simple_17_A_a.gif","images/stimuli/spore_stims/simple_08_A_b.gif","forced_long","","4","simple_dissimilar","images/stimuli/spore_stims/simple_08_A_b.gif","","","","",""
"","null","html-keyboard-response","59","443605","0.0-17.0-0.2","SS1619739883619","","","null","","","","","","<p><img src= images/blank.png width =""600"" height = ""600"" style=""position:fixed;top:50%; left:50%; transform: translate(-50%, -50%); border:5px solid black"">","","","","","","","",""
"","3126","sequential-stimulus-presentation-old","60","447249","0.0-17.0-1.2","SS1619739883619","trial","","40","500","3626","images/stimuli/spore_stims/simple_17_A_a.gif","images/stimuli/spore_stims/simple_08_A_b.gif","forced_long","","4","simple_dissimilar","images/stimuli/spore_stims/simple_08_A_b.gif","","","","",""
"","null","html-keyboard-response","61","448540","0.0-17.0-0.3","SS1619739883619","","","null","","","","","","<p><img src= images/blank.png width =""600"" height = ""600"" style=""position:fixed;top:50%; left:50%; transform: translate(-50%, -50%); border:5px solid black"">","","","","","","","",""
"","620","sequential-stimulus-presentation-old","62","449675","0.0-17.0-1.3","SS1619739883619","trial","","40","500","1120","images/stimuli/spore_stims/simple_17_A_a.gif","images/stimuli/spore_stims/simple_08_A_b.gif","forced_long","","4","simple_dissimilar","images/stimuli/spore_stims/simple_17_A_a.gif","","","","",""
"","null","html-keyboard-response","63","450606","0.0-17.0-0.4","SS1619739883619","","","null","","","","","","<p><img src= images/blank.png width =""600"" height = ""600"" style=""position:fixed;top:50%; left:50%; transform: translate(-50%, -50%); border:5px solid black"">","","","","","","","",""
"","960","sequential-stimulus-presentation-old","64","452080","0.0-17.0-1.4","SS1619739883619","trial","","40","500","1460","images/stimuli/spore_stims/simple_17_A_a.gif","images/stimuli/spore_stims/simple_08_A_b.gif","forced_long","","4","simple_dissimilar","images/stimuli/spore_stims/simple_08_A_b.gif","","","","",""
"","null","html-keyboard-response","65","453040","0.0-17.0-0.5","SS1619739883619","","","null","","","","","","<p><img src= images/blank.png width =""600"" height = ""600"" style=""position:fixed;top:50%; left:50%; transform: translate(-50%, -50%); border:5px solid black"">","","","","","","","",""
"","2831","sequential-stimulus-presentation-old","66","456385","0.0-17.0-1.5","SS1619739883619","trial","","40","500","3331","images/stimuli/spore_stims/simple_17_A_a.gif","images/stimuli/spore_stims/simple_08_A_b.gif","forced_long","","4","simple_dissimilar","images/stimuli/spore_stims/simple_08_A_b.gif","","","","",""
"","2791","survey-multi-choice","67","459178","0.0-18.0","SS1619739883619","math_question","","","","","","","","","","","","{""Q0"":""8""}","[0]","8","",""
"","null","html-keyboard-response","68","460091","0.0-19.0-0.0","SS1619739883619","","","null","","","","","","<p><img src= images/blank.png width =""600"" height = ""600"" style=""position:fixed;top:50%; left:50%; transform: translate(-50%, -50%); border:5px solid black"">","","","","","","","",""
"","1008","sequential-stimulus-presentation-old","69","476117","0.0-19.0-1.0","SS1619739883619","trial","","40","500","1508","images/stimuli/spore_stims/simple_13_A_b.gif","images/stimuli/spore_stims/simple_01_A_a.gif","forced_long","","5","simple_dissimilar","images/stimuli/spore_stims/simple_01_A_a.gif","","","","",""
"","null","html-keyboard-response","70","477164","0.0-19.0-0.1","SS1619739883619","","","null","","","","","","<p><img src= images/blank.png width =""600"" height = ""600"" style=""position:fixed;top:50%; left:50%; transform: translate(-50%, -50%); border:5px solid black"">","","","","","","","",""
"","13","sequential-stimulus-presentation-old","71","477686","0.0-19.0-1.1","SS1619739883619","trial","","40","500","513","images/stimuli/spore_stims/simple_13_A_b.gif","images/stimuli/spore_stims/simple_01_A_a.gif","forced_long","","5","simple_dissimilar","images/stimuli/spore_stims/simple_01_A_a.gif","","","","",""
"","null","html-keyboard-response","72","478940","0.0-19.0-0.2","SS1619739883619","","","null","","","","","","<p><img src= images/blank.png width =""600"" height = ""600"" style=""position:fixed;top:50%; left:50%; transform: translate(-50%, -50%); border:5px solid black"">","","","","","","","",""
"","41","sequential-stimulus-presentation-old","73","479497","0.0-19.0-1.2","SS1619739883619","trial","","40","500","541","images/stimuli/spore_stims/simple_13_A_b.gif","images/stimuli/spore_stims/simple_01_A_a.gif","forced_long","","5","simple_dissimilar","images/stimuli/spore_stims/simple_01_A_a.gif","","","","",""
"","null","html-keyboard-response","74","480460","0.0-19.0-0.3","SS1619739883619","","","null","","","","","","<p><img src= images/blank.png width =""600"" height = ""600"" style=""position:fixed;top:50%; left:50%; transform: translate(-50%, -50%); border:5px solid black"">","","","","","","","",""
"","74","sequential-stimulus-presentation-old","75","481045","0.0-19.0-1.3","SS1619739883619","trial","","40","500","574","images/stimuli/spore_stims/simple_13_A_b.gif","images/stimuli/spore_stims/simple_01_A_a.gif","forced_long","","5","simple_dissimilar","images/stimuli/spore_stims/simple_01_A_a.gif","","","","",""
"","null","html-keyboard-response","76","481994","0.0-19.0-0.4","SS1619739883619","","","null","","","","","","<p><img src= images/blank.png width =""600"" height = ""600"" style=""position:fixed;top:50%; left:50%; transform: translate(-50%, -50%); border:5px solid black"">","","","","","","","",""
"","403","sequential-stimulus-presentation-old","77","482907","0.0-19.0-1.4","SS1619739883619","trial","","40","500","903","images/stimuli/spore_stims/simple_13_A_b.gif","images/stimuli/spore_stims/simple_01_A_a.gif","forced_long","","5","simple_dissimilar","images/stimuli/spore_stims/simple_01_A_a.gif","","","","",""
"","null","html-keyboard-response","78","484212","0.0-19.0-0.5","SS1619739883619","","","null","","","","","","<p><img src= images/blank.png width =""600"" height = ""600"" style=""position:fixed;top:50%; left:50%; transform: translate(-50%, -50%); border:5px solid black"">","","","","","","","",""
"","146","sequential-stimulus-presentation-old","79","484867","0.0-19.0-1.5","SS1619739883619","trial","","40","500","646","images/stimuli/spore_stims/simple_13_A_b.gif","images/stimuli/spore_stims/simple_01_A_a.gif","forced_long","","5","simple_dissimilar","images/stimuli/spore_stims/simple_01_A_a.gif","","","","",""
"","6067","survey-multi-choice","80","490943","0.0-20.0","SS1619739883619","math_question","","","","","","","","","","","","{""Q0"":""13""}","[0]","13","",""
"","null","html-keyboard-response","81","492190","0.0-21.0-0.0","SS1619739883619","","","null","","","","","","<p><img src= images/blank.png width =""600"" height = ""600"" style=""position:fixed;top:50%; left:50%; transform: translate(-50%, -50%); border:5px solid black"">","","","","","","","",""
"","468","sequential-stimulus-presentation-old","82","507673","0.0-21.0-1.0","SS1619739883619","trial","","40","500","968","images/stimuli/spore_stims/complex_16_A_a.gif","images/stimuli/spore_stims/complex_07_A_b.gif","forced_long","","6","complex_dissimilar","images/stimuli/spore_stims/complex_07_A_b.gif","","","","",""
"","null","html-keyboard-response","83","508861","0.0-21.0-0.1","SS1619739883619","","","null","","","","","","<p><img src= images/blank.png width =""600"" height = ""600"" style=""position:fixed;top:50%; left:50%; transform: translate(-50%, -50%); border:5px solid black"">","","","","","","","",""
"","1364","sequential-stimulus-presentation-old","84","510739","0.0-21.0-1.1","SS1619739883619","trial","","40","500","1864","images/stimuli/spore_stims/complex_16_A_a.gif","images/stimuli/spore_stims/complex_07_A_b.gif","forced_long","","6","complex_dissimilar","images/stimuli/spore_stims/complex_07_A_b.gif","","","","",""
"","null","html-keyboard-response","85","511656","0.0-21.0-0.2","SS1619739883619","","","null","","","","","","<p><img src= images/blank.png width =""600"" height = ""600"" style=""position:fixed;top:50%; left:50%; transform: translate(-50%, -50%); border:5px solid black"">","","","","","","","",""
"","3151","sequential-stimulus-presentation-old","86","515321","0.0-21.0-1.2","SS1619739883619","trial","","40","500","3651","images/stimuli/spore_stims/complex_16_A_a.gif","images/stimuli/spore_stims/complex_07_A_b.gif","forced_long","","6","complex_dissimilar","images/stimuli/spore_stims/complex_16_A_a.gif","","","","",""
"","null","html-keyboard-response","87","516151","0.0-21.0-0.3","SS1619739883619","","","null","","","","","","<p><img src= images/blank.png width =""600"" height = ""600"" style=""position:fixed;top:50%; left:50%; transform: translate(-50%, -50%); border:5px solid black"">","","","","","","","",""
"","177","sequential-stimulus-presentation-old","88","516848","0.0-21.0-1.3","SS1619739883619","trial","","40","500","677","images/stimuli/spore_stims/complex_16_A_a.gif","images/stimuli/spore_stims/complex_07_A_b.gif","forced_long","","6","complex_dissimilar","images/stimuli/spore_stims/complex_07_A_b.gif","","","","",""
"","null","html-keyboard-response","89","518160","0.0-21.0-0.4","SS1619739883619","","","null","","","","","","<p><img src= images/blank.png width =""600"" height = ""600"" style=""position:fixed;top:50%; left:50%; transform: translate(-50%, -50%); border:5px solid black"">","","","","","","","",""
"","1904","sequential-stimulus-presentation-old","90","520573","0.0-21.0-1.4","SS1619739883619","trial","","40","500","2404","images/stimuli/spore_stims/complex_16_A_a.gif","images/stimuli/spore_stims/complex_07_A_b.gif","forced_long","","6","complex_dissimilar","images/stimuli/spore_stims/complex_07_A_b.gif","","","","",""
"","2708","survey-multi-choice","91","523287","0.0-22.0","SS1619739883619","math_question","","","","","","","","","","","","{""Q0"":""6""}","[0]","6","",""
"","null","html-keyboard-response","92","524583","0.0-23.0-0.0","SS1619739883619","","","null","","","","","","<p><img src= images/blank.png width =""600"" height = ""600"" style=""position:fixed;top:50%; left:50%; transform: translate(-50%, -50%); border:5px solid black"">","","","","","","","",""
"","687","sequential-stimulus-presentation-old","93","525782","0.0-23.0-1.0","SS1619739883619","trial","","40","500","1187","images/stimuli/spore_stims/simple_07_A_a.gif","images/stimuli/spore_stims/simple_05_A_b.gif","self_paced","","7","simple_dissimilar","images/stimuli/spore_stims/simple_05_A_b.gif","","","","",""
"","null","html-keyboard-response","94","527040","0.0-23.0-0.1","SS1619739883619","","","null","","","","","","<p><img src= images/blank.png width =""600"" height = ""600"" style=""position:fixed;top:50%; left:50%; transform: translate(-50%, -50%); border:5px solid black"">","","","","","","","",""
"","438","sequential-stimulus-presentation-old","95","528001","0.0-23.0-1.1","SS1619739883619","trial","","40","500","938","images/stimuli/spore_stims/simple_07_A_a.gif","images/stimuli/spore_stims/simple_05_A_b.gif","self_paced","","7","simple_dissimilar","images/stimuli/spore_stims/simple_05_A_b.gif","","","","",""
"","null","html-keyboard-response","96","528840","0.0-23.0-0.2","SS1619739883619","","","null","","","","","","<p><img src= images/blank.png width =""600"" height = ""600"" style=""position:fixed;top:50%; left:50%; transform: translate(-50%, -50%); border:5px solid black"">","","","","","","","",""
"","431","sequential-stimulus-presentation-old","97","529794","0.0-23.0-1.2","SS1619739883619","trial","","40","500","931","images/stimuli/spore_stims/simple_07_A_a.gif","images/stimuli/spore_stims/simple_05_A_b.gif","self_paced","","7","simple_dissimilar","images/stimuli/spore_stims/simple_05_A_b.gif","","","","",""
"","null","html-keyboard-response","98","530910","0.0-23.0-0.3","SS1619739883619","","","null","","","","","","<p><img src= images/blank.png width =""600"" height = ""600"" style=""position:fixed;top:50%; left:50%; transform: translate(-50%, -50%); border:5px solid black"">","","","","","","","",""
"","342","sequential-stimulus-presentation-old","99","531767","0.0-23.0-1.3","SS1619739883619","trial","","40","500","842","images/stimuli/spore_stims/simple_07_A_a.gif","images/stimuli/spore_stims/simple_05_A_b.gif","self_paced","","7","simple_dissimilar","images/stimuli/spore_stims/simple_05_A_b.gif","","","","",""
"","null","html-keyboard-response","100","532861","0.0-23.0-0.4","SS1619739883619","","","null","","","","","","<p><img src= images/blank.png width =""600"" height = ""600"" style=""position:fixed;top:50%; left:50%; transform: translate(-50%, -50%); border:5px solid black"">","","","","","","","",""
"","3997","sequential-stimulus-presentation-old","101","537373","0.0-23.0-1.4","SS1619739883619","trial","","40","500","4497","images/stimuli/spore_stims/simple_07_A_a.gif","images/stimuli/spore_stims/simple_05_A_b.gif","self_paced","","7","simple_dissimilar","images/stimuli/spore_stims/simple_05_A_b.gif","","","","",""
"","3392","survey-multi-choice","102","540775","0.0-24.0","SS1619739883619","math_question","","","","","","","","","","","","{""Q0"":""10""}","[0]","10","",""
"","null","html-keyboard-response","103","541990","0.0-25.0-0.0","SS1619739883619","","","null","","","","","","<p><img src= images/blank.png width =""600"" height = ""600"" style=""position:fixed;top:50%; left:50%; transform: translate(-50%, -50%); border:5px solid black"">","","","","","","","",""
"","5371","sequential-stimulus-presentation-old","104","547880","0.0-25.0-1.0","SS1619739883619","trial","","40","500","5871","images/stimuli/spore_stims/simple_12_A_a.gif","images/stimuli/spore_stims/simple_01_A_b.gif","forced_short","","8","simple_dissimilar","images/stimuli/spore_stims/simple_01_A_b.gif","","","","",""
"","null","html-keyboard-response","105","548694","0.0-25.0-0.1","SS1619739883619","","","null","","","","","","<p><img src= images/blank.png width =""600"" height = ""600"" style=""position:fixed;top:50%; left:50%; transform: translate(-50%, -50%); border:5px solid black"">","","","","","","","",""
"","855","sequential-stimulus-presentation-old","106","550059","0.0-25.0-1.1","SS1619739883619","trial","","40","500","1355","images/stimuli/spore_stims/simple_12_A_a.gif","images/stimuli/spore_stims/simple_01_A_b.gif","forced_short","","8","simple_dissimilar","images/stimuli/spore_stims/simple_01_A_b.gif","","","","",""
"","null","html-keyboard-response","107","551155","0.0-25.0-0.2","SS1619739883619","","","null","","","","","","<p><img src= images/blank.png width =""600"" height = ""600"" style=""position:fixed;top:50%; left:50%; transform: translate(-50%, -50%); border:5px solid black"">","","","","","","","",""
"","219","sequential-stimulus-presentation-old","108","551889","0.0-25.0-1.2","SS1619739883619","trial","","40","500","719","images/stimuli/spore_stims/simple_12_A_a.gif","images/stimuli/spore_stims/simple_01_A_b.gif","forced_short","","8","simple_dissimilar","images/stimuli/spore_stims/simple_12_A_a.gif","","","","",""
"","null","html-keyboard-response","109","553110","0.0-25.0-0.3","SS1619739883619","","","null","","","","","","<p><img src= images/blank.png width =""600"" height = ""600"" style=""position:fixed;top:50%; left:50%; transform: translate(-50%, -50%); border:5px solid black"">","","","","","","","",""
"","358","sequential-stimulus-presentation-old","110","553992","0.0-25.0-1.3","SS1619739883619","trial","","40","500","858","images/stimuli/spore_stims/simple_12_A_a.gif","images/stimuli/spore_stims/simple_01_A_b.gif","forced_short","","8","simple_dissimilar","images/stimuli/spore_stims/simple_01_A_b.gif","","","","",""
"","null","html-keyboard-response","111","555291","0.0-25.0-0.4","SS1619739883619","","","null","","","","","","<p><img src= images/blank.png width =""600"" height = ""600"" style=""position:fixed;top:50%; left:50%; transform: translate(-50%, -50%); border:5px solid black"">","","","","","","","",""
"","10098","sequential-stimulus-presentation-old","112","565900","0.0-25.0-1.4","SS1619739883619","trial","","40","500","10598","images/stimuli/spore_stims/simple_12_A_a.gif","images/stimuli/spore_stims/simple_01_A_b.gif","forced_short","","8","simple_dissimilar","images/stimuli/spore_stims/simple_01_A_b.gif","","","","",""
"","null","html-keyboard-response","113","566730","0.0-25.0-0.5","SS1619739883619","","","null","","","","","","<p><img src= images/blank.png width =""600"" height = ""600"" style=""position:fixed;top:50%; left:50%; transform: translate(-50%, -50%); border:5px solid black"">","","","","","","","",""
"","731","sequential-stimulus-presentation-old","114","567976","0.0-25.0-1.5","SS1619739883619","trial","","40","500","1231","images/stimuli/spore_stims/simple_12_A_a.gif","images/stimuli/spore_stims/simple_01_A_b.gif","forced_short","","8","simple_dissimilar","images/stimuli/spore_stims/simple_12_A_a.gif","","","","",""
"","2536","survey-multi-choice","115","570522","0.0-26.0","SS1619739883619","math_question","","","","","","","","","","","","{""Q0"":""9""}","[0]","9","",""
"","null","html-keyboard-response","116","571791","0.0-27.0-0.0","SS1619739883619","","","null","","","","","","<p><img src= images/blank.png width =""600"" height = ""600"" style=""position:fixed;top:50%; left:50%; transform: translate(-50%, -50%); border:5px solid black"">","","","","","","","",""
"","174","sequential-stimulus-presentation-old","117","572482","0.0-27.0-1.0","SS1619739883619","trial","","40","500","674","images/stimuli/spore_stims/complex_12_A_a.gif","images/stimuli/spore_stims/complex_03_A_b.gif","self_paced","","9","complex_dissimilar","images/stimuli/spore_stims/complex_03_A_b.gif","","","","",""
"","null","html-keyboard-response","118","573665","0.0-27.0-0.1","SS1619739883619","","","null","","","","","","<p><img src= images/blank.png width =""600"" height = ""600"" style=""position:fixed;top:50%; left:50%; transform: translate(-50%, -50%); border:5px solid black"">","","","","","","","",""
"","252","sequential-stimulus-presentation-old","119","574426","0.0-27.0-1.1","SS1619739883619","trial","","40","500","752","images/stimuli/spore_stims/complex_12_A_a.gif","images/stimuli/spore_stims/complex_03_A_b.gif","self_paced","","9","complex_dissimilar","images/stimuli/spore_stims/complex_03_A_b.gif","","","","",""
"","null","html-keyboard-response","120","575681","0.0-27.0-0.2","SS1619739883619","","","null","","","","","","<p><img src= images/blank.png width =""600"" height = ""600"" style=""position:fixed;top:50%; left:50%; transform: translate(-50%, -50%); border:5px solid black"">","","","","","","","",""
"","3090","sequential-stimulus-presentation-old","121","579280","0.0-27.0-1.2","SS1619739883619","trial","","40","500","3590","images/stimuli/spore_stims/complex_12_A_a.gif","images/stimuli/spore_stims/complex_03_A_b.gif","self_paced","","9","complex_dissimilar","images/stimuli/spore_stims/complex_12_A_a.gif","","","","",""
"","null","html-keyboard-response","122","580346","0.0-27.0-0.3","SS1619739883619","","","null","","","","","","<p><img src= images/blank.png width =""600"" height = ""600"" style=""position:fixed;top:50%; left:50%; transform: translate(-50%, -50%); border:5px solid black"">","","","","","","","",""
"","196","sequential-stimulus-presentation-old","123","581066","0.0-27.0-1.3","SS1619739883619","trial","","40","500","696","images/stimuli/spore_stims/complex_12_A_a.gif","images/stimuli/spore_stims/complex_03_A_b.gif","self_paced","","9","complex_dissimilar","images/stimuli/spore_stims/complex_03_A_b.gif","","","","",""
"","4302","survey-multi-choice","124","585378","0.0-28.0","SS1619739883619","math_question","","","","","","","","","","","","{""Q0"":""10""}","[0]","10","",""
"","null","html-keyboard-response","125","586396","0.0-29.0-0.0","SS1619739883619","","","null","","","","","","<p><img src= images/blank.png width =""600"" height = ""600"" style=""position:fixed;top:50%; left:50%; transform: translate(-50%, -50%); border:5px solid black"">","","","","","","","",""
"","26","sequential-stimulus-presentation-old","126","586943","0.0-29.0-1.0","SS1619739883619","trial","","40","500","526","images/stimuli/spore_stims/simple_06_A_a.gif","images/stimuli/spore_stims/simple_09_A_b.gif","self_paced","","10","simple_dissimilar","images/stimuli/spore_stims/simple_09_A_b.gif","","","","",""
"","null","html-keyboard-response","127","587974","0.0-29.0-0.1","SS1619739883619","","","null","","","","","","<p><img src= images/blank.png width =""600"" height = ""600"" style=""position:fixed;top:50%; left:50%; transform: translate(-50%, -50%); border:5px solid black"">","","","","","","","",""
"","94","sequential-stimulus-presentation-old","128","588577","0.0-29.0-1.1","SS1619739883619","trial","","40","500","594","images/stimuli/spore_stims/simple_06_A_a.gif","images/stimuli/spore_stims/simple_09_A_b.gif","self_paced","","10","simple_dissimilar","images/stimuli/spore_stims/simple_09_A_b.gif","","","","",""
"","null","html-keyboard-response","129","589811","0.0-29.0-0.2","SS1619739883619","","","null","","","","","","<p><img src= images/blank.png width =""600"" height = ""600"" style=""position:fixed;top:50%; left:50%; transform: translate(-50%, -50%); border:5px solid black"">","","","","","","","",""
"","1271","sequential-stimulus-presentation-old","130","591603","0.0-29.0-1.2","SS1619739883619","trial","","40","500","1771","images/stimuli/spore_stims/simple_06_A_a.gif","images/stimuli/spore_stims/simple_09_A_b.gif","self_paced","","10","simple_dissimilar","images/stimuli/spore_stims/simple_06_A_a.gif","","","","",""
"","null","html-keyboard-response","131","592795","0.0-29.0-0.3","SS1619739883619","","","null","","","","","","<p><img src= images/blank.png width =""600"" height = ""600"" style=""position:fixed;top:50%; left:50%; transform: translate(-50%, -50%); border:5px solid black"">","","","","","","","",""
"","339","sequential-stimulus-presentation-old","132","593653","0.0-29.0-1.3","SS1619739883619","trial","","40","500","839","images/stimuli/spore_stims/simple_06_A_a.gif","images/stimuli/spore_stims/simple_09_A_b.gif","self_paced","","10","simple_dissimilar","images/stimuli/spore_stims/simple_06_A_a.gif","","","","",""
"","2823","survey-multi-choice","133","596485","0.0-30.0","SS1619739883619","math_question","","","","","","","","","","","","{""Q0"":""10""}","[0]","10","",""
"","null","html-keyboard-response","134","597381","0.0-31.0-0.0","SS1619739883619","","","null","","","","","","<p><img src= images/blank.png width =""600"" height = ""600"" style=""position:fixed;top:50%; left:50%; transform: translate(-50%, -50%); border:5px solid black"">","","","","","","","",""
"","734","sequential-stimulus-presentation-old","135","598628","0.0-31.0-1.0","SS1619739883619","trial","","40","500","1234","images/stimuli/spore_stims/complex_14_A_a.gif","images/stimuli/spore_stims/complex_04_A_b.gif","forced_short","","11","complex_dissimilar","images/stimuli/spore_stims/complex_04_A_b.gif","","","","",""
"","null","html-keyboard-response","136","599770","0.0-31.0-0.1","SS1619739883619","","","null","","","","","","<p><img src= images/blank.png width =""600"" height = ""600"" style=""position:fixed;top:50%; left:50%; transform: translate(-50%, -50%); border:5px solid black"">","","","","","","","",""
"","980","sequential-stimulus-presentation-old","137","601272","0.0-31.0-1.1","SS1619739883619","trial","","40","500","1480","images/stimuli/spore_stims/complex_14_A_a.gif","images/stimuli/spore_stims/complex_04_A_b.gif","forced_short","","11","complex_dissimilar","images/stimuli/spore_stims/complex_04_A_b.gif","","","","",""
"","null","html-keyboard-response","138","602434","0.0-31.0-0.2","SS1619739883619","","","null","","","","","","<p><img src= images/blank.png width =""600"" height = ""600"" style=""position:fixed;top:50%; left:50%; transform: translate(-50%, -50%); border:5px solid black"">","","","","","","","",""
"","3434","sequential-stimulus-presentation-old","139","606389","0.0-31.0-1.2","SS1619739883619","trial","","40","500","3934","images/stimuli/spore_stims/complex_14_A_a.gif","images/stimuli/spore_stims/complex_04_A_b.gif","forced_short","","11","complex_dissimilar","images/stimuli/spore_stims/complex_04_A_b.gif","","","","",""
"","null","html-keyboard-response","140","607291","0.0-31.0-0.3","SS1619739883619","","","null","","","","","","<p><img src= images/blank.png width =""600"" height = ""600"" style=""position:fixed;top:50%; left:50%; transform: translate(-50%, -50%); border:5px solid black"">","","","","","","","",""
"","243","sequential-stimulus-presentation-old","141","608050","0.0-31.0-1.3","SS1619739883619","trial","","40","500","743","images/stimuli/spore_stims/complex_14_A_a.gif","images/stimuli/spore_stims/complex_04_A_b.gif","forced_short","","11","complex_dissimilar","images/stimuli/spore_stims/complex_04_A_b.gif","","","","",""
"","null","html-keyboard-response","142","609344","0.0-31.0-0.4","SS1619739883619","","","null","","","","","","<p><img src= images/blank.png width =""600"" height = ""600"" style=""position:fixed;top:50%; left:50%; transform: translate(-50%, -50%); border:5px solid black"">","","","","","","","",""
"","1501","sequential-stimulus-presentation-old","143","611356","0.0-31.0-1.4","SS1619739883619","trial","","40","500","2001","images/stimuli/spore_stims/complex_14_A_a.gif","images/stimuli/spore_stims/complex_04_A_b.gif","forced_short","","11","complex_dissimilar","images/stimuli/spore_stims/complex_14_A_a.gif","","","","",""
"[{""page_index"":0,""viewing_time"":6361}]","6361","instructions","144","617722","0.0-32.0","SS1619739883619","instructions","","","","","","","","","","","","","","","",""
"","7689","survey-likert","145","625417","0.0-33.0","SS1619739883619","similarity_question","","","","","","","","","","","","{""Q0"":4}","[0]","","images/stimuli/spore_stims/simple_07_A_a.gif","images/stimuli/spore_stims/simple_05_A_b.gif"
"","3510","survey-likert","146","628933","0.0-34.0","SS1619739883619","similarity_question","","","","","","","","","","","","{""Q0"":2}","[0]","","images/stimuli/spore_stims/complex_08_A_b.gif","images/stimuli/spore_stims/complex_11_A_a.gif"
"","2976","survey-likert","147","631914","0.0-35.0","SS1619739883619","similarity_question","","","","","","","","","","","","{""Q0"":4}","[0]","","images/stimuli/spore_stims/simple_09_A_a.gif","images/stimuli/spore_stims/simple_02_A_b.gif"
"","7141","survey-likert","148","639061","0.0-36.0","SS1619739883619","similarity_question","","","","","","","","","","","","{""Q0"":3}","[0]","","images/stimuli/spore_stims/complex_07_A_a.gif","images/stimuli/spore_stims/complex_19_A_b.gif"
"","8228","survey-likert","149","647295","0.0-37.0","SS1619739883619","similarity_question","","","","","","","","","","","","{""Q0"":3}","[0]","","images/stimuli/spore_stims/complex_04_A_b.gif","images/stimuli/spore_stims/complex_14_A_a.gif"
"","4680","survey-likert","150","651981","0.0-38.0","SS1619739883619","similarity_question","","","","","","","","","","","","{""Q0"":5}","[0]","","images/stimuli/spore_stims/simple_01_A_b.gif","images/stimuli/spore_stims/simple_12_A_a.gif"
"","6018","survey-likert","151","658003","0.0-39.0","SS1619739883619","similarity_question","","","","","","","","","","","","{""Q0"":2}","[0]","","images/stimuli/spore_stims/complex_03_A_b.gif","images/stimuli/spore_stims/complex_12_A_a.gif"
"","6088","survey-likert","152","664095","0.0-40.0","SS1619739883619","similarity_question","","","","","","","","","","","","{""Q0"":4}","[0]","","images/stimuli/spore_stims/simple_09_A_b.gif","images/stimuli/spore_stims/simple_06_A_a.gif"
"","3799","survey-likert","153","667900","0.0-41.0","SS1619739883619","similarity_question","","","","","","","","","","","","{""Q0"":2}","[0]","","images/stimuli/spore_stims/complex_20_A_b.gif","images/stimuli/spore_stims/complex_15_A_a.gif"
"","5421","survey-likert","154","673326","0.0-42.0","SS1619739883619","similarity_question","","","","","","","","","","","","{""Q0"":3}","[0]","","images/stimuli/spore_stims/simple_13_A_b.gif","images/stimuli/spore_stims/simple_01_A_a.gif"
"","4814","survey-likert","155","678148","0.0-43.0","SS1619739883619","similarity_question","","","","","","","","","","","","{""Q0"":2}","[0]","","images/stimuli/spore_stims/complex_16_A_a.gif","images/stimuli/spore_stims/complex_07_A_b.gif"
"","3339","survey-likert","156","681492","0.0-44.0","SS1619739883619","similarity_question","","","","","","","","","","","","{""Q0"":3}","[0]","","images/stimuli/spore_stims/simple_08_A_b.gif","images/stimuli/spore_stims/simple_17_A_a.gif"
"[{""page_index"":0,""viewing_time"":3064}]","3064","instructions","157","684560","0.0-45.0","SS1619739883619","instructions","","","","","","","","","","","","","","","",""
"","4467","survey-likert","158","689034","0.0-46.0","SS1619739883619","","","","","","","","","images/stimuli/spore_stims/complex_19_A_b.gif","","","","{""Q0"":5}","[0]","","",""
"","4300","survey-likert","159","693338","0.0-47.0","SS1619739883619","","","","","","","","","images/stimuli/spore_stims/simple_17_A_a.gif","","","","{""Q0"":1}","[0]","","",""
"","2029","survey-likert","160","695373","0.0-48.0","SS1619739883619","","","","","","","","","images/stimuli/spore_stims/complex_03_A_b.gif","","","","{""Q0"":5}","[0]","","",""
"","2469","survey-likert","161","697849","0.0-49.0","SS1619739883619","","","","","","","","","images/stimuli/spore_stims/simple_09_A_a.gif","","","","{""Q0"":1}","[0]","","",""
"","2275","survey-likert","162","700129","0.0-50.0","SS1619739883619","","","","","","","","","images/stimuli/spore_stims/simple_05_A_b.gif","","","","{""Q0"":0}","[0]","","",""
"","7819","survey-likert","163","707953","0.0-51.0","SS1619739883619","","","","","","","","","images/stimuli/spore_stims/complex_14_A_a.gif","","","","{""Q0"":6}","[0]","","",""
"","5601","survey-likert","164","713560","0.0-52.0","SS1619739883619","","","","","","","","","images/stimuli/spore_stims/simple_12_A_a.gif","","","","{""Q0"":2}","[0]","","",""
"","2759","survey-likert","165","716326","0.0-53.0","SS1619739883619","","","","","","","","","images/stimuli/spore_stims/simple_01_A_a.gif","","","","{""Q0"":1}","[0]","","",""
"","3537","survey-likert","166","719869","0.0-54.0","SS1619739883619","","","","","","","","","images/stimuli/spore_stims/complex_15_A_a.gif","","","","{""Q0"":5}","[0]","","",""
"","3522","survey-likert","167","723399","0.0-55.0","SS1619739883619","","","","","","","","","images/stimuli/spore_stims/complex_08_A_b.gif","","","","{""Q0"":5}","[0]","","",""
"","3041","survey-likert","168","726444","0.0-56.0","SS1619739883619","","","","","","","","","images/stimuli/spore_stims/simple_09_A_b.gif","","","","{""Q0"":1}","[0]","","",""
"","4231","survey-likert","169","730682","0.0-57.0","SS1619739883619","","","","","","","","","images/stimuli/spore_stims/complex_16_A_a.gif","","","","{""Q0"":5}","[0]","","",""
"[{""page_index"":0,""viewing_time"":5860}]","5860","instructions","170","736547","0.0-58.0","SS1619739883619","instructions","","","","","","","","","","","","","","","",""
"","2937","demog-age","171","739493","0.0-59.0","SS1619739883619","","","","","","","","","","","","","{""age"":""23""}","","","",""
"","9585","demog-ethnic-US","172","749087","0.0-60.0","SS1619739883619","","","","","","","","","","","","","{""ethnicity"":[""Hispanic or Latino"",""White""]}","[0]","","",""
"","13603","demog-gender-and-education","173","762697","0.0-61.0","SS1619739883619","","","","","","","","","","","","","{""gender"":""Male"",""education"":""High school diploma""}","[0,1]","","",""
"","17350","survey-text","174","780055","0.0-62.0","SS1619739883619","feedback","","","","","","","","","","","","{""Q0"":""Everthing went well!""}","","","",""
"[{""page_index"":0,""viewing_time"":1532}]","1532","instructions","175","781593","0.0-63.0","SS1619739883619","instructions","","","","","","","","","","","","","","","",""
