"view_history","rt","trial_type","trial_index","time_elapsed","internal_node_id","subject","stimulus_type","trial_stimulus","key_press","minimum_viewing_duration","trial_looking_time","block_deviant","block_background","exposure_type","stimulus","block_number","block_type","stimulus_displayed","responses","question_order","math_correct_answer","stimulus_left","stimulus_right"
"[{""page_index"":0,""viewing_time"":13101}]","13101","instructions","0","13106","0.0-0.0","SS1619739901888","","","","","","","","","","","","","","","","",""
"[{""page_index"":0,""viewing_time"":18087},{""page_index"":1,""viewing_time"":60775}]","78862","instructions","1","93977","0.0-1.0","SS1619739901888","instructions","","","","","","","","","","","","","","","",""
"","11718","sequential-stimulus-presentation-old","2","106207","0.0-2.0","SS1619739901888","","","40","500","12218","null","null","self_paced","","","","","","","","",""
"","7254","sequential-stimulus-presentation-old","3","113971","0.0-3.0","SS1619739901888","","","40","500","7754","null","null","self_paced","","","","","","","","",""
"[{""page_index"":0,""viewing_time"":29003}]","29003","instructions","4","142978","0.0-4.0","SS1619739901888","instructions","","","","","","","","","","","","","","","",""
"","4206","sequential-stimulus-presentation-old","5","162194","0.0-5.0","SS1619739901888","","","40","500","4706","null","null","forced_long","","","","","","","","",""
"","7115","sequential-stimulus-presentation-old","6","169820","0.0-6.0","SS1619739901888","","","40","500","7615","null","null","forced_long","","","","","","","","",""
"[{""page_index"":0,""viewing_time"":5091}]","5091","instructions","7","174914","0.0-7.0","SS1619739901888","instructions","","","","","","","","","","","","","","","",""
"[{""page_index"":0,""viewing_time"":13367},{""page_index"":1,""viewing_time"":17072},{""page_index"":2,""viewing_time"":5952},{""page_index"":3,""viewing_time"":2128},{""page_index"":4,""viewing_time"":1544}]","40063","instructions","8","214977","0.0-8.0","SS1619739901888","instructions","","","","","","","","","","","","","","","",""
"","null","html-keyboard-response","9","216213","0.0-9.0-0.0","SS1619739901888","","","null","","","","","","<p><img src= images/blank.png width =""600"" height = ""600"" style=""position:fixed;top:50%; left:50%; transform: translate(-50%, -50%); border:5px solid black"">","","","","","","","",""
"","30196","sequential-stimulus-presentation-old","10","246929","0.0-9.0-1.0","SS1619739901888","trial","","40","500","30696","images/stimuli/spore_stims/simple_16_A_a.gif","images/stimuli/spore_stims/simple_02_A_b.gif","self_paced","","0","simple_dissimilar","images/stimuli/spore_stims/simple_02_A_b.gif","","","","",""
"","null","html-keyboard-response","11","248227","0.0-9.0-0.1","SS1619739901888","","","null","","","","","","<p><img src= images/blank.png width =""600"" height = ""600"" style=""position:fixed;top:50%; left:50%; transform: translate(-50%, -50%); border:5px solid black"">","","","","","","","",""
"","16199","sequential-stimulus-presentation-old","12","264931","0.0-9.0-1.1","SS1619739901888","trial","","40","500","16699","images/stimuli/spore_stims/simple_16_A_a.gif","images/stimuli/spore_stims/simple_02_A_b.gif","self_paced","","0","simple_dissimilar","images/stimuli/spore_stims/simple_02_A_b.gif","","","","",""
"","null","html-keyboard-response","13","266206","0.0-9.0-0.2","SS1619739901888","","","null","","","","","","<p><img src= images/blank.png width =""600"" height = ""600"" style=""position:fixed;top:50%; left:50%; transform: translate(-50%, -50%); border:5px solid black"">","","","","","","","",""
"","5205","sequential-stimulus-presentation-old","14","271927","0.0-9.0-1.2","SS1619739901888","trial","","40","500","5705","images/stimuli/spore_stims/simple_16_A_a.gif","images/stimuli/spore_stims/simple_02_A_b.gif","self_paced","","0","simple_dissimilar","images/stimuli/spore_stims/simple_02_A_b.gif","","","","",""
"","null","html-keyboard-response","15","273227","0.0-9.0-0.3","SS1619739901888","","","null","","","","","","<p><img src= images/blank.png width =""600"" height = ""600"" style=""position:fixed;top:50%; left:50%; transform: translate(-50%, -50%); border:5px solid black"">","","","","","","","",""
"","14072","sequential-stimulus-presentation-old","16","287814","0.0-9.0-1.3","SS1619739901888","trial","","40","500","14572","images/stimuli/spore_stims/simple_16_A_a.gif","images/stimuli/spore_stims/simple_02_A_b.gif","self_paced","","0","simple_dissimilar","images/stimuli/spore_stims/simple_02_A_b.gif","","","","",""
"","10221","survey-multi-choice","17","298040","0.0-10.0","SS1619739901888","math_question","","","","","","","","","","","","{""Q0"":""15""}","[0]","15","",""
"","null","html-keyboard-response","18","299228","0.0-11.0-0.0","SS1619739901888","","","null","","","","","","<p><img src= images/blank.png width =""600"" height = ""600"" style=""position:fixed;top:50%; left:50%; transform: translate(-50%, -50%); border:5px solid black"">","","","","","","","",""
"","4118","sequential-stimulus-presentation-old","19","303850","0.0-11.0-1.0","SS1619739901888","trial","","40","500","4618","images/stimuli/spore_stims/complex_04_A_a.gif","images/stimuli/spore_stims/complex_05_A_b.gif","forced_short","","1","complex_dissimilar","images/stimuli/spore_stims/complex_05_A_b.gif","","","","",""
"","null","html-keyboard-response","20","304967","0.0-11.0-0.1","SS1619739901888","","","null","","","","","","<p><img src= images/blank.png width =""600"" height = ""600"" style=""position:fixed;top:50%; left:50%; transform: translate(-50%, -50%); border:5px solid black"">","","","","","","","",""
"","14002","sequential-stimulus-presentation-old","21","319473","0.0-11.0-1.1","SS1619739901888","trial","","40","500","14502","images/stimuli/spore_stims/complex_04_A_a.gif","images/stimuli/spore_stims/complex_05_A_b.gif","forced_short","","1","complex_dissimilar","images/stimuli/spore_stims/complex_05_A_b.gif","","","","",""
"","null","html-keyboard-response","22","320532","0.0-11.0-0.2","SS1619739901888","","","null","","","","","","<p><img src= images/blank.png width =""600"" height = ""600"" style=""position:fixed;top:50%; left:50%; transform: translate(-50%, -50%); border:5px solid black"">","","","","","","","",""
"","6938","sequential-stimulus-presentation-old","23","327984","0.0-11.0-1.2","SS1619739901888","trial","","40","500","7438","images/stimuli/spore_stims/complex_04_A_a.gif","images/stimuli/spore_stims/complex_05_A_b.gif","forced_short","","1","complex_dissimilar","images/stimuli/spore_stims/complex_05_A_b.gif","","","","",""
"","null","html-keyboard-response","24","328987","0.0-11.0-0.3","SS1619739901888","","","null","","","","","","<p><img src= images/blank.png width =""600"" height = ""600"" style=""position:fixed;top:50%; left:50%; transform: translate(-50%, -50%); border:5px solid black"">","","","","","","","",""
"","7371","sequential-stimulus-presentation-old","25","336867","0.0-11.0-1.3","SS1619739901888","trial","","40","500","7871","images/stimuli/spore_stims/complex_04_A_a.gif","images/stimuli/spore_stims/complex_05_A_b.gif","forced_short","","1","complex_dissimilar","images/stimuli/spore_stims/complex_05_A_b.gif","","","","",""
"","null","html-keyboard-response","26","337749","0.0-11.0-0.4","SS1619739901888","","","null","","","","","","<p><img src= images/blank.png width =""600"" height = ""600"" style=""position:fixed;top:50%; left:50%; transform: translate(-50%, -50%); border:5px solid black"">","","","","","","","",""
"","19036","sequential-stimulus-presentation-old","27","357299","0.0-11.0-1.4","SS1619739901888","trial","","40","500","19536","images/stimuli/spore_stims/complex_04_A_a.gif","images/stimuli/spore_stims/complex_05_A_b.gif","forced_short","","1","complex_dissimilar","images/stimuli/spore_stims/complex_04_A_a.gif","","","","",""
"","null","html-keyboard-response","28","358575","0.0-11.0-0.5","SS1619739901888","","","null","","","","","","<p><img src= images/blank.png width =""600"" height = ""600"" style=""position:fixed;top:50%; left:50%; transform: translate(-50%, -50%); border:5px solid black"">","","","","","","","",""
"","8133","sequential-stimulus-presentation-old","29","367225","0.0-11.0-1.5","SS1619739901888","trial","","40","500","8633","images/stimuli/spore_stims/complex_04_A_a.gif","images/stimuli/spore_stims/complex_05_A_b.gif","forced_short","","1","complex_dissimilar","images/stimuli/spore_stims/complex_04_A_a.gif","","","","",""
"","5452","survey-multi-choice","30","372681","0.0-12.0","SS1619739901888","math_question","","","","","","","","","","","","{""Q0"":""7""}","[0]","7","",""
"","null","html-keyboard-response","31","373784","0.0-13.0-0.0","SS1619739901888","","","null","","","","","","<p><img src= images/blank.png width =""600"" height = ""600"" style=""position:fixed;top:50%; left:50%; transform: translate(-50%, -50%); border:5px solid black"">","","","","","","","",""
"","6518","sequential-stimulus-presentation-old","32","395316","0.0-13.0-1.0","SS1619739901888","trial","","40","500","7018","images/stimuli/spore_stims/complex_01_A_b.gif","images/stimuli/spore_stims/complex_17_A_a.gif","forced_long","","2","complex_dissimilar","images/stimuli/spore_stims/complex_17_A_a.gif","","","","",""
"","null","html-keyboard-response","33","396143","0.0-13.0-0.1","SS1619739901888","","","null","","","","","","<p><img src= images/blank.png width =""600"" height = ""600"" style=""position:fixed;top:50%; left:50%; transform: translate(-50%, -50%); border:5px solid black"">","","","","","","","",""
"","4477","sequential-stimulus-presentation-old","34","401135","0.0-13.0-1.1","SS1619739901888","trial","","40","500","4977","images/stimuli/spore_stims/complex_01_A_b.gif","images/stimuli/spore_stims/complex_17_A_a.gif","forced_long","","2","complex_dissimilar","images/stimuli/spore_stims/complex_17_A_a.gif","","","","",""
"","null","html-keyboard-response","35","401996","0.0-13.0-0.2","SS1619739901888","","","null","","","","","","<p><img src= images/blank.png width =""600"" height = ""600"" style=""position:fixed;top:50%; left:50%; transform: translate(-50%, -50%); border:5px solid black"">","","","","","","","",""
"","11692","sequential-stimulus-presentation-old","36","414200","0.0-13.0-1.2","SS1619739901888","trial","","40","500","12192","images/stimuli/spore_stims/complex_01_A_b.gif","images/stimuli/spore_stims/complex_17_A_a.gif","forced_long","","2","complex_dissimilar","images/stimuli/spore_stims/complex_01_A_b.gif","","","","",""
"","null","html-keyboard-response","37","415006","0.0-13.0-0.3","SS1619739901888","","","null","","","","","","<p><img src= images/blank.png width =""600"" height = ""600"" style=""position:fixed;top:50%; left:50%; transform: translate(-50%, -50%); border:5px solid black"">","","","","","","","",""
"","9152","sequential-stimulus-presentation-old","38","424673","0.0-13.0-1.3","SS1619739901888","trial","","40","500","9652","images/stimuli/spore_stims/complex_01_A_b.gif","images/stimuli/spore_stims/complex_17_A_a.gif","forced_long","","2","complex_dissimilar","images/stimuli/spore_stims/complex_17_A_a.gif","","","","",""
"","null","html-keyboard-response","39","425683","0.0-13.0-0.4","SS1619739901888","","","null","","","","","","<p><img src= images/blank.png width =""600"" height = ""600"" style=""position:fixed;top:50%; left:50%; transform: translate(-50%, -50%); border:5px solid black"">","","","","","","","",""
"","3718","sequential-stimulus-presentation-old","40","429905","0.0-13.0-1.4","SS1619739901888","trial","","40","500","4218","images/stimuli/spore_stims/complex_01_A_b.gif","images/stimuli/spore_stims/complex_17_A_a.gif","forced_long","","2","complex_dissimilar","images/stimuli/spore_stims/complex_01_A_b.gif","","","","",""
"","null","html-keyboard-response","41","431101","0.0-13.0-0.5","SS1619739901888","","","null","","","","","","<p><img src= images/blank.png width =""600"" height = ""600"" style=""position:fixed;top:50%; left:50%; transform: translate(-50%, -50%); border:5px solid black"">","","","","","","","",""
"","6664","sequential-stimulus-presentation-old","42","438271","0.0-13.0-1.5","SS1619739901888","trial","","40","500","7164","images/stimuli/spore_stims/complex_01_A_b.gif","images/stimuli/spore_stims/complex_17_A_a.gif","forced_long","","2","complex_dissimilar","images/stimuli/spore_stims/complex_17_A_a.gif","","","","",""
"","5991","survey-multi-choice","43","444266","0.0-14.0","SS1619739901888","math_question","","","","","","","","","","","","{""Q0"":""12""}","[0]","12","",""
"","null","html-keyboard-response","44","445533","0.0-15.0-0.0","SS1619739901888","","","null","","","","","","<p><img src= images/blank.png width =""600"" height = ""600"" style=""position:fixed;top:50%; left:50%; transform: translate(-50%, -50%); border:5px solid black"">","","","","","","","",""
"","11697","sequential-stimulus-presentation-old","45","457740","0.0-15.0-1.0","SS1619739901888","trial","","40","500","12197","images/stimuli/spore_stims/complex_07_A_a.gif","images/stimuli/spore_stims/complex_12_A_b.gif","self_paced","","3","complex_dissimilar","images/stimuli/spore_stims/complex_12_A_b.gif","","","","",""
"","null","html-keyboard-response","46","458632","0.0-15.0-0.1","SS1619739901888","","","null","","","","","","<p><img src= images/blank.png width =""600"" height = ""600"" style=""position:fixed;top:50%; left:50%; transform: translate(-50%, -50%); border:5px solid black"">","","","","","","","",""
"","13906","sequential-stimulus-presentation-old","47","473041","0.0-15.0-1.1","SS1619739901888","trial","","40","500","14406","images/stimuli/spore_stims/complex_07_A_a.gif","images/stimuli/spore_stims/complex_12_A_b.gif","self_paced","","3","complex_dissimilar","images/stimuli/spore_stims/complex_12_A_b.gif","","","","",""
"","null","html-keyboard-response","48","474311","0.0-15.0-0.2","SS1619739901888","","","null","","","","","","<p><img src= images/blank.png width =""600"" height = ""600"" style=""position:fixed;top:50%; left:50%; transform: translate(-50%, -50%); border:5px solid black"">","","","","","","","",""
"","4920","sequential-stimulus-presentation-old","49","479743","0.0-15.0-1.2","SS1619739901888","trial","","40","500","5420","images/stimuli/spore_stims/complex_07_A_a.gif","images/stimuli/spore_stims/complex_12_A_b.gif","self_paced","","3","complex_dissimilar","images/stimuli/spore_stims/complex_12_A_b.gif","","","","",""
"","null","html-keyboard-response","50","480732","0.0-15.0-0.3","SS1619739901888","","","null","","","","","","<p><img src= images/blank.png width =""600"" height = ""600"" style=""position:fixed;top:50%; left:50%; transform: translate(-50%, -50%); border:5px solid black"">","","","","","","","",""
"","24259","sequential-stimulus-presentation-old","51","505499","0.0-15.0-1.3","SS1619739901888","trial","","40","500","24759","images/stimuli/spore_stims/complex_07_A_a.gif","images/stimuli/spore_stims/complex_12_A_b.gif","self_paced","","3","complex_dissimilar","images/stimuli/spore_stims/complex_07_A_a.gif","","","","",""
"","null","html-keyboard-response","52","506607","0.0-15.0-0.4","SS1619739901888","","","null","","","","","","<p><img src= images/blank.png width =""600"" height = ""600"" style=""position:fixed;top:50%; left:50%; transform: translate(-50%, -50%); border:5px solid black"">","","","","","","","",""
"","6117","sequential-stimulus-presentation-old","53","513233","0.0-15.0-1.4","SS1619739901888","trial","","40","500","6617","images/stimuli/spore_stims/complex_07_A_a.gif","images/stimuli/spore_stims/complex_12_A_b.gif","self_paced","","3","complex_dissimilar","images/stimuli/spore_stims/complex_07_A_a.gif","","","","",""
"","4958","survey-multi-choice","54","518196","0.0-16.0","SS1619739901888","math_question","","","","","","","","","","","","{""Q0"":""4""}","[0]","4","",""
"","null","html-keyboard-response","55","519027","0.0-17.0-0.0","SS1619739901888","","","null","","","","","","<p><img src= images/blank.png width =""600"" height = ""600"" style=""position:fixed;top:50%; left:50%; transform: translate(-50%, -50%); border:5px solid black"">","","","","","","","",""
"","4580","sequential-stimulus-presentation-old","56","538616","0.0-17.0-1.0","SS1619739901888","trial","","40","500","5080","images/stimuli/spore_stims/simple_14_A_a.gif","images/stimuli/spore_stims/simple_07_A_b.gif","forced_long","","4","simple_dissimilar","images/stimuli/spore_stims/simple_07_A_b.gif","","","","",""
"","null","html-keyboard-response","57","539625","0.0-17.0-0.1","SS1619739901888","","","null","","","","","","<p><img src= images/blank.png width =""600"" height = ""600"" style=""position:fixed;top:50%; left:50%; transform: translate(-50%, -50%); border:5px solid black"">","","","","","","","",""
"","10395","sequential-stimulus-presentation-old","58","550537","0.0-17.0-1.1","SS1619739901888","trial","","40","500","10895","images/stimuli/spore_stims/simple_14_A_a.gif","images/stimuli/spore_stims/simple_07_A_b.gif","forced_long","","4","simple_dissimilar","images/stimuli/spore_stims/simple_07_A_b.gif","","","","",""
"","null","html-keyboard-response","59","551691","0.0-17.0-0.2","SS1619739901888","","","null","","","","","","<p><img src= images/blank.png width =""600"" height = ""600"" style=""position:fixed;top:50%; left:50%; transform: translate(-50%, -50%); border:5px solid black"">","","","","","","","",""
"","8937","sequential-stimulus-presentation-old","60","561134","0.0-17.0-1.2","SS1619739901888","trial","","40","500","9437","images/stimuli/spore_stims/simple_14_A_a.gif","images/stimuli/spore_stims/simple_07_A_b.gif","forced_long","","4","simple_dissimilar","images/stimuli/spore_stims/simple_07_A_b.gif","","","","",""
"","null","html-keyboard-response","61","562431","0.0-17.0-0.3","SS1619739901888","","","null","","","","","","<p><img src= images/blank.png width =""600"" height = ""600"" style=""position:fixed;top:50%; left:50%; transform: translate(-50%, -50%); border:5px solid black"">","","","","","","","",""
"","5443","sequential-stimulus-presentation-old","62","568385","0.0-17.0-1.3","SS1619739901888","trial","","40","500","5943","images/stimuli/spore_stims/simple_14_A_a.gif","images/stimuli/spore_stims/simple_07_A_b.gif","forced_long","","4","simple_dissimilar","images/stimuli/spore_stims/simple_07_A_b.gif","","","","",""
"","null","html-keyboard-response","63","569232","0.0-17.0-0.4","SS1619739901888","","","null","","","","","","<p><img src= images/blank.png width =""600"" height = ""600"" style=""position:fixed;top:50%; left:50%; transform: translate(-50%, -50%); border:5px solid black"">","","","","","","","",""
"","8728","sequential-stimulus-presentation-old","64","578479","0.0-17.0-1.4","SS1619739901888","trial","","40","500","9228","images/stimuli/spore_stims/simple_14_A_a.gif","images/stimuli/spore_stims/simple_07_A_b.gif","forced_long","","4","simple_dissimilar","images/stimuli/spore_stims/simple_07_A_b.gif","","","","",""
"","4923","survey-multi-choice","65","583407","0.0-18.0","SS1619739901888","math_question","","","","","","","","","","","","{""Q0"":""16""}","[0]","16","",""
"","null","html-keyboard-response","66","584316","0.0-19.0-0.0","SS1619739901888","","","null","","","","","","<p><img src= images/blank.png width =""600"" height = ""600"" style=""position:fixed;top:50%; left:50%; transform: translate(-50%, -50%); border:5px solid black"">","","","","","","","",""
"","2738","sequential-stimulus-presentation-old","67","587573","0.0-19.0-1.0","SS1619739901888","trial","","40","500","3238","images/stimuli/spore_stims/complex_01_A_a.gif","images/stimuli/spore_stims/complex_08_A_b.gif","forced_short","","5","complex_dissimilar","images/stimuli/spore_stims/complex_08_A_b.gif","","","","",""
"","null","html-keyboard-response","68","588782","0.0-19.0-0.1","SS1619739901888","","","null","","","","","","<p><img src= images/blank.png width =""600"" height = ""600"" style=""position:fixed;top:50%; left:50%; transform: translate(-50%, -50%); border:5px solid black"">","","","","","","","",""
"","3283","sequential-stimulus-presentation-old","69","592579","0.0-19.0-1.1","SS1619739901888","trial","","40","500","3783","images/stimuli/spore_stims/complex_01_A_a.gif","images/stimuli/spore_stims/complex_08_A_b.gif","forced_short","","5","complex_dissimilar","images/stimuli/spore_stims/complex_01_A_a.gif","","","","",""
"","null","html-keyboard-response","70","593871","0.0-19.0-0.2","SS1619739901888","","","null","","","","","","<p><img src= images/blank.png width =""600"" height = ""600"" style=""position:fixed;top:50%; left:50%; transform: translate(-50%, -50%); border:5px solid black"">","","","","","","","",""
"","13908","sequential-stimulus-presentation-old","71","608290","0.0-19.0-1.2","SS1619739901888","trial","","40","500","14408","images/stimuli/spore_stims/complex_01_A_a.gif","images/stimuli/spore_stims/complex_08_A_b.gif","forced_short","","5","complex_dissimilar","images/stimuli/spore_stims/complex_08_A_b.gif","","","","",""
"","null","html-keyboard-response","72","609571","0.0-19.0-0.3","SS1619739901888","","","null","","","","","","<p><img src= images/blank.png width =""600"" height = ""600"" style=""position:fixed;top:50%; left:50%; transform: translate(-50%, -50%); border:5px solid black"">","","","","","","","",""
"","5285","sequential-stimulus-presentation-old","73","615376","0.0-19.0-1.3","SS1619739901888","trial","","40","500","5785","images/stimuli/spore_stims/complex_01_A_a.gif","images/stimuli/spore_stims/complex_08_A_b.gif","forced_short","","5","complex_dissimilar","images/stimuli/spore_stims/complex_08_A_b.gif","","","","",""
"","null","html-keyboard-response","74","616233","0.0-19.0-0.4","SS1619739901888","","","null","","","","","","<p><img src= images/blank.png width =""600"" height = ""600"" style=""position:fixed;top:50%; left:50%; transform: translate(-50%, -50%); border:5px solid black"">","","","","","","","",""
"","4113","sequential-stimulus-presentation-old","75","620855","0.0-19.0-1.4","SS1619739901888","trial","","40","500","4613","images/stimuli/spore_stims/complex_01_A_a.gif","images/stimuli/spore_stims/complex_08_A_b.gif","forced_short","","5","complex_dissimilar","images/stimuli/spore_stims/complex_01_A_a.gif","","","","",""
"","5073","survey-multi-choice","76","625934","0.0-20.0","SS1619739901888","math_question","","","","","","","","","","","","{""Q0"":""16""}","[0]","16","",""
"","null","html-keyboard-response","77","627091","0.0-21.0-0.0","SS1619739901888","","","null","","","","","","<p><img src= images/blank.png width =""600"" height = ""600"" style=""position:fixed;top:50%; left:50%; transform: translate(-50%, -50%); border:5px solid black"">","","","","","","","",""
"","9323","sequential-stimulus-presentation-old","78","636924","0.0-21.0-1.0","SS1619739901888","trial","","40","500","9823","images/stimuli/spore_stims/complex_10_A_a.gif","images/stimuli/spore_stims/complex_06_A_b.gif","self_paced","","6","complex_dissimilar","images/stimuli/spore_stims/complex_06_A_b.gif","","","","",""
"","null","html-keyboard-response","79","638194","0.0-21.0-0.1","SS1619739901888","","","null","","","","","","<p><img src= images/blank.png width =""600"" height = ""600"" style=""position:fixed;top:50%; left:50%; transform: translate(-50%, -50%); border:5px solid black"">","","","","","","","",""
"","9146","sequential-stimulus-presentation-old","80","647847","0.0-21.0-1.1","SS1619739901888","trial","","40","500","9646","images/stimuli/spore_stims/complex_10_A_a.gif","images/stimuli/spore_stims/complex_06_A_b.gif","self_paced","","6","complex_dissimilar","images/stimuli/spore_stims/complex_10_A_a.gif","","","","",""
"","null","html-keyboard-response","81","648967","0.0-21.0-0.2","SS1619739901888","","","null","","","","","","<p><img src= images/blank.png width =""600"" height = ""600"" style=""position:fixed;top:50%; left:50%; transform: translate(-50%, -50%); border:5px solid black"">","","","","","","","",""
"","2972","sequential-stimulus-presentation-old","82","652453","0.0-21.0-1.2","SS1619739901888","trial","","40","500","3472","images/stimuli/spore_stims/complex_10_A_a.gif","images/stimuli/spore_stims/complex_06_A_b.gif","self_paced","","6","complex_dissimilar","images/stimuli/spore_stims/complex_06_A_b.gif","","","","",""
"","null","html-keyboard-response","83","653475","0.0-21.0-0.3","SS1619739901888","","","null","","","","","","<p><img src= images/blank.png width =""600"" height = ""600"" style=""position:fixed;top:50%; left:50%; transform: translate(-50%, -50%); border:5px solid black"">","","","","","","","",""
"","6197","sequential-stimulus-presentation-old","84","660189","0.0-21.0-1.3","SS1619739901888","trial","","40","500","6697","images/stimuli/spore_stims/complex_10_A_a.gif","images/stimuli/spore_stims/complex_06_A_b.gif","self_paced","","6","complex_dissimilar","images/stimuli/spore_stims/complex_10_A_a.gif","","","","",""
"","null","html-keyboard-response","85","661101","0.0-21.0-0.4","SS1619739901888","","","null","","","","","","<p><img src= images/blank.png width =""600"" height = ""600"" style=""position:fixed;top:50%; left:50%; transform: translate(-50%, -50%); border:5px solid black"">","","","","","","","",""
"","12877","sequential-stimulus-presentation-old","86","674494","0.0-21.0-1.4","SS1619739901888","trial","","40","500","13377","images/stimuli/spore_stims/complex_10_A_a.gif","images/stimuli/spore_stims/complex_06_A_b.gif","self_paced","","6","complex_dissimilar","images/stimuli/spore_stims/complex_06_A_b.gif","","","","",""
"","null","html-keyboard-response","87","675379","0.0-21.0-0.5","SS1619739901888","","","null","","","","","","<p><img src= images/blank.png width =""600"" height = ""600"" style=""position:fixed;top:50%; left:50%; transform: translate(-50%, -50%); border:5px solid black"">","","","","","","","",""
"","2481","sequential-stimulus-presentation-old","88","678367","0.0-21.0-1.5","SS1619739901888","trial","","40","500","2981","images/stimuli/spore_stims/complex_10_A_a.gif","images/stimuli/spore_stims/complex_06_A_b.gif","self_paced","","6","complex_dissimilar","images/stimuli/spore_stims/complex_06_A_b.gif","","","","",""
"","5107","survey-multi-choice","89","683481","0.0-22.0","SS1619739901888","math_question","","","","","","","","","","","","{""Q0"":""8""}","[0]","8","",""
"","null","html-keyboard-response","90","684571","0.0-23.0-0.0","SS1619739901888","","","null","","","","","","<p><img src= images/blank.png width =""600"" height = ""600"" style=""position:fixed;top:50%; left:50%; transform: translate(-50%, -50%); border:5px solid black"">","","","","","","","",""
"","22078","sequential-stimulus-presentation-old","91","707170","0.0-23.0-1.0","SS1619739901888","trial","","40","500","22578","images/stimuli/spore_stims/simple_11_A_a.gif","images/stimuli/spore_stims/simple_18_A_b.gif","self_paced","","7","simple_dissimilar","images/stimuli/spore_stims/simple_18_A_b.gif","","","","",""
"","null","html-keyboard-response","92","708118","0.0-23.0-0.1","SS1619739901888","","","null","","","","","","<p><img src= images/blank.png width =""600"" height = ""600"" style=""position:fixed;top:50%; left:50%; transform: translate(-50%, -50%); border:5px solid black"">","","","","","","","",""
"","4635","sequential-stimulus-presentation-old","93","713266","0.0-23.0-1.1","SS1619739901888","trial","","40","500","5135","images/stimuli/spore_stims/simple_11_A_a.gif","images/stimuli/spore_stims/simple_18_A_b.gif","self_paced","","7","simple_dissimilar","images/stimuli/spore_stims/simple_18_A_b.gif","","","","",""
"","null","html-keyboard-response","94","714171","0.0-23.0-0.2","SS1619739901888","","","null","","","","","","<p><img src= images/blank.png width =""600"" height = ""600"" style=""position:fixed;top:50%; left:50%; transform: translate(-50%, -50%); border:5px solid black"">","","","","","","","",""
"","3852","sequential-stimulus-presentation-old","95","718543","0.0-23.0-1.2","SS1619739901888","trial","","40","500","4352","images/stimuli/spore_stims/simple_11_A_a.gif","images/stimuli/spore_stims/simple_18_A_b.gif","self_paced","","7","simple_dissimilar","images/stimuli/spore_stims/simple_18_A_b.gif","","","","",""
"","null","html-keyboard-response","96","719791","0.0-23.0-0.3","SS1619739901888","","","null","","","","","","<p><img src= images/blank.png width =""600"" height = ""600"" style=""position:fixed;top:50%; left:50%; transform: translate(-50%, -50%); border:5px solid black"">","","","","","","","",""
"","1924","sequential-stimulus-presentation-old","97","722225","0.0-23.0-1.3","SS1619739901888","trial","","40","500","2424","images/stimuli/spore_stims/simple_11_A_a.gif","images/stimuli/spore_stims/simple_18_A_b.gif","self_paced","","7","simple_dissimilar","images/stimuli/spore_stims/simple_18_A_b.gif","","","","",""
"","null","html-keyboard-response","98","723170","0.0-23.0-0.4","SS1619739901888","","","null","","","","","","<p><img src= images/blank.png width =""600"" height = ""600"" style=""position:fixed;top:50%; left:50%; transform: translate(-50%, -50%); border:5px solid black"">","","","","","","","",""
"","4973","sequential-stimulus-presentation-old","99","728656","0.0-23.0-1.4","SS1619739901888","trial","","40","500","5473","images/stimuli/spore_stims/simple_11_A_a.gif","images/stimuli/spore_stims/simple_18_A_b.gif","self_paced","","7","simple_dissimilar","images/stimuli/spore_stims/simple_18_A_b.gif","","","","",""
"","9097","survey-multi-choice","100","737761","0.0-24.0","SS1619739901888","math_question","","","","","","","","","","","","{""Q0"":""17""}","[0]","17","",""
"","null","html-keyboard-response","101","739001","0.0-25.0-0.0","SS1619739901888","","","null","","","","","","<p><img src= images/blank.png width =""600"" height = ""600"" style=""position:fixed;top:50%; left:50%; transform: translate(-50%, -50%); border:5px solid black"">","","","","","","","",""
"","1575","sequential-stimulus-presentation-old","102","741086","0.0-25.0-1.0","SS1619739901888","trial","","40","500","2075","images/stimuli/spore_stims/simple_11_A_b.gif","images/stimuli/spore_stims/simple_17_A_a.gif","forced_short","","8","simple_dissimilar","images/stimuli/spore_stims/simple_17_A_a.gif","","","","",""
"","null","html-keyboard-response","103","741925","0.0-25.0-0.1","SS1619739901888","","","null","","","","","","<p><img src= images/blank.png width =""600"" height = ""600"" style=""position:fixed;top:50%; left:50%; transform: translate(-50%, -50%); border:5px solid black"">","","","","","","","",""
"","3223","sequential-stimulus-presentation-old","104","745655","0.0-25.0-1.1","SS1619739901888","trial","","40","500","3723","images/stimuli/spore_stims/simple_11_A_b.gif","images/stimuli/spore_stims/simple_17_A_a.gif","forced_short","","8","simple_dissimilar","images/stimuli/spore_stims/simple_11_A_b.gif","","","","",""
"","null","html-keyboard-response","105","746917","0.0-25.0-0.2","SS1619739901888","","","null","","","","","","<p><img src= images/blank.png width =""600"" height = ""600"" style=""position:fixed;top:50%; left:50%; transform: translate(-50%, -50%); border:5px solid black"">","","","","","","","",""
"","7493","sequential-stimulus-presentation-old","106","754924","0.0-25.0-1.2","SS1619739901888","trial","","40","500","7993","images/stimuli/spore_stims/simple_11_A_b.gif","images/stimuli/spore_stims/simple_17_A_a.gif","forced_short","","8","simple_dissimilar","images/stimuli/spore_stims/simple_17_A_a.gif","","","","",""
"","null","html-keyboard-response","107","756041","0.0-25.0-0.3","SS1619739901888","","","null","","","","","","<p><img src= images/blank.png width =""600"" height = ""600"" style=""position:fixed;top:50%; left:50%; transform: translate(-50%, -50%); border:5px solid black"">","","","","","","","",""
"","9008","sequential-stimulus-presentation-old","108","765569","0.0-25.0-1.3","SS1619739901888","trial","","40","500","9508","images/stimuli/spore_stims/simple_11_A_b.gif","images/stimuli/spore_stims/simple_17_A_a.gif","forced_short","","8","simple_dissimilar","images/stimuli/spore_stims/simple_11_A_b.gif","","","","",""
"","6389","survey-multi-choice","109","771965","0.0-26.0","SS1619739901888","math_question","","","","","","","","","","","","{""Q0"":""13""}","[0]","13","",""
"","null","html-keyboard-response","110","772825","0.0-27.0-0.0","SS1619739901888","","","null","","","","","","<p><img src= images/blank.png width =""600"" height = ""600"" style=""position:fixed;top:50%; left:50%; transform: translate(-50%, -50%); border:5px solid black"">","","","","","","","",""
"","1419","sequential-stimulus-presentation-old","111","789264","0.0-27.0-1.0","SS1619739901888","trial","","40","500","1919","images/stimuli/spore_stims/simple_09_A_b.gif","images/stimuli/spore_stims/simple_07_A_a.gif","forced_long","","9","simple_dissimilar","images/stimuli/spore_stims/simple_07_A_a.gif","","","","",""
"","null","html-keyboard-response","112","790251","0.0-27.0-0.1","SS1619739901888","","","null","","","","","","<p><img src= images/blank.png width =""600"" height = ""600"" style=""position:fixed;top:50%; left:50%; transform: translate(-50%, -50%); border:5px solid black"">","","","","","","","",""
"","9343","sequential-stimulus-presentation-old","113","800103","0.0-27.0-1.1","SS1619739901888","trial","","40","500","9843","images/stimuli/spore_stims/simple_09_A_b.gif","images/stimuli/spore_stims/simple_07_A_a.gif","forced_long","","9","simple_dissimilar","images/stimuli/spore_stims/simple_09_A_b.gif","","","","",""
"","null","html-keyboard-response","114","801100","0.0-27.0-0.2","SS1619739901888","","","null","","","","","","<p><img src= images/blank.png width =""600"" height = ""600"" style=""position:fixed;top:50%; left:50%; transform: translate(-50%, -50%); border:5px solid black"">","","","","","","","",""
"","2907","sequential-stimulus-presentation-old","115","804523","0.0-27.0-1.2","SS1619739901888","trial","","40","500","3407","images/stimuli/spore_stims/simple_09_A_b.gif","images/stimuli/spore_stims/simple_07_A_a.gif","forced_long","","9","simple_dissimilar","images/stimuli/spore_stims/simple_09_A_b.gif","","","","",""
"","null","html-keyboard-response","116","805395","0.0-27.0-0.3","SS1619739901888","","","null","","","","","","<p><img src= images/blank.png width =""600"" height = ""600"" style=""position:fixed;top:50%; left:50%; transform: translate(-50%, -50%); border:5px solid black"">","","","","","","","",""
"","1690","sequential-stimulus-presentation-old","117","807606","0.0-27.0-1.3","SS1619739901888","trial","","40","500","2190","images/stimuli/spore_stims/simple_09_A_b.gif","images/stimuli/spore_stims/simple_07_A_a.gif","forced_long","","9","simple_dissimilar","images/stimuli/spore_stims/simple_07_A_a.gif","","","","",""
"","null","html-keyboard-response","118","808656","0.0-27.0-0.4","SS1619739901888","","","null","","","","","","<p><img src= images/blank.png width =""600"" height = ""600"" style=""position:fixed;top:50%; left:50%; transform: translate(-50%, -50%); border:5px solid black"">","","","","","","","",""
"","642","sequential-stimulus-presentation-old","119","809818","0.0-27.0-1.4","SS1619739901888","trial","","40","500","1142","images/stimuli/spore_stims/simple_09_A_b.gif","images/stimuli/spore_stims/simple_07_A_a.gif","forced_long","","9","simple_dissimilar","images/stimuli/spore_stims/simple_07_A_a.gif","","","","",""
"","5065","survey-multi-choice","120","814891","0.0-28.0","SS1619739901888","math_question","","","","","","","","","","","","{""Q0"":""6""}","[0]","6","",""
"","null","html-keyboard-response","121","816070","0.0-29.0-0.0","SS1619739901888","","","null","","","","","","<p><img src= images/blank.png width =""600"" height = ""600"" style=""position:fixed;top:50%; left:50%; transform: translate(-50%, -50%); border:5px solid black"">","","","","","","","",""
"","902","sequential-stimulus-presentation-old","122","831982","0.0-29.0-1.0","SS1619739901888","trial","","40","500","1402","images/stimuli/spore_stims/complex_14_A_a.gif","images/stimuli/spore_stims/complex_04_A_b.gif","forced_long","","10","complex_dissimilar","images/stimuli/spore_stims/complex_04_A_b.gif","","","","",""
"","null","html-keyboard-response","123","832817","0.0-29.0-0.1","SS1619739901888","","","null","","","","","","<p><img src= images/blank.png width =""600"" height = ""600"" style=""position:fixed;top:50%; left:50%; transform: translate(-50%, -50%); border:5px solid black"">","","","","","","","",""
"","8867","sequential-stimulus-presentation-old","124","842199","0.0-29.0-1.1","SS1619739901888","trial","","40","500","9367","images/stimuli/spore_stims/complex_14_A_a.gif","images/stimuli/spore_stims/complex_04_A_b.gif","forced_long","","10","complex_dissimilar","images/stimuli/spore_stims/complex_14_A_a.gif","","","","",""
"","null","html-keyboard-response","125","843476","0.0-29.0-0.2","SS1619739901888","","","null","","","","","","<p><img src= images/blank.png width =""600"" height = ""600"" style=""position:fixed;top:50%; left:50%; transform: translate(-50%, -50%); border:5px solid black"">","","","","","","","",""
"","3020","sequential-stimulus-presentation-old","126","847017","0.0-29.0-1.2","SS1619739901888","trial","","40","500","3520","images/stimuli/spore_stims/complex_14_A_a.gif","images/stimuli/spore_stims/complex_04_A_b.gif","forced_long","","10","complex_dissimilar","images/stimuli/spore_stims/complex_04_A_b.gif","","","","",""
"","null","html-keyboard-response","127","848106","0.0-29.0-0.3","SS1619739901888","","","null","","","","","","<p><img src= images/blank.png width =""600"" height = ""600"" style=""position:fixed;top:50%; left:50%; transform: translate(-50%, -50%); border:5px solid black"">","","","","","","","",""
"","425","sequential-stimulus-presentation-old","128","849052","0.0-29.0-1.3","SS1619739901888","trial","","40","500","925","images/stimuli/spore_stims/complex_14_A_a.gif","images/stimuli/spore_stims/complex_04_A_b.gif","forced_long","","10","complex_dissimilar","images/stimuli/spore_stims/complex_14_A_a.gif","","","","",""
"","4698","survey-multi-choice","129","853757","0.0-30.0","SS1619739901888","math_question","","","","","","","","","","","","{""Q0"":""6""}","[0]","6","",""
"","null","html-keyboard-response","130","854902","0.0-31.0-0.0","SS1619739901888","","","null","","","","","","<p><img src= images/blank.png width =""600"" height = ""600"" style=""position:fixed;top:50%; left:50%; transform: translate(-50%, -50%); border:5px solid black"">","","","","","","","",""
"","1457","sequential-stimulus-presentation-old","131","856877","0.0-31.0-1.0","SS1619739901888","trial","","40","500","1957","images/stimuli/spore_stims/simple_19_A_a.gif","images/stimuli/spore_stims/simple_16_A_b.gif","forced_short","","11","simple_dissimilar","images/stimuli/spore_stims/simple_16_A_b.gif","","","","",""
"","null","html-keyboard-response","132","858015","0.0-31.0-0.1","SS1619739901888","","","null","","","","","","<p><img src= images/blank.png width =""600"" height = ""600"" style=""position:fixed;top:50%; left:50%; transform: translate(-50%, -50%); border:5px solid black"">","","","","","","","",""
"","2505","sequential-stimulus-presentation-old","133","861030","0.0-31.0-1.1","SS1619739901888","trial","","40","500","3005","images/stimuli/spore_stims/simple_19_A_a.gif","images/stimuli/spore_stims/simple_16_A_b.gif","forced_short","","11","simple_dissimilar","images/stimuli/spore_stims/simple_16_A_b.gif","","","","",""
"","null","html-keyboard-response","134","862066","0.0-31.0-0.2","SS1619739901888","","","null","","","","","","<p><img src= images/blank.png width =""600"" height = ""600"" style=""position:fixed;top:50%; left:50%; transform: translate(-50%, -50%); border:5px solid black"">","","","","","","","",""
"","12113","sequential-stimulus-presentation-old","135","874689","0.0-31.0-1.2","SS1619739901888","trial","","40","500","12613","images/stimuli/spore_stims/simple_19_A_a.gif","images/stimuli/spore_stims/simple_16_A_b.gif","forced_short","","11","simple_dissimilar","images/stimuli/spore_stims/simple_16_A_b.gif","","","","",""
"","null","html-keyboard-response","136","875830","0.0-31.0-0.3","SS1619739901888","","","null","","","","","","<p><img src= images/blank.png width =""600"" height = ""600"" style=""position:fixed;top:50%; left:50%; transform: translate(-50%, -50%); border:5px solid black"">","","","","","","","",""
"","2894","sequential-stimulus-presentation-old","137","879245","0.0-31.0-1.3","SS1619739901888","trial","","40","500","3394","images/stimuli/spore_stims/simple_19_A_a.gif","images/stimuli/spore_stims/simple_16_A_b.gif","forced_short","","11","simple_dissimilar","images/stimuli/spore_stims/simple_16_A_b.gif","","","","",""
"","null","html-keyboard-response","138","880481","0.0-31.0-0.4","SS1619739901888","","","null","","","","","","<p><img src= images/blank.png width =""600"" height = ""600"" style=""position:fixed;top:50%; left:50%; transform: translate(-50%, -50%); border:5px solid black"">","","","","","","","",""
"","1607","sequential-stimulus-presentation-old","139","882597","0.0-31.0-1.4","SS1619739901888","trial","","40","500","2107","images/stimuli/spore_stims/simple_19_A_a.gif","images/stimuli/spore_stims/simple_16_A_b.gif","forced_short","","11","simple_dissimilar","images/stimuli/spore_stims/simple_16_A_b.gif","","","","",""
"","null","html-keyboard-response","140","883736","0.0-31.0-0.5","SS1619739901888","","","null","","","","","","<p><img src= images/blank.png width =""600"" height = ""600"" style=""position:fixed;top:50%; left:50%; transform: translate(-50%, -50%); border:5px solid black"">","","","","","","","",""
"","1072","sequential-stimulus-presentation-old","141","885329","0.0-31.0-1.5","SS1619739901888","trial","","40","500","1572","images/stimuli/spore_stims/simple_19_A_a.gif","images/stimuli/spore_stims/simple_16_A_b.gif","forced_short","","11","simple_dissimilar","images/stimuli/spore_stims/simple_16_A_b.gif","","","","",""
"[{""page_index"":0,""viewing_time"":11535}]","11535","instructions","142","896873","0.0-32.0","SS1619739901888","instructions","","","","","","","","","","","","","","","",""
"","23069","survey-likert","143","919945","0.0-33.0","SS1619739901888","similarity_question","","","","","","","","","","","","{""Q0"":1}","[0]","","images/stimuli/spore_stims/simple_16_A_b.gif","images/stimuli/spore_stims/simple_19_A_a.gif"
"","8525","survey-likert","144","928473","0.0-34.0","SS1619739901888","similarity_question","","","","","","","","","","","","{""Q0"":4}","[0]","","images/stimuli/spore_stims/simple_16_A_a.gif","images/stimuli/spore_stims/simple_02_A_b.gif"
"","10779","survey-likert","145","939257","0.0-35.0","SS1619739901888","similarity_question","","","","","","","","","","","","{""Q0"":1}","[0]","","images/stimuli/spore_stims/complex_17_A_a.gif","images/stimuli/spore_stims/complex_01_A_b.gif"
"","10412","survey-likert","146","949673","0.0-36.0","SS1619739901888","similarity_question","","","","","","","","","","","","{""Q0"":0}","[0]","","images/stimuli/spore_stims/complex_12_A_b.gif","images/stimuli/spore_stims/complex_07_A_a.gif"
"","29739","survey-likert","147","979417","0.0-37.0","SS1619739901888","similarity_question","","","","","","","","","","","","{""Q0"":2}","[0]","","images/stimuli/spore_stims/simple_07_A_a.gif","images/stimuli/spore_stims/simple_09_A_b.gif"
"","7491","survey-likert","148","986913","0.0-38.0","SS1619739901888","similarity_question","","","","","","","","","","","","{""Q0"":4}","[0]","","images/stimuli/spore_stims/simple_07_A_b.gif","images/stimuli/spore_stims/simple_14_A_a.gif"
"","15499","survey-likert","149","1002416","0.0-39.0","SS1619739901888","similarity_question","","","","","","","","","","","","{""Q0"":2}","[0]","","images/stimuli/spore_stims/complex_08_A_b.gif","images/stimuli/spore_stims/complex_01_A_a.gif"
"","6652","survey-likert","150","1009073","0.0-40.0","SS1619739901888","similarity_question","","","","","","","","","","","","{""Q0"":1}","[0]","","images/stimuli/spore_stims/complex_04_A_b.gif","images/stimuli/spore_stims/complex_14_A_a.gif"
"","9306","survey-likert","151","1018385","0.0-41.0","SS1619739901888","similarity_question","","","","","","","","","","","","{""Q0"":1}","[0]","","images/stimuli/spore_stims/simple_18_A_b.gif","images/stimuli/spore_stims/simple_11_A_a.gif"
"","8236","survey-likert","152","1026624","0.0-42.0","SS1619739901888","similarity_question","","","","","","","","","","","","{""Q0"":5}","[0]","","images/stimuli/spore_stims/simple_11_A_b.gif","images/stimuli/spore_stims/simple_17_A_a.gif"
"","10603","survey-likert","153","1037233","0.0-43.0","SS1619739901888","similarity_question","","","","","","","","","","","","{""Q0"":0}","[0]","","images/stimuli/spore_stims/complex_05_A_b.gif","images/stimuli/spore_stims/complex_04_A_a.gif"
"","16172","survey-likert","154","1053409","0.0-44.0","SS1619739901888","similarity_question","","","","","","","","","","","","{""Q0"":1}","[0]","","images/stimuli/spore_stims/complex_10_A_a.gif","images/stimuli/spore_stims/complex_06_A_b.gif"
"[{""page_index"":0,""viewing_time"":8810}]","8810","instructions","155","1062223","0.0-45.0","SS1619739901888","instructions","","","","","","","","","","","","","","","",""
"","11693","survey-likert","156","1073921","0.0-46.0","SS1619739901888","","","","","","","","","images/stimuli/spore_stims/complex_06_A_b.gif","","","","{""Q0"":5}","[0]","","",""
"","21802","survey-likert","157","1095729","0.0-47.0","SS1619739901888","","","","","","","","","images/stimuli/spore_stims/complex_07_A_a.gif","","","","{""Q0"":6}","[0]","","",""
"","9923","survey-likert","158","1105656","0.0-48.0","SS1619739901888","","","","","","","","","images/stimuli/spore_stims/complex_01_A_a.gif","","","","{""Q0"":4}","[0]","","",""
"","4860","survey-likert","159","1110520","0.0-49.0","SS1619739901888","","","","","","","","","images/stimuli/spore_stims/simple_16_A_b.gif","","","","{""Q0"":1}","[0]","","",""
"","14844","survey-likert","160","1125369","0.0-50.0","SS1619739901888","","","","","","","","","images/stimuli/spore_stims/complex_14_A_a.gif","","","","{""Q0"":5}","[0]","","",""
"","4115","survey-likert","161","1129489","0.0-51.0","SS1619739901888","","","","","","","","","images/stimuli/spore_stims/simple_14_A_a.gif","","","","{""Q0"":1}","[0]","","",""
"","4491","survey-likert","162","1133985","0.0-52.0","SS1619739901888","","","","","","","","","images/stimuli/spore_stims/simple_18_A_b.gif","","","","{""Q0"":2}","[0]","","",""
"","4036","survey-likert","163","1138025","0.0-53.0","SS1619739901888","","","","","","","","","images/stimuli/spore_stims/complex_01_A_b.gif","","","","{""Q0"":4}","[0]","","",""
"","5221","survey-likert","164","1143249","0.0-54.0","SS1619739901888","","","","","","","","","images/stimuli/spore_stims/simple_16_A_a.gif","","","","{""Q0"":1}","[0]","","",""
"","6859","survey-likert","165","1150113","0.0-55.0","SS1619739901888","","","","","","","","","images/stimuli/spore_stims/simple_17_A_a.gif","","","","{""Q0"":1}","[0]","","",""
"","18653","survey-likert","166","1168768","0.0-56.0","SS1619739901888","","","","","","","","","images/stimuli/spore_stims/complex_05_A_b.gif","","","","{""Q0"":6}","[0]","","",""
"","8883","survey-likert","167","1177656","0.0-57.0","SS1619739901888","","","","","","","","","images/stimuli/spore_stims/simple_07_A_a.gif","","","","{""Q0"":1}","[0]","","",""
"[{""page_index"":0,""viewing_time"":3677}]","3677","instructions","168","1181335","0.0-58.0","SS1619739901888","instructions","","","","","","","","","","","","","","","",""
"","5899","demog-age","169","1187282","0.0-59.0","SS1619739901888","","","","","","","","","","","","","{""age"":""31""}","","","",""
"","11277","demog-ethnic-US","170","1198565","0.0-60.0","SS1619739901888","","","","","","","","","","","","","{""ethnicity"":[""White""]}","[0]","","",""
"","9860","demog-gender-and-education","171","1208430","0.0-61.0","SS1619739901888","","","","","","","","","","","","","{""gender"":""Female"",""education"":""Master's Degree""}","[0,1]","","",""
"","103068","survey-text","172","1311504","0.0-62.0","SS1619739901888","feedback","","","","","","","","","","","","{""Q0"":""It was a bit laggy, the quality of the animations was not very good, but it was fun, thanks a lot!:)""}","","","",""
"[{""page_index"":0,""viewing_time"":5732}]","5732","instructions","173","1317239","0.0-63.0","SS1619739901888","instructions","","","","","","","","","","","","","","","",""
