"view_history","rt","trial_type","trial_index","time_elapsed","internal_node_id","subject","stimulus_type","trial_stimulus","key_press","minimum_viewing_duration","trial_looking_time","block_deviant","block_background","exposure_type","stimulus","block_number","block_type","stimulus_displayed","responses","question_order","math_correct_answer","stimulus_left","stimulus_right"
"[{""page_index"":0,""viewing_time"":19928.524999995716}]","19929.005000041798","instructions","0","19930","0.0-0.0","SS1619739541834","","","","","","","","","","","","","","","","",""
"[{""page_index"":0,""viewing_time"":8500.174999935552},{""page_index"":1,""viewing_time"":10869.885000051}]","19370.249999919906","instructions","1","41301","0.0-1.0","SS1619739541834","instructions","","","","","","","","","","","","","","","",""
"","10327.15000002645","sequential-stimulus-presentation-old","2","52131","0.0-2.0","SS1619739541834","","","40","500","10827.15000002645","null","null","self_paced","","","","","","","","",""
"","3751.814999966882","sequential-stimulus-presentation-old","3","56387","0.0-3.0","SS1619739541834","","","40","500","4251.814999966882","null","null","self_paced","","","","","","","","",""
"[{""page_index"":0,""viewing_time"":22155.6499999715}]","22155.78499995172","instructions","4","78544","0.0-4.0","SS1619739541834","instructions","","","","","","","","","","","","","","","",""
"","981.0200000647455","sequential-stimulus-presentation-old","5","94529","0.0-5.0","SS1619739541834","","","40","500","1481.0200000647455","null","null","forced_long","","","","","","","","",""
"","3679.660000023432","sequential-stimulus-presentation-old","6","98714","0.0-6.0","SS1619739541834","","","40","500","4179.660000023432","null","null","forced_long","","","","","","","","",""
"[{""page_index"":0,""viewing_time"":1860.6399999698624}]","1860.8049999456853","instructions","7","100576","0.0-7.0","SS1619739541834","instructions","","","","","","","","","","","","","","","",""
"[{""page_index"":0,""viewing_time"":16494.605000014417},{""page_index"":1,""viewing_time"":14874.87499997951},{""page_index"":2,""viewing_time"":10137.589999940246},{""page_index"":3,""viewing_time"":826.0250000748783},{""page_index"":4,""viewing_time"":1038.3799999253824}]","43371.6199999908","instructions","8","143947","0.0-8.0","SS1619739541834","instructions","","","","","","","","","","","","","","","",""
"","null","html-keyboard-response","9","145139","0.0-9.0-0.0","SS1619739541834","","","null","","","","","","<p><img src= images/blank.png width =""600"" height = ""600"" style=""position:fixed;top:50%; left:50%; transform: translate(-50%, -50%); border:5px solid black"">","","","","","","","",""
"","439.5200000144541","sequential-stimulus-presentation-old","10","160589","0.0-9.0-1.0","SS1619739541834","trial","","40","500","939.5200000144541","images/stimuli/spore_stims/simple_13_A_a.gif","images/stimuli/spore_stims/simple_10_A_b.gif","forced_long","","0","simple_dissimilar","images/stimuli/spore_stims/simple_10_A_b.gif","","","","",""
"","null","html-keyboard-response","11","161529","0.0-9.0-0.1","SS1619739541834","","","null","","","","","","<p><img src= images/blank.png width =""600"" height = ""600"" style=""position:fixed;top:50%; left:50%; transform: translate(-50%, -50%); border:5px solid black"">","","","","","","","",""
"","27789.289999986067","sequential-stimulus-presentation-old","12","189828","0.0-9.0-1.1","SS1619739541834","trial","","40","500","28289.289999986067","images/stimuli/spore_stims/simple_13_A_a.gif","images/stimuli/spore_stims/simple_10_A_b.gif","forced_long","","0","simple_dissimilar","images/stimuli/spore_stims/simple_10_A_b.gif","","","","",""
"","null","html-keyboard-response","13","190859","0.0-9.0-0.2","SS1619739541834","","","null","","","","","","<p><img src= images/blank.png width =""600"" height = ""600"" style=""position:fixed;top:50%; left:50%; transform: translate(-50%, -50%); border:5px solid black"">","","","","","","","",""
"","10362.400000100024","sequential-stimulus-presentation-old","14","201732","0.0-9.0-1.2","SS1619739541834","trial","","40","500","10862.400000100024","images/stimuli/spore_stims/simple_13_A_a.gif","images/stimuli/spore_stims/simple_10_A_b.gif","forced_long","","0","simple_dissimilar","images/stimuli/spore_stims/simple_10_A_b.gif","","","","",""
"","null","html-keyboard-response","15","202620","0.0-9.0-0.3","SS1619739541834","","","null","","","","","","<p><img src= images/blank.png width =""600"" height = ""600"" style=""position:fixed;top:50%; left:50%; transform: translate(-50%, -50%); border:5px solid black"">","","","","","","","",""
"","6202.554999967106","sequential-stimulus-presentation-old","16","209326","0.0-9.0-1.3","SS1619739541834","trial","","40","500","6702.554999967106","images/stimuli/spore_stims/simple_13_A_a.gif","images/stimuli/spore_stims/simple_10_A_b.gif","forced_long","","0","simple_dissimilar","images/stimuli/spore_stims/simple_13_A_a.gif","","","","",""
"","null","html-keyboard-response","17","210527","0.0-9.0-0.4","SS1619739541834","","","null","","","","","","<p><img src= images/blank.png width =""600"" height = ""600"" style=""position:fixed;top:50%; left:50%; transform: translate(-50%, -50%); border:5px solid black"">","","","","","","","",""
"","6298.064999980852","sequential-stimulus-presentation-old","18","217327","0.0-9.0-1.4","SS1619739541834","trial","","40","500","6798.064999980852","images/stimuli/spore_stims/simple_13_A_a.gif","images/stimuli/spore_stims/simple_10_A_b.gif","forced_long","","0","simple_dissimilar","images/stimuli/spore_stims/simple_10_A_b.gif","","","","",""
"","null","html-keyboard-response","19","218631","0.0-9.0-0.5","SS1619739541834","","","null","","","","","","<p><img src= images/blank.png width =""600"" height = ""600"" style=""position:fixed;top:50%; left:50%; transform: translate(-50%, -50%); border:5px solid black"">","","","","","","","",""
"","5645.365000003949","sequential-stimulus-presentation-old","20","224785","0.0-9.0-1.5","SS1619739541834","trial","","40","500","6145.365000003949","images/stimuli/spore_stims/simple_13_A_a.gif","images/stimuli/spore_stims/simple_10_A_b.gif","forced_long","","0","simple_dissimilar","images/stimuli/spore_stims/simple_10_A_b.gif","","","","",""
"","5678.985000005923","survey-multi-choice","21","230465","0.0-10.0","SS1619739541834","math_question","","","","","","","","","","","","{""Q0"":""4""}","[0]","4","",""
"","null","html-keyboard-response","22","231399","0.0-11.0-0.0","SS1619739541834","","","null","","","","","","<p><img src= images/blank.png width =""600"" height = ""600"" style=""position:fixed;top:50%; left:50%; transform: translate(-50%, -50%); border:5px solid black"">","","","","","","","",""
"","1331.1600000597537","sequential-stimulus-presentation-old","23","233240","0.0-11.0-1.0","SS1619739541834","trial","","40","500","1831.1600000597537","images/stimuli/spore_stims/complex_09_A_a.gif","images/stimuli/spore_stims/complex_18_A_b.gif","forced_short","","1","complex_dissimilar","images/stimuli/spore_stims/complex_18_A_b.gif","","","","",""
"","null","html-keyboard-response","24","234292","0.0-11.0-0.1","SS1619739541834","","","null","","","","","","<p><img src= images/blank.png width =""600"" height = ""600"" style=""position:fixed;top:50%; left:50%; transform: translate(-50%, -50%); border:5px solid black"">","","","","","","","",""
"","4089.5999999484047","sequential-stimulus-presentation-old","25","238893","0.0-11.0-1.1","SS1619739541834","trial","","40","500","4589.599999948405","images/stimuli/spore_stims/complex_09_A_a.gif","images/stimuli/spore_stims/complex_18_A_b.gif","forced_short","","1","complex_dissimilar","images/stimuli/spore_stims/complex_18_A_b.gif","","","","",""
"","null","html-keyboard-response","26","240184","0.0-11.0-0.2","SS1619739541834","","","null","","","","","","<p><img src= images/blank.png width =""600"" height = ""600"" style=""position:fixed;top:50%; left:50%; transform: translate(-50%, -50%); border:5px solid black"">","","","","","","","",""
"","5071.969999931753","sequential-stimulus-presentation-old","27","245770","0.0-11.0-1.2","SS1619739541834","trial","","40","500","5571.969999931753","images/stimuli/spore_stims/complex_09_A_a.gif","images/stimuli/spore_stims/complex_18_A_b.gif","forced_short","","1","complex_dissimilar","images/stimuli/spore_stims/complex_09_A_a.gif","","","","",""
"","null","html-keyboard-response","28","246908","0.0-11.0-0.3","SS1619739541834","","","null","","","","","","<p><img src= images/blank.png width =""600"" height = ""600"" style=""position:fixed;top:50%; left:50%; transform: translate(-50%, -50%); border:5px solid black"">","","","","","","","",""
"","2819.6150000439957","sequential-stimulus-presentation-old","29","250241","0.0-11.0-1.3","SS1619739541834","trial","","40","500","3319.6150000439957","images/stimuli/spore_stims/complex_09_A_a.gif","images/stimuli/spore_stims/complex_18_A_b.gif","forced_short","","1","complex_dissimilar","images/stimuli/spore_stims/complex_09_A_a.gif","","","","",""
"","3489.309999975376","survey-multi-choice","30","253731","0.0-12.0","SS1619739541834","math_question","","","","","","","","","","","","{""Q0"":""10""}","[0]","10","",""
"","null","html-keyboard-response","31","254840","0.0-13.0-0.0","SS1619739541834","","","null","","","","","","<p><img src= images/blank.png width =""600"" height = ""600"" style=""position:fixed;top:50%; left:50%; transform: translate(-50%, -50%); border:5px solid black"">","","","","","","","",""
"","13038.380000041798","sequential-stimulus-presentation-old","32","268381","0.0-13.0-1.0","SS1619739541834","trial","","40","500","13538.380000041798","images/stimuli/spore_stims/complex_12_A_b.gif","images/stimuli/spore_stims/complex_18_A_a.gif","self_paced","","2","complex_dissimilar","images/stimuli/spore_stims/complex_18_A_a.gif","","","","",""
"","null","html-keyboard-response","33","269322","0.0-13.0-0.1","SS1619739541834","","","null","","","","","","<p><img src= images/blank.png width =""600"" height = ""600"" style=""position:fixed;top:50%; left:50%; transform: translate(-50%, -50%); border:5px solid black"">","","","","","","","",""
"","13321.019999915734","sequential-stimulus-presentation-old","34","283154","0.0-13.0-1.1","SS1619739541834","trial","","40","500","13821.019999915734","images/stimuli/spore_stims/complex_12_A_b.gif","images/stimuli/spore_stims/complex_18_A_a.gif","self_paced","","2","complex_dissimilar","images/stimuli/spore_stims/complex_18_A_a.gif","","","","",""
"","null","html-keyboard-response","35","284370","0.0-13.0-0.2","SS1619739541834","","","null","","","","","","<p><img src= images/blank.png width =""600"" height = ""600"" style=""position:fixed;top:50%; left:50%; transform: translate(-50%, -50%); border:5px solid black"">","","","","","","","",""
"","10468.254999956116","sequential-stimulus-presentation-old","36","295352","0.0-13.0-1.2","SS1619739541834","trial","","40","500","10968.254999956116","images/stimuli/spore_stims/complex_12_A_b.gif","images/stimuli/spore_stims/complex_18_A_a.gif","self_paced","","2","complex_dissimilar","images/stimuli/spore_stims/complex_18_A_a.gif","","","","",""
"","null","html-keyboard-response","37","296395","0.0-13.0-0.3","SS1619739541834","","","null","","","","","","<p><img src= images/blank.png width =""600"" height = ""600"" style=""position:fixed;top:50%; left:50%; transform: translate(-50%, -50%); border:5px solid black"">","","","","","","","",""
"","4938.414999982342","sequential-stimulus-presentation-old","38","301845","0.0-13.0-1.3","SS1619739541834","trial","","40","500","5438.414999982342","images/stimuli/spore_stims/complex_12_A_b.gif","images/stimuli/spore_stims/complex_18_A_a.gif","self_paced","","2","complex_dissimilar","images/stimuli/spore_stims/complex_18_A_a.gif","","","","",""
"","null","html-keyboard-response","39","302987","0.0-13.0-0.4","SS1619739541834","","","null","","","","","","<p><img src= images/blank.png width =""600"" height = ""600"" style=""position:fixed;top:50%; left:50%; transform: translate(-50%, -50%); border:5px solid black"">","","","","","","","",""
"","9700.064999982715","sequential-stimulus-presentation-old","40","313197","0.0-13.0-1.4","SS1619739541834","trial","","40","500","10200.064999982715","images/stimuli/spore_stims/complex_12_A_b.gif","images/stimuli/spore_stims/complex_18_A_a.gif","self_paced","","2","complex_dissimilar","images/stimuli/spore_stims/complex_18_A_a.gif","","","","",""
"","null","html-keyboard-response","41","314062","0.0-13.0-0.5","SS1619739541834","","","null","","","","","","<p><img src= images/blank.png width =""600"" height = ""600"" style=""position:fixed;top:50%; left:50%; transform: translate(-50%, -50%); border:5px solid black"">","","","","","","","",""
"","15084.949999931268","sequential-stimulus-presentation-old","42","329660","0.0-13.0-1.5","SS1619739541834","trial","","40","500","15584.949999931268","images/stimuli/spore_stims/complex_12_A_b.gif","images/stimuli/spore_stims/complex_18_A_a.gif","self_paced","","2","complex_dissimilar","images/stimuli/spore_stims/complex_18_A_a.gif","","","","",""
"","2549.8849999858066","survey-multi-choice","43","332211","0.0-14.0","SS1619739541834","math_question","","","","","","","","","","","","{""Q0"":""9""}","[0]","9","",""
"","null","html-keyboard-response","44","333214","0.0-15.0-0.0","SS1619739541834","","","null","","","","","","<p><img src= images/blank.png width =""600"" height = ""600"" style=""position:fixed;top:50%; left:50%; transform: translate(-50%, -50%); border:5px solid black"">","","","","","","","",""
"","4192.584999953397","sequential-stimulus-presentation-old","45","337909","0.0-15.0-1.0","SS1619739541834","trial","","40","500","4692.584999953397","images/stimuli/spore_stims/complex_06_A_b.gif","images/stimuli/spore_stims/complex_13_A_a.gif","forced_short","","3","complex_dissimilar","images/stimuli/spore_stims/complex_13_A_a.gif","","","","",""
"","null","html-keyboard-response","46","339010","0.0-15.0-0.1","SS1619739541834","","","null","","","","","","<p><img src= images/blank.png width =""600"" height = ""600"" style=""position:fixed;top:50%; left:50%; transform: translate(-50%, -50%); border:5px solid black"">","","","","","","","",""
"","6378.054999979213","sequential-stimulus-presentation-old","47","345895","0.0-15.0-1.1","SS1619739541834","trial","","40","500","6878.054999979213","images/stimuli/spore_stims/complex_06_A_b.gif","images/stimuli/spore_stims/complex_13_A_a.gif","forced_short","","3","complex_dissimilar","images/stimuli/spore_stims/complex_06_A_b.gif","","","","",""
"","null","html-keyboard-response","48","346859","0.0-15.0-0.2","SS1619739541834","","","null","","","","","","<p><img src= images/blank.png width =""600"" height = ""600"" style=""position:fixed;top:50%; left:50%; transform: translate(-50%, -50%); border:5px solid black"">","","","","","","","",""
"","7775.860000052489","sequential-stimulus-presentation-old","49","355136","0.0-15.0-1.2","SS1619739541834","trial","","40","500","8275.86000005249","images/stimuli/spore_stims/complex_06_A_b.gif","images/stimuli/spore_stims/complex_13_A_a.gif","forced_short","","3","complex_dissimilar","images/stimuli/spore_stims/complex_06_A_b.gif","","","","",""
"","null","html-keyboard-response","50","356336","0.0-15.0-0.3","SS1619739541834","","","null","","","","","","<p><img src= images/blank.png width =""600"" height = ""600"" style=""position:fixed;top:50%; left:50%; transform: translate(-50%, -50%); border:5px solid black"">","","","","","","","",""
"","5421.534999972209","sequential-stimulus-presentation-old","51","362259","0.0-15.0-1.3","SS1619739541834","trial","","40","500","5921.534999972209","images/stimuli/spore_stims/complex_06_A_b.gif","images/stimuli/spore_stims/complex_13_A_a.gif","forced_short","","3","complex_dissimilar","images/stimuli/spore_stims/complex_13_A_a.gif","","","","",""
"","null","html-keyboard-response","52","363558","0.0-15.0-0.4","SS1619739541834","","","null","","","","","","<p><img src= images/blank.png width =""600"" height = ""600"" style=""position:fixed;top:50%; left:50%; transform: translate(-50%, -50%); border:5px solid black"">","","","","","","","",""
"","14730.359999928623","sequential-stimulus-presentation-old","53","378799","0.0-15.0-1.4","SS1619739541834","trial","","40","500","15230.359999928623","images/stimuli/spore_stims/complex_06_A_b.gif","images/stimuli/spore_stims/complex_13_A_a.gif","forced_short","","3","complex_dissimilar","images/stimuli/spore_stims/complex_13_A_a.gif","","","","",""
"","null","html-keyboard-response","54","379640","0.0-15.0-0.5","SS1619739541834","","","null","","","","","","<p><img src= images/blank.png width =""600"" height = ""600"" style=""position:fixed;top:50%; left:50%; transform: translate(-50%, -50%); border:5px solid black"">","","","","","","","",""
"","8880.529999965802","sequential-stimulus-presentation-old","55","389030","0.0-15.0-1.5","SS1619739541834","trial","","40","500","9380.529999965802","images/stimuli/spore_stims/complex_06_A_b.gif","images/stimuli/spore_stims/complex_13_A_a.gif","forced_short","","3","complex_dissimilar","images/stimuli/spore_stims/complex_13_A_a.gif","","","","",""
"","3002.655000076629","survey-multi-choice","56","392034","0.0-16.0","SS1619739541834","math_question","","","","","","","","","","","","{""Q0"":""14""}","[0]","14","",""
"","null","html-keyboard-response","57","393078","0.0-17.0-0.0","SS1619739541834","","","null","","","","","","<p><img src= images/blank.png width =""600"" height = ""600"" style=""position:fixed;top:50%; left:50%; transform: translate(-50%, -50%); border:5px solid black"">","","","","","","","",""
"","11943.689999985509","sequential-stimulus-presentation-old","58","405524","0.0-17.0-1.0","SS1619739541834","trial","","40","500","12443.689999985509","images/stimuli/spore_stims/complex_20_A_a.gif","images/stimuli/spore_stims/complex_11_A_b.gif","self_paced","","4","complex_dissimilar","images/stimuli/spore_stims/complex_11_A_b.gif","","","","",""
"","null","html-keyboard-response","59","406458","0.0-17.0-0.1","SS1619739541834","","","null","","","","","","<p><img src= images/blank.png width =""600"" height = ""600"" style=""position:fixed;top:50%; left:50%; transform: translate(-50%, -50%); border:5px solid black"">","","","","","","","",""
"","18473.844999913126","sequential-stimulus-presentation-old","60","425442","0.0-17.0-1.1","SS1619739541834","trial","","40","500","18973.844999913126","images/stimuli/spore_stims/complex_20_A_a.gif","images/stimuli/spore_stims/complex_11_A_b.gif","self_paced","","4","complex_dissimilar","images/stimuli/spore_stims/complex_11_A_b.gif","","","","",""
"","null","html-keyboard-response","61","426494","0.0-17.0-0.2","SS1619739541834","","","null","","","","","","<p><img src= images/blank.png width =""600"" height = ""600"" style=""position:fixed;top:50%; left:50%; transform: translate(-50%, -50%); border:5px solid black"">","","","","","","","",""
"","12129.719999968074","sequential-stimulus-presentation-old","62","439126","0.0-17.0-1.2","SS1619739541834","trial","","40","500","12629.719999968074","images/stimuli/spore_stims/complex_20_A_a.gif","images/stimuli/spore_stims/complex_11_A_b.gif","self_paced","","4","complex_dissimilar","images/stimuli/spore_stims/complex_11_A_b.gif","","","","",""
"","null","html-keyboard-response","63","440420","0.0-17.0-0.3","SS1619739541834","","","null","","","","","","<p><img src= images/blank.png width =""600"" height = ""600"" style=""position:fixed;top:50%; left:50%; transform: translate(-50%, -50%); border:5px solid black"">","","","","","","","",""
"","3738.0450000055134","sequential-stimulus-presentation-old","64","444661","0.0-17.0-1.3","SS1619739541834","trial","","40","500","4238.045000005513","images/stimuli/spore_stims/complex_20_A_a.gif","images/stimuli/spore_stims/complex_11_A_b.gif","self_paced","","4","complex_dissimilar","images/stimuli/spore_stims/complex_11_A_b.gif","","","","",""
"","null","html-keyboard-response","65","445612","0.0-17.0-0.4","SS1619739541834","","","null","","","","","","<p><img src= images/blank.png width =""600"" height = ""600"" style=""position:fixed;top:50%; left:50%; transform: translate(-50%, -50%); border:5px solid black"">","","","","","","","",""
"","3946.8549999874085","sequential-stimulus-presentation-old","66","450072","0.0-17.0-1.4","SS1619739541834","trial","","40","500","4446.8549999874085","images/stimuli/spore_stims/complex_20_A_a.gif","images/stimuli/spore_stims/complex_11_A_b.gif","self_paced","","4","complex_dissimilar","images/stimuli/spore_stims/complex_11_A_b.gif","","","","",""
"","2592.6500000059605","survey-multi-choice","67","452666","0.0-18.0","SS1619739541834","math_question","","","","","","","","","","","","{""Q0"":""10""}","[0]","10","",""
"","null","html-keyboard-response","68","453832","0.0-19.0-0.0","SS1619739541834","","","null","","","","","","<p><img src= images/blank.png width =""600"" height = ""600"" style=""position:fixed;top:50%; left:50%; transform: translate(-50%, -50%); border:5px solid black"">","","","","","","","",""
"","7782.959999982268","sequential-stimulus-presentation-old","69","476617","0.0-19.0-1.0","SS1619739541834","trial","","40","500","8282.959999982268","images/stimuli/spore_stims/simple_04_A_b.gif","images/stimuli/spore_stims/simple_19_A_a.gif","forced_long","","5","simple_dissimilar","images/stimuli/spore_stims/simple_19_A_a.gif","","","","",""
"","null","html-keyboard-response","70","477746","0.0-19.0-0.1","SS1619739541834","","","null","","","","","","<p><img src= images/blank.png width =""600"" height = ""600"" style=""position:fixed;top:50%; left:50%; transform: translate(-50%, -50%); border:5px solid black"">","","","","","","","",""
"","7824.019999941811","sequential-stimulus-presentation-old","71","486073","0.0-19.0-1.1","SS1619739541834","trial","","40","500","8324.019999941811","images/stimuli/spore_stims/simple_04_A_b.gif","images/stimuli/spore_stims/simple_19_A_a.gif","forced_long","","5","simple_dissimilar","images/stimuli/spore_stims/simple_04_A_b.gif","","","","",""
"","null","html-keyboard-response","72","486911","0.0-19.0-0.2","SS1619739541834","","","null","","","","","","<p><img src= images/blank.png width =""600"" height = ""600"" style=""position:fixed;top:50%; left:50%; transform: translate(-50%, -50%); border:5px solid black"">","","","","","","","",""
"","6842.984999995679","sequential-stimulus-presentation-old","73","494256","0.0-19.0-1.2","SS1619739541834","trial","","40","500","7342.984999995679","images/stimuli/spore_stims/simple_04_A_b.gif","images/stimuli/spore_stims/simple_19_A_a.gif","forced_long","","5","simple_dissimilar","images/stimuli/spore_stims/simple_19_A_a.gif","","","","",""
"","null","html-keyboard-response","74","495239","0.0-19.0-0.3","SS1619739541834","","","null","","","","","","<p><img src= images/blank.png width =""600"" height = ""600"" style=""position:fixed;top:50%; left:50%; transform: translate(-50%, -50%); border:5px solid black"">","","","","","","","",""
"","10648.369999951683","sequential-stimulus-presentation-old","75","506389","0.0-19.0-1.3","SS1619739541834","trial","","40","500","11148.369999951683","images/stimuli/spore_stims/simple_04_A_b.gif","images/stimuli/spore_stims/simple_19_A_a.gif","forced_long","","5","simple_dissimilar","images/stimuli/spore_stims/simple_19_A_a.gif","","","","",""
"","null","html-keyboard-response","76","507496","0.0-19.0-0.4","SS1619739541834","","","null","","","","","","<p><img src= images/blank.png width =""600"" height = ""600"" style=""position:fixed;top:50%; left:50%; transform: translate(-50%, -50%); border:5px solid black"">","","","","","","","",""
"","20748.295000055805","sequential-stimulus-presentation-old","77","528758","0.0-19.0-1.4","SS1619739541834","trial","","40","500","21248.295000055805","images/stimuli/spore_stims/simple_04_A_b.gif","images/stimuli/spore_stims/simple_19_A_a.gif","forced_long","","5","simple_dissimilar","images/stimuli/spore_stims/simple_19_A_a.gif","","","","",""
"","null","html-keyboard-response","78","530233","0.0-19.0-0.5","SS1619739541834","","","null","","","","","","<p><img src= images/blank.png width =""600"" height = ""600"" style=""position:fixed;top:50%; left:50%; transform: translate(-50%, -50%); border:5px solid black"">","","","","","","","",""
"","14732.590000028722","sequential-stimulus-presentation-old","79","545960","0.0-19.0-1.5","SS1619739541834","trial","","40","500","15232.590000028722","images/stimuli/spore_stims/simple_04_A_b.gif","images/stimuli/spore_stims/simple_19_A_a.gif","forced_long","","5","simple_dissimilar","images/stimuli/spore_stims/simple_19_A_a.gif","","","","",""
"","2419.984999927692","survey-multi-choice","80","548381","0.0-20.0","SS1619739541834","math_question","","","","","","","","","","","","{""Q0"":""5""}","[0]","5","",""
"","null","html-keyboard-response","81","549528","0.0-21.0-0.0","SS1619739541834","","","null","","","","","","<p><img src= images/blank.png width =""600"" height = ""600"" style=""position:fixed;top:50%; left:50%; transform: translate(-50%, -50%); border:5px solid black"">","","","","","","","",""
"","7885.889999917708","sequential-stimulus-presentation-old","82","573120","0.0-21.0-1.0","SS1619739541834","trial","","40","500","8385.889999917708","images/stimuli/spore_stims/complex_19_A_a.gif","images/stimuli/spore_stims/complex_13_A_b.gif","forced_long","","6","complex_dissimilar","images/stimuli/spore_stims/complex_13_A_b.gif","","","","",""
"","null","html-keyboard-response","83","573938","0.0-21.0-0.1","SS1619739541834","","","null","","","","","","<p><img src= images/blank.png width =""600"" height = ""600"" style=""position:fixed;top:50%; left:50%; transform: translate(-50%, -50%); border:5px solid black"">","","","","","","","",""
"","3094.8100000387058","sequential-stimulus-presentation-old","84","577545","0.0-21.0-1.1","SS1619739541834","trial","","40","500","3594.8100000387058","images/stimuli/spore_stims/complex_19_A_a.gif","images/stimuli/spore_stims/complex_13_A_b.gif","forced_long","","6","complex_dissimilar","images/stimuli/spore_stims/complex_13_A_b.gif","","","","",""
"","null","html-keyboard-response","85","578445","0.0-21.0-0.2","SS1619739541834","","","null","","","","","","<p><img src= images/blank.png width =""600"" height = ""600"" style=""position:fixed;top:50%; left:50%; transform: translate(-50%, -50%); border:5px solid black"">","","","","","","","",""
"","1518.9249999821186","sequential-stimulus-presentation-old","86","580475","0.0-21.0-1.2","SS1619739541834","trial","","40","500","2018.9249999821186","images/stimuli/spore_stims/complex_19_A_a.gif","images/stimuli/spore_stims/complex_13_A_b.gif","forced_long","","6","complex_dissimilar","images/stimuli/spore_stims/complex_13_A_b.gif","","","","",""
"","null","html-keyboard-response","87","581720","0.0-21.0-0.3","SS1619739541834","","","null","","","","","","<p><img src= images/blank.png width =""600"" height = ""600"" style=""position:fixed;top:50%; left:50%; transform: translate(-50%, -50%); border:5px solid black"">","","","","","","","",""
"","1665.4149999376386","sequential-stimulus-presentation-old","88","583895","0.0-21.0-1.3","SS1619739541834","trial","","40","500","2165.4149999376386","images/stimuli/spore_stims/complex_19_A_a.gif","images/stimuli/spore_stims/complex_13_A_b.gif","forced_long","","6","complex_dissimilar","images/stimuli/spore_stims/complex_13_A_b.gif","","","","",""
"","null","html-keyboard-response","89","584868","0.0-21.0-0.4","SS1619739541834","","","null","","","","","","<p><img src= images/blank.png width =""600"" height = ""600"" style=""position:fixed;top:50%; left:50%; transform: translate(-50%, -50%); border:5px solid black"">","","","","","","","",""
"","2769.384999992326","sequential-stimulus-presentation-old","90","588140","0.0-21.0-1.4","SS1619739541834","trial","","40","500","3269.384999992326","images/stimuli/spore_stims/complex_19_A_a.gif","images/stimuli/spore_stims/complex_13_A_b.gif","forced_long","","6","complex_dissimilar","images/stimuli/spore_stims/complex_19_A_a.gif","","","","",""
"","2077.9800000600517","survey-multi-choice","91","590220","0.0-22.0","SS1619739541834","math_question","","","","","","","","","","","","{""Q0"":""5""}","[0]","5","",""
"","null","html-keyboard-response","92","591030","0.0-23.0-0.0","SS1619739541834","","","null","","","","","","<p><img src= images/blank.png width =""600"" height = ""600"" style=""position:fixed;top:50%; left:50%; transform: translate(-50%, -50%); border:5px solid black"">","","","","","","","",""
"","2867.0700000366196","sequential-stimulus-presentation-old","93","594400","0.0-23.0-1.0","SS1619739541834","trial","","40","500","3367.0700000366196","images/stimuli/spore_stims/simple_01_A_b.gif","images/stimuli/spore_stims/simple_04_A_a.gif","forced_short","","7","simple_dissimilar","images/stimuli/spore_stims/simple_04_A_a.gif","","","","",""
"","null","html-keyboard-response","94","595513","0.0-23.0-0.1","SS1619739541834","","","null","","","","","","<p><img src= images/blank.png width =""600"" height = ""600"" style=""position:fixed;top:50%; left:50%; transform: translate(-50%, -50%); border:5px solid black"">","","","","","","","",""
"","8890.735000022687","sequential-stimulus-presentation-old","95","605117","0.0-23.0-1.1","SS1619739541834","trial","","40","500","9390.735000022687","images/stimuli/spore_stims/simple_01_A_b.gif","images/stimuli/spore_stims/simple_04_A_a.gif","forced_short","","7","simple_dissimilar","images/stimuli/spore_stims/simple_01_A_b.gif","","","","",""
"","null","html-keyboard-response","96","605962","0.0-23.0-0.2","SS1619739541834","","","null","","","","","","<p><img src= images/blank.png width =""600"" height = ""600"" style=""position:fixed;top:50%; left:50%; transform: translate(-50%, -50%); border:5px solid black"">","","","","","","","",""
"","376.18500005919486","sequential-stimulus-presentation-old","97","606842","0.0-23.0-1.2","SS1619739541834","trial","","40","500","876.1850000591949","images/stimuli/spore_stims/simple_01_A_b.gif","images/stimuli/spore_stims/simple_04_A_a.gif","forced_short","","7","simple_dissimilar","images/stimuli/spore_stims/simple_04_A_a.gif","","","","",""
"","null","html-keyboard-response","98","607763","0.0-23.0-0.3","SS1619739541834","","","null","","","","","","<p><img src= images/blank.png width =""600"" height = ""600"" style=""position:fixed;top:50%; left:50%; transform: translate(-50%, -50%); border:5px solid black"">","","","","","","","",""
"","2379.0000000735745","sequential-stimulus-presentation-old","99","610644","0.0-23.0-1.3","SS1619739541834","trial","","40","500","2879.0000000735745","images/stimuli/spore_stims/simple_01_A_b.gif","images/stimuli/spore_stims/simple_04_A_a.gif","forced_short","","7","simple_dissimilar","images/stimuli/spore_stims/simple_01_A_b.gif","","","","",""
"","null","html-keyboard-response","100","611891","0.0-23.0-0.4","SS1619739541834","","","null","","","","","","<p><img src= images/blank.png width =""600"" height = ""600"" style=""position:fixed;top:50%; left:50%; transform: translate(-50%, -50%); border:5px solid black"">","","","","","","","",""
"","6116.67999997735","sequential-stimulus-presentation-old","101","618509","0.0-23.0-1.4","SS1619739541834","trial","","40","500","6616.67999997735","images/stimuli/spore_stims/simple_01_A_b.gif","images/stimuli/spore_stims/simple_04_A_a.gif","forced_short","","7","simple_dissimilar","images/stimuli/spore_stims/simple_04_A_a.gif","","","","",""
"","2835.6149999890476","survey-multi-choice","102","621348","0.0-24.0","SS1619739541834","math_question","","","","","","","","","","","","{""Q0"":""10""}","[0]","10","",""
"","null","html-keyboard-response","103","622439","0.0-25.0-0.0","SS1619739541834","","","null","","","","","","<p><img src= images/blank.png width =""600"" height = ""600"" style=""position:fixed;top:50%; left:50%; transform: translate(-50%, -50%); border:5px solid black"">","","","","","","","",""
"","7383.604999980889","sequential-stimulus-presentation-old","104","630326","0.0-25.0-1.0","SS1619739541834","trial","","40","500","7883.604999980889","images/stimuli/spore_stims/simple_15_A_a.gif","images/stimuli/spore_stims/simple_02_A_b.gif","forced_short","","8","simple_dissimilar","images/stimuli/spore_stims/simple_02_A_b.gif","","","","",""
"","null","html-keyboard-response","105","631571","0.0-25.0-0.1","SS1619739541834","","","null","","","","","","<p><img src= images/blank.png width =""600"" height = ""600"" style=""position:fixed;top:50%; left:50%; transform: translate(-50%, -50%); border:5px solid black"">","","","","","","","",""
"","1256.0999999986961","sequential-stimulus-presentation-old","106","633335","0.0-25.0-1.1","SS1619739541834","trial","","40","500","1756.0999999986961","images/stimuli/spore_stims/simple_15_A_a.gif","images/stimuli/spore_stims/simple_02_A_b.gif","forced_short","","8","simple_dissimilar","images/stimuli/spore_stims/simple_02_A_b.gif","","","","",""
"","null","html-keyboard-response","107","634607","0.0-25.0-0.2","SS1619739541834","","","null","","","","","","<p><img src= images/blank.png width =""600"" height = ""600"" style=""position:fixed;top:50%; left:50%; transform: translate(-50%, -50%); border:5px solid black"">","","","","","","","",""
"","2234.0200000908226","sequential-stimulus-presentation-old","108","637343","0.0-25.0-1.2","SS1619739541834","trial","","40","500","2734.0200000908226","images/stimuli/spore_stims/simple_15_A_a.gif","images/stimuli/spore_stims/simple_02_A_b.gif","forced_short","","8","simple_dissimilar","images/stimuli/spore_stims/simple_02_A_b.gif","","","","",""
"","null","html-keyboard-response","109","638562","0.0-25.0-0.3","SS1619739541834","","","null","","","","","","<p><img src= images/blank.png width =""600"" height = ""600"" style=""position:fixed;top:50%; left:50%; transform: translate(-50%, -50%); border:5px solid black"">","","","","","","","",""
"","1432.1149999741465","sequential-stimulus-presentation-old","110","640498","0.0-25.0-1.3","SS1619739541834","trial","","40","500","1932.1149999741465","images/stimuli/spore_stims/simple_15_A_a.gif","images/stimuli/spore_stims/simple_02_A_b.gif","forced_short","","8","simple_dissimilar","images/stimuli/spore_stims/simple_02_A_b.gif","","","","",""
"","null","html-keyboard-response","111","642237","0.0-25.0-0.4","SS1619739541834","","","null","","","","","","<p><img src= images/blank.png width =""600"" height = ""600"" style=""position:fixed;top:50%; left:50%; transform: translate(-50%, -50%); border:5px solid black"">","","","","","","","",""
"","643.404999980703","sequential-stimulus-presentation-old","112","643711","0.0-25.0-1.4","SS1619739541834","trial","","40","500","1143.404999980703","images/stimuli/spore_stims/simple_15_A_a.gif","images/stimuli/spore_stims/simple_02_A_b.gif","forced_short","","8","simple_dissimilar","images/stimuli/spore_stims/simple_02_A_b.gif","","","","",""
"","2526.83500002604","survey-multi-choice","113","646240","0.0-26.0","SS1619739541834","math_question","","","","","","","","","","","","{""Q0"":""8""}","[0]","8","",""
"","null","html-keyboard-response","114","647488","0.0-27.0-0.0","SS1619739541834","","","null","","","","","","<p><img src= images/blank.png width =""600"" height = ""600"" style=""position:fixed;top:50%; left:50%; transform: translate(-50%, -50%); border:5px solid black"">","","","","","","","",""
"","6541.480000014417","sequential-stimulus-presentation-old","115","669772","0.0-27.0-1.0","SS1619739541834","trial","","40","500","7041.480000014417","images/stimuli/spore_stims/complex_17_A_a.gif","images/stimuli/spore_stims/complex_04_A_b.gif","forced_long","","9","complex_dissimilar","images/stimuli/spore_stims/complex_04_A_b.gif","","","","",""
"","null","html-keyboard-response","116","670926","0.0-27.0-0.1","SS1619739541834","","","null","","","","","","<p><img src= images/blank.png width =""600"" height = ""600"" style=""position:fixed;top:50%; left:50%; transform: translate(-50%, -50%); border:5px solid black"">","","","","","","","",""
"","541.9199999887496","sequential-stimulus-presentation-old","117","671971","0.0-27.0-1.1","SS1619739541834","trial","","40","500","1041.9199999887496","images/stimuli/spore_stims/complex_17_A_a.gif","images/stimuli/spore_stims/complex_04_A_b.gif","forced_long","","9","complex_dissimilar","images/stimuli/spore_stims/complex_04_A_b.gif","","","","",""
"","null","html-keyboard-response","118","673078","0.0-27.0-0.2","SS1619739541834","","","null","","","","","","<p><img src= images/blank.png width =""600"" height = ""600"" style=""position:fixed;top:50%; left:50%; transform: translate(-50%, -50%); border:5px solid black"">","","","","","","","",""
"","1829.4349999632686","sequential-stimulus-presentation-old","119","675411","0.0-27.0-1.2","SS1619739541834","trial","","40","500","2329.4349999632686","images/stimuli/spore_stims/complex_17_A_a.gif","images/stimuli/spore_stims/complex_04_A_b.gif","forced_long","","9","complex_dissimilar","images/stimuli/spore_stims/complex_17_A_a.gif","","","","",""
"","null","html-keyboard-response","120","676325","0.0-27.0-0.3","SS1619739541834","","","null","","","","","","<p><img src= images/blank.png width =""600"" height = ""600"" style=""position:fixed;top:50%; left:50%; transform: translate(-50%, -50%); border:5px solid black"">","","","","","","","",""
"","768.5300000011921","sequential-stimulus-presentation-old","121","677605","0.0-27.0-1.3","SS1619739541834","trial","","40","500","1268.530000001192","images/stimuli/spore_stims/complex_17_A_a.gif","images/stimuli/spore_stims/complex_04_A_b.gif","forced_long","","9","complex_dissimilar","images/stimuli/spore_stims/complex_04_A_b.gif","","","","",""
"","null","html-keyboard-response","122","678601","0.0-27.0-0.4","SS1619739541834","","","null","","","","","","<p><img src= images/blank.png width =""600"" height = ""600"" style=""position:fixed;top:50%; left:50%; transform: translate(-50%, -50%); border:5px solid black"">","","","","","","","",""
"","516.0799999721348","sequential-stimulus-presentation-old","123","679624","0.0-27.0-1.4","SS1619739541834","trial","","40","500","1016.0799999721348","images/stimuli/spore_stims/complex_17_A_a.gif","images/stimuli/spore_stims/complex_04_A_b.gif","forced_long","","9","complex_dissimilar","images/stimuli/spore_stims/complex_04_A_b.gif","","","","",""
"","null","html-keyboard-response","124","680721","0.0-27.0-0.5","SS1619739541834","","","null","","","","","","<p><img src= images/blank.png width =""600"" height = ""600"" style=""position:fixed;top:50%; left:50%; transform: translate(-50%, -50%); border:5px solid black"">","","","","","","","",""
"","537.2550000902265","sequential-stimulus-presentation-old","125","681761","0.0-27.0-1.5","SS1619739541834","trial","","40","500","1037.2550000902265","images/stimuli/spore_stims/complex_17_A_a.gif","images/stimuli/spore_stims/complex_04_A_b.gif","forced_long","","9","complex_dissimilar","images/stimuli/spore_stims/complex_17_A_a.gif","","","","",""
"","2523.4550000168383","survey-multi-choice","126","684286","0.0-28.0","SS1619739541834","math_question","","","","","","","","","","","","{""Q0"":""5""}","[0]","5","",""
"","null","html-keyboard-response","127","685384","0.0-29.0-0.0","SS1619739541834","","","null","","","","","","<p><img src= images/blank.png width =""600"" height = ""600"" style=""position:fixed;top:50%; left:50%; transform: translate(-50%, -50%); border:5px solid black"">","","","","","","","",""
"","144.3000000435859","sequential-stimulus-presentation-old","128","686030","0.0-29.0-1.0","SS1619739541834","trial","","40","500","644.3000000435859","images/stimuli/spore_stims/simple_12_A_b.gif","images/stimuli/spore_stims/simple_20_A_a.gif","self_paced","","10","simple_dissimilar","images/stimuli/spore_stims/simple_20_A_a.gif","","","","",""
"","null","html-keyboard-response","129","687085","0.0-29.0-0.1","SS1619739541834","","","null","","","","","","<p><img src= images/blank.png width =""600"" height = ""600"" style=""position:fixed;top:50%; left:50%; transform: translate(-50%, -50%); border:5px solid black"">","","","","","","","",""
"","1089.2049999674782","sequential-stimulus-presentation-old","130","688677","0.0-29.0-1.1","SS1619739541834","trial","","40","500","1589.2049999674782","images/stimuli/spore_stims/simple_12_A_b.gif","images/stimuli/spore_stims/simple_20_A_a.gif","self_paced","","10","simple_dissimilar","images/stimuli/spore_stims/simple_20_A_a.gif","","","","",""
"","null","html-keyboard-response","131","689529","0.0-29.0-0.2","SS1619739541834","","","null","","","","","","<p><img src= images/blank.png width =""600"" height = ""600"" style=""position:fixed;top:50%; left:50%; transform: translate(-50%, -50%); border:5px solid black"">","","","","","","","",""
"","2416.455000056885","sequential-stimulus-presentation-old","132","692457","0.0-29.0-1.2","SS1619739541834","trial","","40","500","2916.455000056885","images/stimuli/spore_stims/simple_12_A_b.gif","images/stimuli/spore_stims/simple_20_A_a.gif","self_paced","","10","simple_dissimilar","images/stimuli/spore_stims/simple_20_A_a.gif","","","","",""
"","null","html-keyboard-response","133","693665","0.0-29.0-0.3","SS1619739541834","","","null","","","","","","<p><img src= images/blank.png width =""600"" height = ""600"" style=""position:fixed;top:50%; left:50%; transform: translate(-50%, -50%); border:5px solid black"">","","","","","","","",""
"","1623.4499999554828","sequential-stimulus-presentation-old","134","695793","0.0-29.0-1.3","SS1619739541834","trial","","40","500","2123.449999955483","images/stimuli/spore_stims/simple_12_A_b.gif","images/stimuli/spore_stims/simple_20_A_a.gif","self_paced","","10","simple_dissimilar","images/stimuli/spore_stims/simple_20_A_a.gif","","","","",""
"","2384.8849999485537","survey-multi-choice","135","698179","0.0-30.0","SS1619739541834","math_question","","","","","","","","","","","","{""Q0"":""5""}","[0]","5","",""
"","null","html-keyboard-response","136","699429","0.0-31.0-0.0","SS1619739541834","","","null","","","","","","<p><img src= images/blank.png width =""600"" height = ""600"" style=""position:fixed;top:50%; left:50%; transform: translate(-50%, -50%); border:5px solid black"">","","","","","","","",""
"","816.690000006929","sequential-stimulus-presentation-old","137","700749","0.0-31.0-1.0","SS1619739541834","trial","","40","500","1316.690000006929","images/stimuli/spore_stims/simple_14_A_b.gif","images/stimuli/spore_stims/simple_05_A_a.gif","self_paced","","11","simple_dissimilar","images/stimuli/spore_stims/simple_05_A_a.gif","","","","",""
"","null","html-keyboard-response","138","701772","0.0-31.0-0.1","SS1619739541834","","","null","","","","","","<p><img src= images/blank.png width =""600"" height = ""600"" style=""position:fixed;top:50%; left:50%; transform: translate(-50%, -50%); border:5px solid black"">","","","","","","","",""
"","595.545000047423","sequential-stimulus-presentation-old","139","702878","0.0-31.0-1.1","SS1619739541834","trial","","40","500","1095.545000047423","images/stimuli/spore_stims/simple_14_A_b.gif","images/stimuli/spore_stims/simple_05_A_a.gif","self_paced","","11","simple_dissimilar","images/stimuli/spore_stims/simple_05_A_a.gif","","","","",""
"","null","html-keyboard-response","140","703905","0.0-31.0-0.2","SS1619739541834","","","null","","","","","","<p><img src= images/blank.png width =""600"" height = ""600"" style=""position:fixed;top:50%; left:50%; transform: translate(-50%, -50%); border:5px solid black"">","","","","","","","",""
"","790.0000000372529","sequential-stimulus-presentation-old","141","705205","0.0-31.0-1.2","SS1619739541834","trial","","40","500","1290.000000037253","images/stimuli/spore_stims/simple_14_A_b.gif","images/stimuli/spore_stims/simple_05_A_a.gif","self_paced","","11","simple_dissimilar","images/stimuli/spore_stims/simple_05_A_a.gif","","","","",""
"","null","html-keyboard-response","142","706464","0.0-31.0-0.3","SS1619739541834","","","null","","","","","","<p><img src= images/blank.png width =""600"" height = ""600"" style=""position:fixed;top:50%; left:50%; transform: translate(-50%, -50%); border:5px solid black"">","","","","","","","",""
"","1477.1949999267235","sequential-stimulus-presentation-old","143","708444","0.0-31.0-1.3","SS1619739541834","trial","","40","500","1977.1949999267235","images/stimuli/spore_stims/simple_14_A_b.gif","images/stimuli/spore_stims/simple_05_A_a.gif","self_paced","","11","simple_dissimilar","images/stimuli/spore_stims/simple_05_A_a.gif","","","","",""
"","null","html-keyboard-response","144","709563","0.0-31.0-0.4","SS1619739541834","","","null","","","","","","<p><img src= images/blank.png width =""600"" height = ""600"" style=""position:fixed;top:50%; left:50%; transform: translate(-50%, -50%); border:5px solid black"">","","","","","","","",""
"","1063.8299999991432","sequential-stimulus-presentation-old","145","711129","0.0-31.0-1.4","SS1619739541834","trial","","40","500","1563.8299999991432","images/stimuli/spore_stims/simple_14_A_b.gif","images/stimuli/spore_stims/simple_05_A_a.gif","self_paced","","11","simple_dissimilar","images/stimuli/spore_stims/simple_14_A_b.gif","","","","",""
"","null","html-keyboard-response","146","712430","0.0-31.0-0.5","SS1619739541834","","","null","","","","","","<p><img src= images/blank.png width =""600"" height = ""600"" style=""position:fixed;top:50%; left:50%; transform: translate(-50%, -50%); border:5px solid black"">","","","","","","","",""
"","2797.14999999851","sequential-stimulus-presentation-old","147","715738","0.0-31.0-1.5","SS1619739541834","trial","","40","500","3297.14999999851","images/stimuli/spore_stims/simple_14_A_b.gif","images/stimuli/spore_stims/simple_05_A_a.gif","self_paced","","11","simple_dissimilar","images/stimuli/spore_stims/simple_05_A_a.gif","","","","",""
"[{""page_index"":0,""viewing_time"":3975.360000040382}]","3975.4899999825284","instructions","148","719715","0.0-32.0","SS1619739541834","instructions","","","","","","","","","","","","","","","",""
"","8126.369999954477","survey-likert","149","727844","0.0-33.0","SS1619739541834","similarity_question","","","","","","","","","","","","{""Q0"":2}","[0]","","images/stimuli/spore_stims/complex_13_A_a.gif","images/stimuli/spore_stims/complex_06_A_b.gif"
"","3933.589999913238","survey-likert","150","731781","0.0-34.0","SS1619739541834","similarity_question","","","","","","","","","","","","{""Q0"":1}","[0]","","images/stimuli/spore_stims/complex_11_A_b.gif","images/stimuli/spore_stims/complex_20_A_a.gif"
"","4329.389999969862","survey-likert","151","736115","0.0-35.0","SS1619739541834","similarity_question","","","","","","","","","","","","{""Q0"":3}","[0]","","images/stimuli/spore_stims/complex_09_A_a.gif","images/stimuli/spore_stims/complex_18_A_b.gif"
"","4735.494999913499","survey-likert","152","740855","0.0-36.0","SS1619739541834","similarity_question","","","","","","","","","","","","{""Q0"":5}","[0]","","images/stimuli/spore_stims/simple_20_A_a.gif","images/stimuli/spore_stims/simple_12_A_b.gif"
"","2917.8700000047684","survey-likert","153","743777","0.0-37.0","SS1619739541834","similarity_question","","","","","","","","","","","","{""Q0"":4}","[0]","","images/stimuli/spore_stims/simple_01_A_b.gif","images/stimuli/spore_stims/simple_04_A_a.gif"
"","2609.64999999851","survey-likert","154","746391","0.0-38.0","SS1619739541834","similarity_question","","","","","","","","","","","","{""Q0"":3}","[0]","","images/stimuli/spore_stims/simple_19_A_a.gif","images/stimuli/spore_stims/simple_04_A_b.gif"
"","5723.5450000735","survey-likert","155","752120","0.0-39.0","SS1619739541834","similarity_question","","","","","","","","","","","","{""Q0"":4}","[0]","","images/stimuli/spore_stims/complex_12_A_b.gif","images/stimuli/spore_stims/complex_18_A_a.gif"
"","2297.3149999743327","survey-likert","156","754421","0.0-40.0","SS1619739541834","similarity_question","","","","","","","","","","","","{""Q0"":4}","[0]","","images/stimuli/spore_stims/simple_14_A_b.gif","images/stimuli/spore_stims/simple_05_A_a.gif"
"","1939.6799999522045","survey-likert","157","756365","0.0-41.0","SS1619739541834","similarity_question","","","","","","","","","","","","{""Q0"":4}","[0]","","images/stimuli/spore_stims/simple_02_A_b.gif","images/stimuli/spore_stims/simple_15_A_a.gif"
"","3755.795000004582","survey-likert","158","760125","0.0-42.0","SS1619739541834","similarity_question","","","","","","","","","","","","{""Q0"":2}","[0]","","images/stimuli/spore_stims/complex_17_A_a.gif","images/stimuli/spore_stims/complex_04_A_b.gif"
"","6931.385000003502","survey-likert","159","767061","0.0-43.0","SS1619739541834","similarity_question","","","","","","","","","","","","{""Q0"":4}","[0]","","images/stimuli/spore_stims/complex_19_A_a.gif","images/stimuli/spore_stims/complex_13_A_b.gif"
"","1967.795000062324","survey-likert","160","769033","0.0-44.0","SS1619739541834","similarity_question","","","","","","","","","","","","{""Q0"":4}","[0]","","images/stimuli/spore_stims/simple_10_A_b.gif","images/stimuli/spore_stims/simple_13_A_a.gif"
"[{""page_index"":0,""viewing_time"":2853.650000062771}]","2853.8600000320002","instructions","161","771891","0.0-45.0","SS1619739541834","instructions","","","","","","","","","","","","","","","",""
"","5150.415000040084","survey-likert","162","777043","0.0-46.0","SS1619739541834","","","","","","","","","images/stimuli/spore_stims/simple_02_A_b.gif","","","","{""Q0"":1}","[0]","","",""
"","2705.5750000290573","survey-likert","163","779753","0.0-47.0","SS1619739541834","","","","","","","","","images/stimuli/spore_stims/complex_20_A_a.gif","","","","{""Q0"":5}","[0]","","",""
"","2571.460000006482","survey-likert","164","782329","0.0-48.0","SS1619739541834","","","","","","","","","images/stimuli/spore_stims/complex_13_A_a.gif","","","","{""Q0"":4}","[0]","","",""
"","3807.5999999418855","survey-likert","165","786141","0.0-49.0","SS1619739541834","","","","","","","","","images/stimuli/spore_stims/simple_05_A_a.gif","","","","{""Q0"":0}","[0]","","",""
"","2674.295000033453","survey-likert","166","788820","0.0-50.0","SS1619739541834","","","","","","","","","images/stimuli/spore_stims/complex_17_A_a.gif","","","","{""Q0"":6}","[0]","","",""
"","2449.170000036247","survey-likert","167","791273","0.0-51.0","SS1619739541834","","","","","","","","","images/stimuli/spore_stims/simple_20_A_a.gif","","","","{""Q0"":2}","[0]","","",""
"","2751.7499999376014","survey-likert","168","794029","0.0-52.0","SS1619739541834","","","","","","","","","images/stimuli/spore_stims/simple_04_A_a.gif","","","","{""Q0"":1}","[0]","","",""
"","2072.010000003502","survey-likert","169","796105","0.0-53.0","SS1619739541834","","","","","","","","","images/stimuli/spore_stims/simple_04_A_b.gif","","","","{""Q0"":1}","[0]","","",""
"","3197.5899999961257","survey-likert","170","799307","0.0-54.0","SS1619739541834","","","","","","","","","images/stimuli/spore_stims/complex_09_A_a.gif","","","","{""Q0"":5}","[0]","","",""
"","2253.469999996014","survey-likert","171","801566","0.0-55.0","SS1619739541834","","","","","","","","","images/stimuli/spore_stims/complex_13_A_b.gif","","","","{""Q0"":4}","[0]","","",""
"","2341.7200000258163","survey-likert","172","803911","0.0-56.0","SS1619739541834","","","","","","","","","images/stimuli/spore_stims/simple_10_A_b.gif","","","","{""Q0"":2}","[0]","","",""
"","2381.6299999598414","survey-likert","173","806297","0.0-57.0","SS1619739541834","","","","","","","","","images/stimuli/spore_stims/complex_12_A_b.gif","","","","{""Q0"":6}","[0]","","",""
"[{""page_index"":0,""viewing_time"":1815.3049999382347}]","1815.4349999967963","instructions","174","808117","0.0-58.0","SS1619739541834","instructions","","","","","","","","","","","","","","","",""
"","2761.0400000121444","demog-age","175","810881","0.0-59.0","SS1619739541834","","","","","","","","","","","","","{""age"":""30""}","","","",""
"","7031.8249999545515","demog-ethnic-US","176","817916","0.0-60.0","SS1619739541834","","","","","","","","","","","","","{""ethnicity"":[""White""]}","[0]","","",""
"","5682.744999998249","demog-gender-and-education","177","823603","0.0-61.0","SS1619739541834","","","","","","","","","","","","","{""gender"":""Male"",""education"":""High school diploma""}","[0,1]","","",""
"","10078.620000043884","survey-text","178","833687","0.0-62.0","SS1619739541834","feedback","","","","","","","","","","","","{""Q0"":""no""}","","","",""
"[{""page_index"":0,""viewing_time"":1475.594999967143}]","1475.7299999473616","instructions","179","835165","0.0-63.0","SS1619739541834","instructions","","","","","","","","","","","","","","","",""
