"view_history","rt","trial_type","trial_index","time_elapsed","internal_node_id","subject","stimulus_type","trial_stimulus","key_press","minimum_viewing_duration","trial_looking_time","block_deviant","block_background","exposure_type","stimulus","block_number","block_type","stimulus_displayed","responses","question_order","math_correct_answer","stimulus_left","stimulus_right"
"[{""page_index"":0,""viewing_time"":18049.554999917746}]","18051.19499983266","instructions","0","18054","0.0-0.0","SS1619740197972","","","","","","","","","","","","","","","","",""
"[{""page_index"":0,""viewing_time"":2321.659999899566},{""page_index"":1,""viewing_time"":1416.6000001132488}]","3738.704999908805","instructions","1","23804","0.0-1.0","SS1619740197972","instructions","","","","","","","","","","","","","","","",""
"","5290.490000043064","sequential-stimulus-presentation-old","2","29625","0.0-2.0","SS1619740197972","","","40","500","5790.490000043064","null","null","self_paced","","","","","","","","",""
"","7328.184999991208","sequential-stimulus-presentation-old","3","37458","0.0-3.0","SS1619740197972","","","40","500","7828.184999991208","null","null","self_paced","","","","","","","","",""
"[{""page_index"":0,""viewing_time"":21163.734999950975}]","21164.25000014715","instructions","4","58623","0.0-4.0","SS1619740197972","instructions","","","","","","","","","","","","","","","",""
"","1236.1800000071526","sequential-stimulus-presentation-old","5","74865","0.0-5.0","SS1619740197972","","","40","500","1736.1800000071526","null","null","forced_long","","","","","","","","",""
"","5543.2150000706315","sequential-stimulus-presentation-old","6","80913","0.0-6.0","SS1619740197972","","","40","500","6043.2150000706315","null","null","forced_long","","","","","","","","",""
"[{""page_index"":0,""viewing_time"":6063.2600001990795}]","6063.6950000189245","instructions","7","86978","0.0-7.0","SS1619740197972","instructions","","","","","","","","","","","","","","","",""
"[{""page_index"":0,""viewing_time"":27398.515000008047},{""page_index"":1,""viewing_time"":11106.794999912381},{""page_index"":2,""viewing_time"":6704.86000017263},{""page_index"":3,""viewing_time"":2353.140000021085},{""page_index"":4,""viewing_time"":1375.7849999237806}]","48939.7450000979","instructions","8","135922","0.0-8.0","SS1619740197972","instructions","","","","","","","","","","","","","","","",""
"","null","html-keyboard-response","9","136823","0.0-9.0-0.0","SS1619740197972","","","null","","","","","","<p><img src= images/blank.png width =""600"" height = ""600"" style=""position:fixed;top:50%; left:50%; transform: translate(-50%, -50%); border:5px solid black"">","","","","","","","",""
"","1770.5099999438971","sequential-stimulus-presentation-old","10","139104","0.0-9.0-1.0","SS1619740197972","trial","","40","500","2270.509999943897","images/stimuli/spore_stims/complex_06_A_a.gif","images/stimuli/spore_stims/complex_16_A_b.gif","forced_short","","0","complex_dissimilar","images/stimuli/spore_stims/complex_16_A_b.gif","","","","",""
"","null","html-keyboard-response","11","140046","0.0-9.0-0.1","SS1619740197972","","","null","","","","","","<p><img src= images/blank.png width =""600"" height = ""600"" style=""position:fixed;top:50%; left:50%; transform: translate(-50%, -50%); border:5px solid black"">","","","","","","","",""
"","27463.445000117645","sequential-stimulus-presentation-old","12","168016","0.0-9.0-1.1","SS1619740197972","trial","","40","500","27963.445000117645","images/stimuli/spore_stims/complex_06_A_a.gif","images/stimuli/spore_stims/complex_16_A_b.gif","forced_short","","0","complex_dissimilar","images/stimuli/spore_stims/complex_16_A_b.gif","","","","",""
"","null","html-keyboard-response","13","169149","0.0-9.0-0.2","SS1619740197972","","","null","","","","","","<p><img src= images/blank.png width =""600"" height = ""600"" style=""position:fixed;top:50%; left:50%; transform: translate(-50%, -50%); border:5px solid black"">","","","","","","","",""
"","11743.595000123605","sequential-stimulus-presentation-old","14","181399","0.0-9.0-1.2","SS1619740197972","trial","","40","500","12243.595000123605","images/stimuli/spore_stims/complex_06_A_a.gif","images/stimuli/spore_stims/complex_16_A_b.gif","forced_short","","0","complex_dissimilar","images/stimuli/spore_stims/complex_16_A_b.gif","","","","",""
"","null","html-keyboard-response","15","182637","0.0-9.0-0.3","SS1619740197972","","","null","","","","","","<p><img src= images/blank.png width =""600"" height = ""600"" style=""position:fixed;top:50%; left:50%; transform: translate(-50%, -50%); border:5px solid black"">","","","","","","","",""
"","1590.8900001086295","sequential-stimulus-presentation-old","16","184735","0.0-9.0-1.3","SS1619740197972","trial","","40","500","2090.8900001086295","images/stimuli/spore_stims/complex_06_A_a.gif","images/stimuli/spore_stims/complex_16_A_b.gif","forced_short","","0","complex_dissimilar","images/stimuli/spore_stims/complex_16_A_b.gif","","","","",""
"","5778.870000038296","survey-multi-choice","17","190537","0.0-10.0","SS1619740197972","math_question","","","","","","","","","","","","{""Q0"":""14""}","[0]","14","",""
"","null","html-keyboard-response","18","191609","0.0-11.0-0.0","SS1619740197972","","","null","","","","","","<p><img src= images/blank.png width =""600"" height = ""600"" style=""position:fixed;top:50%; left:50%; transform: translate(-50%, -50%); border:5px solid black"">","","","","","","","",""
"","1815.5650000553578","sequential-stimulus-presentation-old","19","193951","0.0-11.0-1.0","SS1619740197972","trial","","40","500","2315.565000055358","images/stimuli/spore_stims/simple_02_A_a.gif","images/stimuli/spore_stims/simple_09_A_b.gif","forced_short","","1","simple_dissimilar","images/stimuli/spore_stims/simple_09_A_b.gif","","","","",""
"","null","html-keyboard-response","20","195177","0.0-11.0-0.1","SS1619740197972","","","null","","","","","","<p><img src= images/blank.png width =""600"" height = ""600"" style=""position:fixed;top:50%; left:50%; transform: translate(-50%, -50%); border:5px solid black"">","","","","","","","",""
"","3253.990000113845","sequential-stimulus-presentation-old","21","198935","0.0-11.0-1.1","SS1619740197972","trial","","40","500","3753.990000113845","images/stimuli/spore_stims/simple_02_A_a.gif","images/stimuli/spore_stims/simple_09_A_b.gif","forced_short","","1","simple_dissimilar","images/stimuli/spore_stims/simple_09_A_b.gif","","","","",""
"","null","html-keyboard-response","22","199896","0.0-11.0-0.2","SS1619740197972","","","null","","","","","","<p><img src= images/blank.png width =""600"" height = ""600"" style=""position:fixed;top:50%; left:50%; transform: translate(-50%, -50%); border:5px solid black"">","","","","","","","",""
"","2678.635000018403","sequential-stimulus-presentation-old","23","203087","0.0-11.0-1.2","SS1619740197972","trial","","40","500","3178.635000018403","images/stimuli/spore_stims/simple_02_A_a.gif","images/stimuli/spore_stims/simple_09_A_b.gif","forced_short","","1","simple_dissimilar","images/stimuli/spore_stims/simple_09_A_b.gif","","","","",""
"","null","html-keyboard-response","24","204107","0.0-11.0-0.3","SS1619740197972","","","null","","","","","","<p><img src= images/blank.png width =""600"" height = ""600"" style=""position:fixed;top:50%; left:50%; transform: translate(-50%, -50%); border:5px solid black"">","","","","","","","",""
"","1714.1799998935312","sequential-stimulus-presentation-old","25","206336","0.0-11.0-1.3","SS1619740197972","trial","","40","500","2214.179999893531","images/stimuli/spore_stims/simple_02_A_a.gif","images/stimuli/spore_stims/simple_09_A_b.gif","forced_short","","1","simple_dissimilar","images/stimuli/spore_stims/simple_09_A_b.gif","","","","",""
"","null","html-keyboard-response","26","207274","0.0-11.0-0.4","SS1619740197972","","","null","","","","","","<p><img src= images/blank.png width =""600"" height = ""600"" style=""position:fixed;top:50%; left:50%; transform: translate(-50%, -50%); border:5px solid black"">","","","","","","","",""
"","1248.4850001055747","sequential-stimulus-presentation-old","27","209031","0.0-11.0-1.4","SS1619740197972","trial","","40","500","1748.4850001055747","images/stimuli/spore_stims/simple_02_A_a.gif","images/stimuli/spore_stims/simple_09_A_b.gif","forced_short","","1","simple_dissimilar","images/stimuli/spore_stims/simple_09_A_b.gif","","","","",""
"","4379.835000028834","survey-multi-choice","28","213415","0.0-12.0","SS1619740197972","math_question","","","","","","","","","","","","{""Q0"":""8""}","[0]","8","",""
"","null","html-keyboard-response","29","214560","0.0-13.0-0.0","SS1619740197972","","","null","","","","","","<p><img src= images/blank.png width =""600"" height = ""600"" style=""position:fixed;top:50%; left:50%; transform: translate(-50%, -50%); border:5px solid black"">","","","","","","","",""
"","4389.71500005573","sequential-stimulus-presentation-old","30","219456","0.0-13.0-1.0","SS1619740197972","trial","","40","500","4889.71500005573","images/stimuli/spore_stims/simple_13_A_a.gif","images/stimuli/spore_stims/simple_01_A_b.gif","self_paced","","2","simple_dissimilar","images/stimuli/spore_stims/simple_01_A_b.gif","","","","",""
"","null","html-keyboard-response","31","220307","0.0-13.0-0.1","SS1619740197972","","","null","","","","","","<p><img src= images/blank.png width =""600"" height = ""600"" style=""position:fixed;top:50%; left:50%; transform: translate(-50%, -50%); border:5px solid black"">","","","","","","","",""
"","1129.179999930784","sequential-stimulus-presentation-old","32","221943","0.0-13.0-1.1","SS1619740197972","trial","","40","500","1629.179999930784","images/stimuli/spore_stims/simple_13_A_a.gif","images/stimuli/spore_stims/simple_01_A_b.gif","self_paced","","2","simple_dissimilar","images/stimuli/spore_stims/simple_01_A_b.gif","","","","",""
"","null","html-keyboard-response","33","223157","0.0-13.0-0.2","SS1619740197972","","","null","","","","","","<p><img src= images/blank.png width =""600"" height = ""600"" style=""position:fixed;top:50%; left:50%; transform: translate(-50%, -50%); border:5px solid black"">","","","","","","","",""
"","1313.7550000101328","sequential-stimulus-presentation-old","34","224976","0.0-13.0-1.2","SS1619740197972","trial","","40","500","1813.7550000101328","images/stimuli/spore_stims/simple_13_A_a.gif","images/stimuli/spore_stims/simple_01_A_b.gif","self_paced","","2","simple_dissimilar","images/stimuli/spore_stims/simple_01_A_b.gif","","","","",""
"","null","html-keyboard-response","35","226280","0.0-13.0-0.3","SS1619740197972","","","null","","","","","","<p><img src= images/blank.png width =""600"" height = ""600"" style=""position:fixed;top:50%; left:50%; transform: translate(-50%, -50%); border:5px solid black"">","","","","","","","",""
"","1709.0799999423325","sequential-stimulus-presentation-old","36","228495","0.0-13.0-1.3","SS1619740197972","trial","","40","500","2209.0799999423325","images/stimuli/spore_stims/simple_13_A_a.gif","images/stimuli/spore_stims/simple_01_A_b.gif","self_paced","","2","simple_dissimilar","images/stimuli/spore_stims/simple_01_A_b.gif","","","","",""
"","null","html-keyboard-response","37","229804","0.0-13.0-0.4","SS1619740197972","","","null","","","","","","<p><img src= images/blank.png width =""600"" height = ""600"" style=""position:fixed;top:50%; left:50%; transform: translate(-50%, -50%); border:5px solid black"">","","","","","","","",""
"","10233.364999992773","sequential-stimulus-presentation-old","38","240544","0.0-13.0-1.4","SS1619740197972","trial","","40","500","10733.364999992773","images/stimuli/spore_stims/simple_13_A_a.gif","images/stimuli/spore_stims/simple_01_A_b.gif","self_paced","","2","simple_dissimilar","images/stimuli/spore_stims/simple_13_A_a.gif","","","","",""
"","3046.5100000146776","survey-multi-choice","39","243594","0.0-14.0","SS1619740197972","math_question","","","","","","","","","","","","{""Q0"":""8""}","[0]","8","",""
"","null","html-keyboard-response","40","244654","0.0-15.0-0.0","SS1619740197972","","","null","","","","","","<p><img src= images/blank.png width =""600"" height = ""600"" style=""position:fixed;top:50%; left:50%; transform: translate(-50%, -50%); border:5px solid black"">","","","","","","","",""
"","3098.994999891147","sequential-stimulus-presentation-old","41","262759","0.0-15.0-1.0","SS1619740197972","trial","","40","500","3598.994999891147","images/stimuli/spore_stims/simple_17_A_b.gif","images/stimuli/spore_stims/simple_14_A_a.gif","forced_long","","3","simple_dissimilar","images/stimuli/spore_stims/simple_14_A_a.gif","","","","",""
"","null","html-keyboard-response","42","263740","0.0-15.0-0.1","SS1619740197972","","","null","","","","","","<p><img src= images/blank.png width =""600"" height = ""600"" style=""position:fixed;top:50%; left:50%; transform: translate(-50%, -50%); border:5px solid black"">","","","","","","","",""
"","736.8100001476705","sequential-stimulus-presentation-old","43","264992","0.0-15.0-1.1","SS1619740197972","trial","","40","500","1236.8100001476705","images/stimuli/spore_stims/simple_17_A_b.gif","images/stimuli/spore_stims/simple_14_A_a.gif","forced_long","","3","simple_dissimilar","images/stimuli/spore_stims/simple_14_A_a.gif","","","","",""
"","null","html-keyboard-response","44","265858","0.0-15.0-0.2","SS1619740197972","","","null","","","","","","<p><img src= images/blank.png width =""600"" height = ""600"" style=""position:fixed;top:50%; left:50%; transform: translate(-50%, -50%); border:5px solid black"">","","","","","","","",""
"","1129.7999999951571","sequential-stimulus-presentation-old","45","267495","0.0-15.0-1.2","SS1619740197972","trial","","40","500","1629.7999999951571","images/stimuli/spore_stims/simple_17_A_b.gif","images/stimuli/spore_stims/simple_14_A_a.gif","forced_long","","3","simple_dissimilar","images/stimuli/spore_stims/simple_14_A_a.gif","","","","",""
"","null","html-keyboard-response","46","268648","0.0-15.0-0.3","SS1619740197972","","","null","","","","","","<p><img src= images/blank.png width =""600"" height = ""600"" style=""position:fixed;top:50%; left:50%; transform: translate(-50%, -50%); border:5px solid black"">","","","","","","","",""
"","51.29500012844801","sequential-stimulus-presentation-old","47","269207","0.0-15.0-1.3","SS1619740197972","trial","","40","500","551.295000128448","images/stimuli/spore_stims/simple_17_A_b.gif","images/stimuli/spore_stims/simple_14_A_a.gif","forced_long","","3","simple_dissimilar","images/stimuli/spore_stims/simple_14_A_a.gif","","","","",""
"","null","html-keyboard-response","48","270070","0.0-15.0-0.4","SS1619740197972","","","null","","","","","","<p><img src= images/blank.png width =""600"" height = ""600"" style=""position:fixed;top:50%; left:50%; transform: translate(-50%, -50%); border:5px solid black"">","","","","","","","",""
"","230.81999993883073","sequential-stimulus-presentation-old","49","270807","0.0-15.0-1.4","SS1619740197972","trial","","40","500","730.8199999388307","images/stimuli/spore_stims/simple_17_A_b.gif","images/stimuli/spore_stims/simple_14_A_a.gif","forced_long","","3","simple_dissimilar","images/stimuli/spore_stims/simple_14_A_a.gif","","","","",""
"","null","html-keyboard-response","50","271785","0.0-15.0-0.5","SS1619740197972","","","null","","","","","","<p><img src= images/blank.png width =""600"" height = ""600"" style=""position:fixed;top:50%; left:50%; transform: translate(-50%, -50%); border:5px solid black"">","","","","","","","",""
"","451.67000009678304","sequential-stimulus-presentation-old","51","272751","0.0-15.0-1.5","SS1619740197972","trial","","40","500","951.670000096783","images/stimuli/spore_stims/simple_17_A_b.gif","images/stimuli/spore_stims/simple_14_A_a.gif","forced_long","","3","simple_dissimilar","images/stimuli/spore_stims/simple_14_A_a.gif","","","","",""
"","23960.95500001684","survey-multi-choice","52","296716","0.0-16.0","SS1619740197972","math_question","","","","","","","","","","","","{""Q0"":""15""}","[0]","15","",""
"","null","html-keyboard-response","53","297969","0.0-17.0-0.0","SS1619740197972","","","null","","","","","","<p><img src= images/blank.png width =""600"" height = ""600"" style=""position:fixed;top:50%; left:50%; transform: translate(-50%, -50%); border:5px solid black"">","","","","","","","",""
"","7116.900000022724","sequential-stimulus-presentation-old","54","305592","0.0-17.0-1.0","SS1619740197972","trial","","40","500","7616.900000022724","images/stimuli/spore_stims/complex_18_A_a.gif","images/stimuli/spore_stims/complex_08_A_b.gif","forced_short","","4","complex_dissimilar","images/stimuli/spore_stims/complex_08_A_b.gif","","","","",""
"","null","html-keyboard-response","55","306597","0.0-17.0-0.1","SS1619740197972","","","null","","","","","","<p><img src= images/blank.png width =""600"" height = ""600"" style=""position:fixed;top:50%; left:50%; transform: translate(-50%, -50%); border:5px solid black"">","","","","","","","",""
"","6078.300000168383","sequential-stimulus-presentation-old","56","313182","0.0-17.0-1.1","SS1619740197972","trial","","40","500","6578.300000168383","images/stimuli/spore_stims/complex_18_A_a.gif","images/stimuli/spore_stims/complex_08_A_b.gif","forced_short","","4","complex_dissimilar","images/stimuli/spore_stims/complex_18_A_a.gif","","","","",""
"","null","html-keyboard-response","57","314459","0.0-17.0-0.2","SS1619740197972","","","null","","","","","","<p><img src= images/blank.png width =""600"" height = ""600"" style=""position:fixed;top:50%; left:50%; transform: translate(-50%, -50%); border:5px solid black"">","","","","","","","",""
"","8032.085000071675","sequential-stimulus-presentation-old","58","322998","0.0-17.0-1.2","SS1619740197972","trial","","40","500","8532.085000071675","images/stimuli/spore_stims/complex_18_A_a.gif","images/stimuli/spore_stims/complex_08_A_b.gif","forced_short","","4","complex_dissimilar","images/stimuli/spore_stims/complex_18_A_a.gif","","","","",""
"","null","html-keyboard-response","59","324150","0.0-17.0-0.3","SS1619740197972","","","null","","","","","","<p><img src= images/blank.png width =""600"" height = ""600"" style=""position:fixed;top:50%; left:50%; transform: translate(-50%, -50%); border:5px solid black"">","","","","","","","",""
"","7013.449999969453","sequential-stimulus-presentation-old","60","331670","0.0-17.0-1.3","SS1619740197972","trial","","40","500","7513.449999969453","images/stimuli/spore_stims/complex_18_A_a.gif","images/stimuli/spore_stims/complex_08_A_b.gif","forced_short","","4","complex_dissimilar","images/stimuli/spore_stims/complex_08_A_b.gif","","","","",""
"","null","html-keyboard-response","61","332737","0.0-17.0-0.4","SS1619740197972","","","null","","","","","","<p><img src= images/blank.png width =""600"" height = ""600"" style=""position:fixed;top:50%; left:50%; transform: translate(-50%, -50%); border:5px solid black"">","","","","","","","",""
"","2116.6049998719245","sequential-stimulus-presentation-old","62","335368","0.0-17.0-1.4","SS1619740197972","trial","","40","500","2616.6049998719245","images/stimuli/spore_stims/complex_18_A_a.gif","images/stimuli/spore_stims/complex_08_A_b.gif","forced_short","","4","complex_dissimilar","images/stimuli/spore_stims/complex_08_A_b.gif","","","","",""
"","null","html-keyboard-response","63","336305","0.0-17.0-0.5","SS1619740197972","","","null","","","","","","<p><img src= images/blank.png width =""600"" height = ""600"" style=""position:fixed;top:50%; left:50%; transform: translate(-50%, -50%); border:5px solid black"">","","","","","","","",""
"","730.0200001336634","sequential-stimulus-presentation-old","64","337542","0.0-17.0-1.5","SS1619740197972","trial","","40","500","1230.0200001336634","images/stimuli/spore_stims/complex_18_A_a.gif","images/stimuli/spore_stims/complex_08_A_b.gif","forced_short","","4","complex_dissimilar","images/stimuli/spore_stims/complex_08_A_b.gif","","","","",""
"","10908.40999991633","survey-multi-choice","65","348455","0.0-18.0","SS1619740197972","math_question","","","","","","","","","","","","{""Q0"":""18""}","[0]","18","",""
"","null","html-keyboard-response","66","349519","0.0-19.0-0.0","SS1619740197972","","","null","","","","","","<p><img src= images/blank.png width =""600"" height = ""600"" style=""position:fixed;top:50%; left:50%; transform: translate(-50%, -50%); border:5px solid black"">","","","","","","","",""
"","2037.4000000301749","sequential-stimulus-presentation-old","67","366566","0.0-19.0-1.0","SS1619740197972","trial","","40","500","2537.400000030175","images/stimuli/spore_stims/complex_05_A_b.gif","images/stimuli/spore_stims/complex_08_A_a.gif","forced_long","","5","complex_dissimilar","images/stimuli/spore_stims/complex_08_A_a.gif","","","","",""
"","null","html-keyboard-response","68","367458","0.0-19.0-0.1","SS1619740197972","","","null","","","","","","<p><img src= images/blank.png width =""600"" height = ""600"" style=""position:fixed;top:50%; left:50%; transform: translate(-50%, -50%); border:5px solid black"">","","","","","","","",""
"","1334.0099998749793","sequential-stimulus-presentation-old","69","369318","0.0-19.0-1.1","SS1619740197972","trial","","40","500","1834.0099998749793","images/stimuli/spore_stims/complex_05_A_b.gif","images/stimuli/spore_stims/complex_08_A_a.gif","forced_long","","5","complex_dissimilar","images/stimuli/spore_stims/complex_08_A_a.gif","","","","",""
"","null","html-keyboard-response","70","370377","0.0-19.0-0.2","SS1619740197972","","","null","","","","","","<p><img src= images/blank.png width =""600"" height = ""600"" style=""position:fixed;top:50%; left:50%; transform: translate(-50%, -50%); border:5px solid black"">","","","","","","","",""
"","2302.2900000214577","sequential-stimulus-presentation-old","71","373190","0.0-19.0-1.2","SS1619740197972","trial","","40","500","2802.2900000214577","images/stimuli/spore_stims/complex_05_A_b.gif","images/stimuli/spore_stims/complex_08_A_a.gif","forced_long","","5","complex_dissimilar","images/stimuli/spore_stims/complex_08_A_a.gif","","","","",""
"","null","html-keyboard-response","72","374476","0.0-19.0-0.3","SS1619740197972","","","null","","","","","","<p><img src= images/blank.png width =""600"" height = ""600"" style=""position:fixed;top:50%; left:50%; transform: translate(-50%, -50%); border:5px solid black"">","","","","","","","",""
"","1255.9799998998642","sequential-stimulus-presentation-old","73","376254","0.0-19.0-1.3","SS1619740197972","trial","","40","500","1755.9799998998642","images/stimuli/spore_stims/complex_05_A_b.gif","images/stimuli/spore_stims/complex_08_A_a.gif","forced_long","","5","complex_dissimilar","images/stimuli/spore_stims/complex_08_A_a.gif","","","","",""
"","null","html-keyboard-response","74","377325","0.0-19.0-0.4","SS1619740197972","","","null","","","","","","<p><img src= images/blank.png width =""600"" height = ""600"" style=""position:fixed;top:50%; left:50%; transform: translate(-50%, -50%); border:5px solid black"">","","","","","","","",""
"","2142.299999948591","sequential-stimulus-presentation-old","75","379974","0.0-19.0-1.4","SS1619740197972","trial","","40","500","2642.299999948591","images/stimuli/spore_stims/complex_05_A_b.gif","images/stimuli/spore_stims/complex_08_A_a.gif","forced_long","","5","complex_dissimilar","images/stimuli/spore_stims/complex_08_A_a.gif","","","","",""
"","null","html-keyboard-response","76","381109","0.0-19.0-0.5","SS1619740197972","","","null","","","","","","<p><img src= images/blank.png width =""600"" height = ""600"" style=""position:fixed;top:50%; left:50%; transform: translate(-50%, -50%); border:5px solid black"">","","","","","","","",""
"","3093.044999986887","sequential-stimulus-presentation-old","77","384710","0.0-19.0-1.5","SS1619740197972","trial","","40","500","3593.044999986887","images/stimuli/spore_stims/complex_05_A_b.gif","images/stimuli/spore_stims/complex_08_A_a.gif","forced_long","","5","complex_dissimilar","images/stimuli/spore_stims/complex_05_A_b.gif","","","","",""
"","3853.8100000005215","survey-multi-choice","78","388568","0.0-20.0","SS1619740197972","math_question","","","","","","","","","","","","{""Q0"":""4""}","[0]","4","",""
"","null","html-keyboard-response","79","389874","0.0-21.0-0.0","SS1619740197972","","","null","","","","","","<p><img src= images/blank.png width =""600"" height = ""600"" style=""position:fixed;top:50%; left:50%; transform: translate(-50%, -50%); border:5px solid black"">","","","","","","","",""
"","907.6900000218302","sequential-stimulus-presentation-old","80","405790","0.0-21.0-1.0","SS1619740197972","trial","","40","500","1407.6900000218302","images/stimuli/spore_stims/complex_14_A_a.gif","images/stimuli/spore_stims/complex_02_A_b.gif","forced_long","","6","complex_dissimilar","images/stimuli/spore_stims/complex_02_A_b.gif","","","","",""
"","null","html-keyboard-response","81","406685","0.0-21.0-0.1","SS1619740197972","","","null","","","","","","<p><img src= images/blank.png width =""600"" height = ""600"" style=""position:fixed;top:50%; left:50%; transform: translate(-50%, -50%); border:5px solid black"">","","","","","","","",""
"","714.8450000677258","sequential-stimulus-presentation-old","82","407910","0.0-21.0-1.1","SS1619740197972","trial","","40","500","1214.8450000677258","images/stimuli/spore_stims/complex_14_A_a.gif","images/stimuli/spore_stims/complex_02_A_b.gif","forced_long","","6","complex_dissimilar","images/stimuli/spore_stims/complex_02_A_b.gif","","","","",""
"","null","html-keyboard-response","83","408720","0.0-21.0-0.2","SS1619740197972","","","null","","","","","","<p><img src= images/blank.png width =""600"" height = ""600"" style=""position:fixed;top:50%; left:50%; transform: translate(-50%, -50%); border:5px solid black"">","","","","","","","",""
"","132.1699998807162","sequential-stimulus-presentation-old","84","409359","0.0-21.0-1.2","SS1619740197972","trial","","40","500","632.1699998807162","images/stimuli/spore_stims/complex_14_A_a.gif","images/stimuli/spore_stims/complex_02_A_b.gif","forced_long","","6","complex_dissimilar","images/stimuli/spore_stims/complex_14_A_a.gif","","","","",""
"","null","html-keyboard-response","85","410411","0.0-21.0-0.3","SS1619740197972","","","null","","","","","","<p><img src= images/blank.png width =""600"" height = ""600"" style=""position:fixed;top:50%; left:50%; transform: translate(-50%, -50%); border:5px solid black"">","","","","","","","",""
"","1703.8849999662489","sequential-stimulus-presentation-old","86","412622","0.0-21.0-1.3","SS1619740197972","trial","","40","500","2203.884999966249","images/stimuli/spore_stims/complex_14_A_a.gif","images/stimuli/spore_stims/complex_02_A_b.gif","forced_long","","6","complex_dissimilar","images/stimuli/spore_stims/complex_14_A_a.gif","","","","",""
"","null","html-keyboard-response","87","413925","0.0-21.0-0.4","SS1619740197972","","","null","","","","","","<p><img src= images/blank.png width =""600"" height = ""600"" style=""position:fixed;top:50%; left:50%; transform: translate(-50%, -50%); border:5px solid black"">","","","","","","","",""
"","869.3000001367182","sequential-stimulus-presentation-old","88","415302","0.0-21.0-1.4","SS1619740197972","trial","","40","500","1369.3000001367182","images/stimuli/spore_stims/complex_14_A_a.gif","images/stimuli/spore_stims/complex_02_A_b.gif","forced_long","","6","complex_dissimilar","images/stimuli/spore_stims/complex_02_A_b.gif","","","","",""
"","8925.245000049472","survey-multi-choice","89","424232","0.0-22.0","SS1619740197972","math_question","","","","","","","","","","","","{""Q0"":""16""}","[0]","16","",""
"","null","html-keyboard-response","90","425260","0.0-23.0-0.0","SS1619740197972","","","null","","","","","","<p><img src= images/blank.png width =""600"" height = ""600"" style=""position:fixed;top:50%; left:50%; transform: translate(-50%, -50%); border:5px solid black"">","","","","","","","",""
"","2405.8149999473244","sequential-stimulus-presentation-old","91","428174","0.0-23.0-1.0","SS1619740197972","trial","","40","500","2905.8149999473244","images/stimuli/spore_stims/simple_19_A_a.gif","images/stimuli/spore_stims/simple_06_A_b.gif","self_paced","","7","simple_dissimilar","images/stimuli/spore_stims/simple_06_A_b.gif","","","","",""
"","null","html-keyboard-response","92","429445","0.0-23.0-0.1","SS1619740197972","","","null","","","","","","<p><img src= images/blank.png width =""600"" height = ""600"" style=""position:fixed;top:50%; left:50%; transform: translate(-50%, -50%); border:5px solid black"">","","","","","","","",""
"","1212.9200000781566","sequential-stimulus-presentation-old","93","431165","0.0-23.0-1.1","SS1619740197972","trial","","40","500","1712.9200000781566","images/stimuli/spore_stims/simple_19_A_a.gif","images/stimuli/spore_stims/simple_06_A_b.gif","self_paced","","7","simple_dissimilar","images/stimuli/spore_stims/simple_06_A_b.gif","","","","",""
"","null","html-keyboard-response","94","431998","0.0-23.0-0.2","SS1619740197972","","","null","","","","","","<p><img src= images/blank.png width =""600"" height = ""600"" style=""position:fixed;top:50%; left:50%; transform: translate(-50%, -50%); border:5px solid black"">","","","","","","","",""
"","133.32500006072223","sequential-stimulus-presentation-old","95","432637","0.0-23.0-1.2","SS1619740197972","trial","","40","500","633.3250000607222","images/stimuli/spore_stims/simple_19_A_a.gif","images/stimuli/spore_stims/simple_06_A_b.gif","self_paced","","7","simple_dissimilar","images/stimuli/spore_stims/simple_06_A_b.gif","","","","",""
"","null","html-keyboard-response","96","433609","0.0-23.0-0.3","SS1619740197972","","","null","","","","","","<p><img src= images/blank.png width =""600"" height = ""600"" style=""position:fixed;top:50%; left:50%; transform: translate(-50%, -50%); border:5px solid black"">","","","","","","","",""
"","306.1200000811368","sequential-stimulus-presentation-old","97","434422","0.0-23.0-1.3","SS1619740197972","trial","","40","500","806.1200000811368","images/stimuli/spore_stims/simple_19_A_a.gif","images/stimuli/spore_stims/simple_06_A_b.gif","self_paced","","7","simple_dissimilar","images/stimuli/spore_stims/simple_06_A_b.gif","","","","",""
"","null","html-keyboard-response","98","435386","0.0-23.0-0.4","SS1619740197972","","","null","","","","","","<p><img src= images/blank.png width =""600"" height = ""600"" style=""position:fixed;top:50%; left:50%; transform: translate(-50%, -50%); border:5px solid black"">","","","","","","","",""
"","703.3150000497699","sequential-stimulus-presentation-old","99","436597","0.0-23.0-1.4","SS1619740197972","trial","","40","500","1203.3150000497699","images/stimuli/spore_stims/simple_19_A_a.gif","images/stimuli/spore_stims/simple_06_A_b.gif","self_paced","","7","simple_dissimilar","images/stimuli/spore_stims/simple_19_A_a.gif","","","","",""
"","4815.029999939725","survey-multi-choice","100","441418","0.0-24.0","SS1619740197972","math_question","","","","","","","","","","","","{""Q0"":""2""}","[0]","2","",""
"","null","html-keyboard-response","101","442306","0.0-25.0-0.0","SS1619740197972","","","null","","","","","","<p><img src= images/blank.png width =""600"" height = ""600"" style=""position:fixed;top:50%; left:50%; transform: translate(-50%, -50%); border:5px solid black"">","","","","","","","",""
"","1718.1349999736995","sequential-stimulus-presentation-old","102","444561","0.0-25.0-1.0","SS1619740197972","trial","","40","500","2218.1349999736995","images/stimuli/spore_stims/complex_19_A_b.gif","images/stimuli/spore_stims/complex_20_A_a.gif","self_paced","","8","complex_dissimilar","images/stimuli/spore_stims/complex_20_A_a.gif","","","","",""
"","null","html-keyboard-response","103","445396","0.0-25.0-0.1","SS1619740197972","","","null","","","","","","<p><img src= images/blank.png width =""600"" height = ""600"" style=""position:fixed;top:50%; left:50%; transform: translate(-50%, -50%); border:5px solid black"">","","","","","","","",""
"","166.03500000201166","sequential-stimulus-presentation-old","104","446069","0.0-25.0-1.1","SS1619740197972","trial","","40","500","666.0350000020117","images/stimuli/spore_stims/complex_19_A_b.gif","images/stimuli/spore_stims/complex_20_A_a.gif","self_paced","","8","complex_dissimilar","images/stimuli/spore_stims/complex_20_A_a.gif","","","","",""
"","null","html-keyboard-response","105","447006","0.0-25.0-0.2","SS1619740197972","","","null","","","","","","<p><img src= images/blank.png width =""600"" height = ""600"" style=""position:fixed;top:50%; left:50%; transform: translate(-50%, -50%); border:5px solid black"">","","","","","","","",""
"","285.10500001721084","sequential-stimulus-presentation-old","106","447798","0.0-25.0-1.2","SS1619740197972","trial","","40","500","785.1050000172108","images/stimuli/spore_stims/complex_19_A_b.gif","images/stimuli/spore_stims/complex_20_A_a.gif","self_paced","","8","complex_dissimilar","images/stimuli/spore_stims/complex_20_A_a.gif","","","","",""
"","null","html-keyboard-response","107","448917","0.0-25.0-0.3","SS1619740197972","","","null","","","","","","<p><img src= images/blank.png width =""600"" height = ""600"" style=""position:fixed;top:50%; left:50%; transform: translate(-50%, -50%); border:5px solid black"">","","","","","","","",""
"","2500.9099999442697","sequential-stimulus-presentation-old","108","451926","0.0-25.0-1.3","SS1619740197972","trial","","40","500","3000.9099999442697","images/stimuli/spore_stims/complex_19_A_b.gif","images/stimuli/spore_stims/complex_20_A_a.gif","self_paced","","8","complex_dissimilar","images/stimuli/spore_stims/complex_19_A_b.gif","","","","",""
"","null","html-keyboard-response","109","453080","0.0-25.0-0.4","SS1619740197972","","","null","","","","","","<p><img src= images/blank.png width =""600"" height = ""600"" style=""position:fixed;top:50%; left:50%; transform: translate(-50%, -50%); border:5px solid black"">","","","","","","","",""
"","159.85499997623265","sequential-stimulus-presentation-old","110","453750","0.0-25.0-1.4","SS1619740197972","trial","","40","500","659.8549999762326","images/stimuli/spore_stims/complex_19_A_b.gif","images/stimuli/spore_stims/complex_20_A_a.gif","self_paced","","8","complex_dissimilar","images/stimuli/spore_stims/complex_19_A_b.gif","","","","",""
"","4149.770000018179","survey-multi-choice","111","457908","0.0-26.0","SS1619740197972","math_question","","","","","","","","","","","","{""Q0"":""12""}","[0]","12","",""
"","null","html-keyboard-response","112","458755","0.0-27.0-0.0","SS1619740197972","","","null","","","","","","<p><img src= images/blank.png width =""600"" height = ""600"" style=""position:fixed;top:50%; left:50%; transform: translate(-50%, -50%); border:5px solid black"">","","","","","","","",""
"","2157.674999907613","sequential-stimulus-presentation-old","113","461422","0.0-27.0-1.0","SS1619740197972","trial","","40","500","2657.674999907613","images/stimuli/spore_stims/complex_12_A_a.gif","images/stimuli/spore_stims/complex_11_A_b.gif","self_paced","","9","complex_dissimilar","images/stimuli/spore_stims/complex_11_A_b.gif","","","","",""
"","null","html-keyboard-response","114","462311","0.0-27.0-0.1","SS1619740197972","","","null","","","","","","<p><img src= images/blank.png width =""600"" height = ""600"" style=""position:fixed;top:50%; left:50%; transform: translate(-50%, -50%); border:5px solid black"">","","","","","","","",""
"","113.96999983116984","sequential-stimulus-presentation-old","115","462934","0.0-27.0-1.1","SS1619740197972","trial","","40","500","613.9699998311698","images/stimuli/spore_stims/complex_12_A_a.gif","images/stimuli/spore_stims/complex_11_A_b.gif","self_paced","","9","complex_dissimilar","images/stimuli/spore_stims/complex_11_A_b.gif","","","","",""
"","null","html-keyboard-response","116","463942","0.0-27.0-0.2","SS1619740197972","","","null","","","","","","<p><img src= images/blank.png width =""600"" height = ""600"" style=""position:fixed;top:50%; left:50%; transform: translate(-50%, -50%); border:5px solid black"">","","","","","","","",""
"","501.36999995447695","sequential-stimulus-presentation-old","117","464949","0.0-27.0-1.2","SS1619740197972","trial","","40","500","1001.369999954477","images/stimuli/spore_stims/complex_12_A_a.gif","images/stimuli/spore_stims/complex_11_A_b.gif","self_paced","","9","complex_dissimilar","images/stimuli/spore_stims/complex_11_A_b.gif","","","","",""
"","null","html-keyboard-response","118","465840","0.0-27.0-0.3","SS1619740197972","","","null","","","","","","<p><img src= images/blank.png width =""600"" height = ""600"" style=""position:fixed;top:50%; left:50%; transform: translate(-50%, -50%); border:5px solid black"">","","","","","","","",""
"","242.13499994948506","sequential-stimulus-presentation-old","119","466589","0.0-27.0-1.3","SS1619740197972","trial","","40","500","742.1349999494851","images/stimuli/spore_stims/complex_12_A_a.gif","images/stimuli/spore_stims/complex_11_A_b.gif","self_paced","","9","complex_dissimilar","images/stimuli/spore_stims/complex_11_A_b.gif","","","","",""
"","null","html-keyboard-response","120","467561","0.0-27.0-0.4","SS1619740197972","","","null","","","","","","<p><img src= images/blank.png width =""600"" height = ""600"" style=""position:fixed;top:50%; left:50%; transform: translate(-50%, -50%); border:5px solid black"">","","","","","","","",""
"","4778.315000003204","sequential-stimulus-presentation-old","121","472845","0.0-27.0-1.4","SS1619740197972","trial","","40","500","5278.315000003204","images/stimuli/spore_stims/complex_12_A_a.gif","images/stimuli/spore_stims/complex_11_A_b.gif","self_paced","","9","complex_dissimilar","images/stimuli/spore_stims/complex_11_A_b.gif","","","","",""
"","null","html-keyboard-response","122","473703","0.0-27.0-0.5","SS1619740197972","","","null","","","","","","<p><img src= images/blank.png width =""600"" height = ""600"" style=""position:fixed;top:50%; left:50%; transform: translate(-50%, -50%); border:5px solid black"">","","","","","","","",""
"","967.7099999971688","sequential-stimulus-presentation-old","123","475189","0.0-27.0-1.5","SS1619740197972","trial","","40","500","1467.7099999971688","images/stimuli/spore_stims/complex_12_A_a.gif","images/stimuli/spore_stims/complex_11_A_b.gif","self_paced","","9","complex_dissimilar","images/stimuli/spore_stims/complex_11_A_b.gif","","","","",""
"","3174.7549998108298","survey-multi-choice","124","478371","0.0-28.0","SS1619740197972","math_question","","","","","","","","","","","","{""Q0"":""10""}","[0]","10","",""
"","null","html-keyboard-response","125","479609","0.0-29.0-0.0","SS1619740197972","","","null","","","","","","<p><img src= images/blank.png width =""600"" height = ""600"" style=""position:fixed;top:50%; left:50%; transform: translate(-50%, -50%); border:5px solid black"">","","","","","","","",""
"","7291.17999994196","sequential-stimulus-presentation-old","126","501909","0.0-29.0-1.0","SS1619740197972","trial","","40","500","7791.17999994196","images/stimuli/spore_stims/simple_03_A_b.gif","images/stimuli/spore_stims/simple_15_A_a.gif","forced_long","","10","simple_dissimilar","images/stimuli/spore_stims/simple_15_A_a.gif","","","","",""
"","null","html-keyboard-response","127","502982","0.0-29.0-0.1","SS1619740197972","","","null","","","","","","<p><img src= images/blank.png width =""600"" height = ""600"" style=""position:fixed;top:50%; left:50%; transform: translate(-50%, -50%); border:5px solid black"">","","","","","","","",""
"","4272.855000104755","sequential-stimulus-presentation-old","128","507765","0.0-29.0-1.1","SS1619740197972","trial","","40","500","4772.855000104755","images/stimuli/spore_stims/simple_03_A_b.gif","images/stimuli/spore_stims/simple_15_A_a.gif","forced_long","","10","simple_dissimilar","images/stimuli/spore_stims/simple_15_A_a.gif","","","","",""
"","null","html-keyboard-response","129","508713","0.0-29.0-0.2","SS1619740197972","","","null","","","","","","<p><img src= images/blank.png width =""600"" height = ""600"" style=""position:fixed;top:50%; left:50%; transform: translate(-50%, -50%); border:5px solid black"">","","","","","","","",""
"","767.970000160858","sequential-stimulus-presentation-old","130","509989","0.0-29.0-1.2","SS1619740197972","trial","","40","500","1267.970000160858","images/stimuli/spore_stims/simple_03_A_b.gif","images/stimuli/spore_stims/simple_15_A_a.gif","forced_long","","10","simple_dissimilar","images/stimuli/spore_stims/simple_15_A_a.gif","","","","",""
"","null","html-keyboard-response","131","511140","0.0-29.0-0.3","SS1619740197972","","","null","","","","","","<p><img src= images/blank.png width =""600"" height = ""600"" style=""position:fixed;top:50%; left:50%; transform: translate(-50%, -50%); border:5px solid black"">","","","","","","","",""
"","2645.5449999775738","sequential-stimulus-presentation-old","132","514294","0.0-29.0-1.3","SS1619740197972","trial","","40","500","3145.5449999775738","images/stimuli/spore_stims/simple_03_A_b.gif","images/stimuli/spore_stims/simple_15_A_a.gif","forced_long","","10","simple_dissimilar","images/stimuli/spore_stims/simple_03_A_b.gif","","","","",""
"","null","html-keyboard-response","133","515359","0.0-29.0-0.4","SS1619740197972","","","null","","","","","","<p><img src= images/blank.png width =""600"" height = ""600"" style=""position:fixed;top:50%; left:50%; transform: translate(-50%, -50%); border:5px solid black"">","","","","","","","",""
"","130.19999978132546","sequential-stimulus-presentation-old","134","515997","0.0-29.0-1.4","SS1619740197972","trial","","40","500","630.1999997813255","images/stimuli/spore_stims/simple_03_A_b.gif","images/stimuli/spore_stims/simple_15_A_a.gif","forced_long","","10","simple_dissimilar","images/stimuli/spore_stims/simple_03_A_b.gif","","","","",""
"","3011.299999896437","survey-multi-choice","135","519014","0.0-30.0","SS1619740197972","math_question","","","","","","","","","","","","{""Q0"":""6""}","[0]","6","",""
"","null","html-keyboard-response","136","519839","0.0-31.0-0.0","SS1619740197972","","","null","","","","","","<p><img src= images/blank.png width =""600"" height = ""600"" style=""position:fixed;top:50%; left:50%; transform: translate(-50%, -50%); border:5px solid black"">","","","","","","","",""
"","986.3599999807775","sequential-stimulus-presentation-old","137","521333","0.0-31.0-1.0","SS1619740197972","trial","","40","500","1486.3599999807775","images/stimuli/spore_stims/simple_17_A_a.gif","images/stimuli/spore_stims/simple_05_A_b.gif","forced_short","","11","simple_dissimilar","images/stimuli/spore_stims/simple_05_A_b.gif","","","","",""
"","null","html-keyboard-response","138","522568","0.0-31.0-0.1","SS1619740197972","","","null","","","","","","<p><img src= images/blank.png width =""600"" height = ""600"" style=""position:fixed;top:50%; left:50%; transform: translate(-50%, -50%); border:5px solid black"">","","","","","","","",""
"","887.3900000471622","sequential-stimulus-presentation-old","139","523965","0.0-31.0-1.1","SS1619740197972","trial","","40","500","1387.3900000471622","images/stimuli/spore_stims/simple_17_A_a.gif","images/stimuli/spore_stims/simple_05_A_b.gif","forced_short","","11","simple_dissimilar","images/stimuli/spore_stims/simple_17_A_a.gif","","","","",""
"","null","html-keyboard-response","140","525197","0.0-31.0-0.2","SS1619740197972","","","null","","","","","","<p><img src= images/blank.png width =""600"" height = ""600"" style=""position:fixed;top:50%; left:50%; transform: translate(-50%, -50%); border:5px solid black"">","","","","","","","",""
"","3026.0049998760223","sequential-stimulus-presentation-old","141","528732","0.0-31.0-1.2","SS1619740197972","trial","","40","500","3526.0049998760223","images/stimuli/spore_stims/simple_17_A_a.gif","images/stimuli/spore_stims/simple_05_A_b.gif","forced_short","","11","simple_dissimilar","images/stimuli/spore_stims/simple_05_A_b.gif","","","","",""
"","null","html-keyboard-response","142","529604","0.0-31.0-0.3","SS1619740197972","","","null","","","","","","<p><img src= images/blank.png width =""600"" height = ""600"" style=""position:fixed;top:50%; left:50%; transform: translate(-50%, -50%); border:5px solid black"">","","","","","","","",""
"","339.4000001717359","sequential-stimulus-presentation-old","143","530453","0.0-31.0-1.3","SS1619740197972","trial","","40","500","839.4000001717359","images/stimuli/spore_stims/simple_17_A_a.gif","images/stimuli/spore_stims/simple_05_A_b.gif","forced_short","","11","simple_dissimilar","images/stimuli/spore_stims/simple_05_A_b.gif","","","","",""
"","null","html-keyboard-response","144","531624","0.0-31.0-0.4","SS1619740197972","","","null","","","","","","<p><img src= images/blank.png width =""600"" height = ""600"" style=""position:fixed;top:50%; left:50%; transform: translate(-50%, -50%); border:5px solid black"">","","","","","","","",""
"","184.98499994166195","sequential-stimulus-presentation-old","145","532317","0.0-31.0-1.4","SS1619740197972","trial","","40","500","684.984999941662","images/stimuli/spore_stims/simple_17_A_a.gif","images/stimuli/spore_stims/simple_05_A_b.gif","forced_short","","11","simple_dissimilar","images/stimuli/spore_stims/simple_17_A_a.gif","","","","",""
"[{""page_index"":0,""viewing_time"":6209.595000138506}]","6210.064999992028","instructions","146","538531","0.0-32.0","SS1619740197972","instructions","","","","","","","","","","","","","","","",""
"","8302.459999918938","survey-likert","147","546879","0.0-33.0","SS1619740197972","similarity_question","","","","","","","","","","","","{""Q0"":1}","[0]","","images/stimuli/spore_stims/complex_08_A_b.gif","images/stimuli/spore_stims/complex_18_A_a.gif"
"","4958.950000116602","survey-likert","148","551848","0.0-34.0","SS1619740197972","similarity_question","","","","","","","","","","","","{""Q0"":1}","[0]","","images/stimuli/spore_stims/complex_12_A_a.gif","images/stimuli/spore_stims/complex_11_A_b.gif"
"","6181.695000035688","survey-likert","149","558039","0.0-35.0","SS1619740197972","similarity_question","","","","","","","","","","","","{""Q0"":2}","[0]","","images/stimuli/spore_stims/simple_19_A_a.gif","images/stimuli/spore_stims/simple_06_A_b.gif"
"","5734.434999991208","survey-likert","150","563783","0.0-36.0","SS1619740197972","similarity_question","","","","","","","","","","","","{""Q0"":4}","[0]","","images/stimuli/spore_stims/simple_15_A_a.gif","images/stimuli/spore_stims/simple_03_A_b.gif"
"","3988.954999949783","survey-likert","151","567781","0.0-37.0","SS1619740197972","similarity_question","","","","","","","","","","","","{""Q0"":1}","[0]","","images/stimuli/spore_stims/complex_14_A_a.gif","images/stimuli/spore_stims/complex_02_A_b.gif"
"","7682.999999960884","survey-likert","152","575600","0.0-38.0","SS1619740197972","similarity_question","","","","","","","","","","","","{""Q0"":4}","[0]","","images/stimuli/spore_stims/simple_02_A_a.gif","images/stimuli/spore_stims/simple_09_A_b.gif"
"","4431.379999965429","survey-likert","153","580041","0.0-39.0","SS1619740197972","similarity_question","","","","","","","","","","","","{""Q0"":0}","[0]","","images/stimuli/spore_stims/complex_08_A_a.gif","images/stimuli/spore_stims/complex_05_A_b.gif"
"","5087.315000128001","survey-likert","154","585137","0.0-40.0","SS1619740197972","similarity_question","","","","","","","","","","","","{""Q0"":0}","[0]","","images/stimuli/spore_stims/complex_20_A_a.gif","images/stimuli/spore_stims/complex_19_A_b.gif"
"","2719.245000043884","survey-likert","155","587866","0.0-41.0","SS1619740197972","similarity_question","","","","","","","","","","","","{""Q0"":2}","[0]","","images/stimuli/spore_stims/simple_05_A_b.gif","images/stimuli/spore_stims/simple_17_A_a.gif"
"","3749.034999869764","survey-likert","156","591625","0.0-42.0","SS1619740197972","similarity_question","","","","","","","","","","","","{""Q0"":4}","[0]","","images/stimuli/spore_stims/simple_14_A_a.gif","images/stimuli/spore_stims/simple_17_A_b.gif"
"","2948.7699999008328","survey-likert","157","594584","0.0-43.0","SS1619740197972","similarity_question","","","","","","","","","","","","{""Q0"":4}","[0]","","images/stimuli/spore_stims/simple_01_A_b.gif","images/stimuli/spore_stims/simple_13_A_a.gif"
"","6864.234999986365","survey-likert","158","601459","0.0-44.0","SS1619740197972","similarity_question","","","","","","","","","","","","{""Q0"":1}","[0]","","images/stimuli/spore_stims/complex_16_A_b.gif","images/stimuli/spore_stims/complex_06_A_a.gif"
"[{""page_index"":0,""viewing_time"":5434.919999912381}]","5435.414999956265","instructions","159","606902","0.0-45.0","SS1619740197972","instructions","","","","","","","","","","","","","","","",""
"","6505.699999863282","survey-likert","160","613415","0.0-46.0","SS1619740197972","","","","","","","","","images/stimuli/spore_stims/complex_11_A_b.gif","","","","{""Q0"":5}","[0]","","",""
"","2777.1499999798834","survey-likert","161","616200","0.0-47.0","SS1619740197972","","","","","","","","","images/stimuli/spore_stims/complex_05_A_b.gif","","","","{""Q0"":5}","[0]","","",""
"","5249.185000080615","survey-likert","162","621457","0.0-48.0","SS1619740197972","","","","","","","","","images/stimuli/spore_stims/complex_14_A_a.gif","","","","{""Q0"":6}","[0]","","",""
"","3590.085000032559","survey-likert","163","625057","0.0-49.0","SS1619740197972","","","","","","","","","images/stimuli/spore_stims/simple_02_A_a.gif","","","","{""Q0"":0}","[0]","","",""
"","2830.589999910444","survey-likert","164","627898","0.0-50.0","SS1619740197972","","","","","","","","","images/stimuli/spore_stims/simple_15_A_a.gif","","","","{""Q0"":0}","[0]","","",""
"","1798.5350000672042","survey-likert","165","629706","0.0-51.0","SS1619740197972","","","","","","","","","images/stimuli/spore_stims/simple_13_A_a.gif","","","","{""Q0"":0}","[0]","","",""
"","3509.48500004597","survey-likert","166","633225","0.0-52.0","SS1619740197972","","","","","","","","","images/stimuli/spore_stims/complex_19_A_b.gif","","","","{""Q0"":5}","[0]","","",""
"","3213.6699999682605","survey-likert","167","636453","0.0-53.0","SS1619740197972","","","","","","","","","images/stimuli/spore_stims/simple_17_A_b.gif","","","","{""Q0"":1}","[0]","","",""
"","3969.2849998828024","survey-likert","168","640432","0.0-54.0","SS1619740197972","","","","","","","","","images/stimuli/spore_stims/complex_06_A_a.gif","","","","{""Q0"":6}","[0]","","",""
"","3485.439999960363","survey-likert","169","643927","0.0-55.0","SS1619740197972","","","","","","","","","images/stimuli/spore_stims/complex_08_A_b.gif","","","","{""Q0"":5}","[0]","","",""
"","6587.104999925941","survey-likert","170","650527","0.0-56.0","SS1619740197972","","","","","","","","","images/stimuli/spore_stims/simple_05_A_b.gif","","","","{""Q0"":1}","[0]","","",""
"","1735.0650001317263","survey-likert","171","652272","0.0-57.0","SS1619740197972","","","","","","","","","images/stimuli/spore_stims/simple_06_A_b.gif","","","","{""Q0"":1}","[0]","","",""
"[{""page_index"":0,""viewing_time"":2910.785000072792}]","2911.294999998063","instructions","172","655190","0.0-58.0","SS1619740197972","instructions","","","","","","","","","","","","","","","",""
"","2943.63999995403","demog-age","173","658435","0.0-59.0","SS1619740197972","","","","","","","","","","","","","{""age"":""26""}","","","",""
"","2946.490000002086","demog-ethnic-US","174","661634","0.0-60.0","SS1619740197972","","","","","","","","","","","","","{""ethnicity"":[""Hispanic or Latino""]}","[0]","","",""
"","5811.170000117272","demog-gender-and-education","175","667529","0.0-61.0","SS1619740197972","","","","","","","","","","","","","{""gender"":""Female"",""education"":""Bachelor's Degree""}","[0,1]","","",""
"","13541.759999934584","survey-text","176","681116","0.0-62.0","SS1619740197972","feedback","","","","","","","","","","","","{""Q0"":""everything fine :)""}","","","",""
"[{""page_index"":0,""viewing_time"":2024.7899999376386}]","2025.2449999097735","instructions","177","683148","0.0-63.0","SS1619740197972","instructions","","","","","","","","","","","","","","","",""
