"view_history","rt","trial_type","trial_index","time_elapsed","internal_node_id","subject","stimulus_type","trial_stimulus","key_press","minimum_viewing_duration","trial_looking_time","block_deviant","block_background","exposure_type","stimulus","block_number","block_type","stimulus_displayed","responses","question_order","math_correct_answer","stimulus_left","stimulus_right"
"[{""page_index"":0,""viewing_time"":15175.290000042878}]","15178.264999995008","instructions","0","15181","0.0-0.0","SS1619739682803","","","","","","","","","","","","","","","","",""
"[{""page_index"":0,""viewing_time"":19468.310000025667},{""page_index"":1,""viewing_time"":7506.120000034571}]","26975.255000055768","instructions","1","44176","0.0-1.0","SS1619739682803","instructions","","","","","","","","","","","","","","","",""
"","10206.854999996722","sequential-stimulus-presentation-old","2","54893","0.0-2.0","SS1619739682803","","","40","500","10706.854999996722","null","null","self_paced","","","","","","","","",""
"","11170.174999977462","sequential-stimulus-presentation-old","3","66568","0.0-3.0","SS1619739682803","","","40","500","11670.174999977462","null","null","self_paced","","","","","","","","",""
"[{""page_index"":0,""viewing_time"":21719.935000059195}]","21721.040000091307","instructions","4","88293","0.0-4.0","SS1619739682803","instructions","","","","","","","","","","","","","","","",""
"","5627.560000051744","sequential-stimulus-presentation-old","5","108933","0.0-5.0","SS1619739682803","","","40","500","6127.560000051744","null","null","forced_long","","","","","","","","",""
"","7059.315000078641","sequential-stimulus-presentation-old","6","116495","0.0-6.0","SS1619739682803","","","40","500","7559.315000078641","null","null","forced_long","","","","","","","","",""
"[{""page_index"":0,""viewing_time"":7003.374999971129}]","7004.210000042804","instructions","7","123507","0.0-7.0","SS1619739682803","instructions","","","","","","","","","","","","","","","",""
"[{""page_index"":0,""viewing_time"":12240.78999995254},{""page_index"":1,""viewing_time"":15027.80999999959},{""page_index"":2,""viewing_time"":6616.78500007838},{""page_index"":3,""viewing_time"":2368.159999954514},{""page_index"":4,""viewing_time"":4135.415000026114}]","40389.770000008866","instructions","8","163899","0.0-8.0","SS1619739682803","instructions","","","","","","","","","","","","","","","",""
"","null","html-keyboard-response","9","165092","0.0-9.0-0.0","SS1619739682803","","","null","","","","","","<p><img src= images/blank.png width =""600"" height = ""600"" style=""position:fixed;top:50%; left:50%; transform: translate(-50%, -50%); border:5px solid black"">","","","","","","","",""
"","69780.38000001106","sequential-stimulus-presentation-old","10","235388","0.0-9.0-1.0","SS1619739682803","trial","","40","500","70280.38000001106","images/stimuli/spore_stims/complex_01_A_a.gif","images/stimuli/spore_stims/complex_07_A_b.gif","self_paced","","0","complex_dissimilar","images/stimuli/spore_stims/complex_07_A_b.gif","","","","",""
"","null","html-keyboard-response","11","236202","0.0-9.0-0.1","SS1619739682803","","","null","","","","","","<p><img src= images/blank.png width =""600"" height = ""600"" style=""position:fixed;top:50%; left:50%; transform: translate(-50%, -50%); border:5px solid black"">","","","","","","","",""
"","29927.6049999753","sequential-stimulus-presentation-old","12","266640","0.0-9.0-1.1","SS1619739682803","trial","","40","500","30427.6049999753","images/stimuli/spore_stims/complex_01_A_a.gif","images/stimuli/spore_stims/complex_07_A_b.gif","self_paced","","0","complex_dissimilar","images/stimuli/spore_stims/complex_01_A_a.gif","","","","",""
"","null","html-keyboard-response","13","267637","0.0-9.0-0.2","SS1619739682803","","","null","","","","","","<p><img src= images/blank.png width =""600"" height = ""600"" style=""position:fixed;top:50%; left:50%; transform: translate(-50%, -50%); border:5px solid black"">","","","","","","","",""
"","7200.59499994386","sequential-stimulus-presentation-old","14","275355","0.0-9.0-1.2","SS1619739682803","trial","","40","500","7700.59499994386","images/stimuli/spore_stims/complex_01_A_a.gif","images/stimuli/spore_stims/complex_07_A_b.gif","self_paced","","0","complex_dissimilar","images/stimuli/spore_stims/complex_01_A_a.gif","","","","",""
"","null","html-keyboard-response","15","276348","0.0-9.0-0.3","SS1619739682803","","","null","","","","","","<p><img src= images/blank.png width =""600"" height = ""600"" style=""position:fixed;top:50%; left:50%; transform: translate(-50%, -50%); border:5px solid black"">","","","","","","","",""
"","489.850000012666","sequential-stimulus-presentation-old","16","277352","0.0-9.0-1.3","SS1619739682803","trial","","40","500","989.850000012666","images/stimuli/spore_stims/complex_01_A_a.gif","images/stimuli/spore_stims/complex_07_A_b.gif","self_paced","","0","complex_dissimilar","images/stimuli/spore_stims/complex_07_A_b.gif","","","","",""
"","null","html-keyboard-response","17","278330","0.0-9.0-0.4","SS1619739682803","","","null","","","","","","<p><img src= images/blank.png width =""600"" height = ""600"" style=""position:fixed;top:50%; left:50%; transform: translate(-50%, -50%); border:5px solid black"">","","","","","","","",""
"","4583.8849999709055","sequential-stimulus-presentation-old","18","283421","0.0-9.0-1.4","SS1619739682803","trial","","40","500","5083.8849999709055","images/stimuli/spore_stims/complex_01_A_a.gif","images/stimuli/spore_stims/complex_07_A_b.gif","self_paced","","0","complex_dissimilar","images/stimuli/spore_stims/complex_07_A_b.gif","","","","",""
"","5763.365000020713","survey-multi-choice","19","289201","0.0-10.0","SS1619739682803","math_question","","","","","","","","","","","","{""Q0"":""3""}","[0]","3","",""
"","null","html-keyboard-response","20","290091","0.0-11.0-0.0","SS1619739682803","","","null","","","","","","<p><img src= images/blank.png width =""600"" height = ""600"" style=""position:fixed;top:50%; left:50%; transform: translate(-50%, -50%); border:5px solid black"">","","","","","","","",""
"","2992.7899999311194","sequential-stimulus-presentation-old","21","293594","0.0-11.0-1.0","SS1619739682803","trial","","40","500","3492.7899999311194","images/stimuli/spore_stims/simple_07_A_b.gif","images/stimuli/spore_stims/simple_11_A_a.gif","forced_short","","1","simple_dissimilar","images/stimuli/spore_stims/simple_11_A_a.gif","","","","",""
"","null","html-keyboard-response","22","294763","0.0-11.0-0.1","SS1619739682803","","","null","","","","","","<p><img src= images/blank.png width =""600"" height = ""600"" style=""position:fixed;top:50%; left:50%; transform: translate(-50%, -50%); border:5px solid black"">","","","","","","","",""
"","20899.014999973588","sequential-stimulus-presentation-old","23","316172","0.0-11.0-1.1","SS1619739682803","trial","","40","500","21399.014999973588","images/stimuli/spore_stims/simple_07_A_b.gif","images/stimuli/spore_stims/simple_11_A_a.gif","forced_short","","1","simple_dissimilar","images/stimuli/spore_stims/simple_11_A_a.gif","","","","",""
"","null","html-keyboard-response","24","317328","0.0-11.0-0.2","SS1619739682803","","","null","","","","","","<p><img src= images/blank.png width =""600"" height = ""600"" style=""position:fixed;top:50%; left:50%; transform: translate(-50%, -50%); border:5px solid black"">","","","","","","","",""
"","4120.710000046529","sequential-stimulus-presentation-old","25","321965","0.0-11.0-1.2","SS1619739682803","trial","","40","500","4620.710000046529","images/stimuli/spore_stims/simple_07_A_b.gif","images/stimuli/spore_stims/simple_11_A_a.gif","forced_short","","1","simple_dissimilar","images/stimuli/spore_stims/simple_11_A_a.gif","","","","",""
"","null","html-keyboard-response","26","322846","0.0-11.0-0.3","SS1619739682803","","","null","","","","","","<p><img src= images/blank.png width =""600"" height = ""600"" style=""position:fixed;top:50%; left:50%; transform: translate(-50%, -50%); border:5px solid black"">","","","","","","","",""
"","7840.525000006892","sequential-stimulus-presentation-old","27","331192","0.0-11.0-1.3","SS1619739682803","trial","","40","500","8340.525000006892","images/stimuli/spore_stims/simple_07_A_b.gif","images/stimuli/spore_stims/simple_11_A_a.gif","forced_short","","1","simple_dissimilar","images/stimuli/spore_stims/simple_11_A_a.gif","","","","",""
"","null","html-keyboard-response","28","332167","0.0-11.0-0.4","SS1619739682803","","","null","","","","","","<p><img src= images/blank.png width =""600"" height = ""600"" style=""position:fixed;top:50%; left:50%; transform: translate(-50%, -50%); border:5px solid black"">","","","","","","","",""
"","4172.420000075363","sequential-stimulus-presentation-old","29","336856","0.0-11.0-1.4","SS1619739682803","trial","","40","500","4672.420000075363","images/stimuli/spore_stims/simple_07_A_b.gif","images/stimuli/spore_stims/simple_11_A_a.gif","forced_short","","1","simple_dissimilar","images/stimuli/spore_stims/simple_07_A_b.gif","","","","",""
"","null","html-keyboard-response","30","337913","0.0-11.0-0.5","SS1619739682803","","","null","","","","","","<p><img src= images/blank.png width =""600"" height = ""600"" style=""position:fixed;top:50%; left:50%; transform: translate(-50%, -50%); border:5px solid black"">","","","","","","","",""
"","5945.040000020526","sequential-stimulus-presentation-old","31","344376","0.0-11.0-1.5","SS1619739682803","trial","","40","500","6445.040000020526","images/stimuli/spore_stims/simple_07_A_b.gif","images/stimuli/spore_stims/simple_11_A_a.gif","forced_short","","1","simple_dissimilar","images/stimuli/spore_stims/simple_07_A_b.gif","","","","",""
"","3905.9800000395626","survey-multi-choice","32","348290","0.0-12.0","SS1619739682803","math_question","","","","","","","","","","","","{""Q0"":""8""}","[0]","8","",""
"","null","html-keyboard-response","33","350379","0.0-13.0-0.0","SS1619739682803","","","null","","","","","","<p><img src= images/blank.png width =""600"" height = ""600"" style=""position:fixed;top:50%; left:50%; transform: translate(-50%, -50%); border:5px solid black"">","","","","","","","",""
"","20188.72500001453","sequential-stimulus-presentation-old","34","371575","0.0-13.0-1.0","SS1619739682803","trial","","40","500","20688.72500001453","images/stimuli/spore_stims/simple_03_A_b.gif","images/stimuli/spore_stims/simple_19_A_a.gif","self_paced","","2","simple_dissimilar","images/stimuli/spore_stims/simple_19_A_a.gif","","","","",""
"","null","html-keyboard-response","35","372712","0.0-13.0-0.1","SS1619739682803","","","null","","","","","","<p><img src= images/blank.png width =""600"" height = ""600"" style=""position:fixed;top:50%; left:50%; transform: translate(-50%, -50%); border:5px solid black"">","","","","","","","",""
"","8058.71000001207","sequential-stimulus-presentation-old","36","381283","0.0-13.0-1.1","SS1619739682803","trial","","40","500","8558.71000001207","images/stimuli/spore_stims/simple_03_A_b.gif","images/stimuli/spore_stims/simple_19_A_a.gif","self_paced","","2","simple_dissimilar","images/stimuli/spore_stims/simple_19_A_a.gif","","","","",""
"","null","html-keyboard-response","37","382198","0.0-13.0-0.2","SS1619739682803","","","null","","","","","","<p><img src= images/blank.png width =""600"" height = ""600"" style=""position:fixed;top:50%; left:50%; transform: translate(-50%, -50%); border:5px solid black"">","","","","","","","",""
"","5243.3400000445545","sequential-stimulus-presentation-old","38","387952","0.0-13.0-1.2","SS1619739682803","trial","","40","500","5743.3400000445545","images/stimuli/spore_stims/simple_03_A_b.gif","images/stimuli/spore_stims/simple_19_A_a.gif","self_paced","","2","simple_dissimilar","images/stimuli/spore_stims/simple_03_A_b.gif","","","","",""
"","null","html-keyboard-response","39","388982","0.0-13.0-0.3","SS1619739682803","","","null","","","","","","<p><img src= images/blank.png width =""600"" height = ""600"" style=""position:fixed;top:50%; left:50%; transform: translate(-50%, -50%); border:5px solid black"">","","","","","","","",""
"","5191.265000030398","sequential-stimulus-presentation-old","40","394690","0.0-13.0-1.3","SS1619739682803","trial","","40","500","5691.265000030398","images/stimuli/spore_stims/simple_03_A_b.gif","images/stimuli/spore_stims/simple_19_A_a.gif","self_paced","","2","simple_dissimilar","images/stimuli/spore_stims/simple_03_A_b.gif","","","","",""
"","null","html-keyboard-response","41","395862","0.0-13.0-0.4","SS1619739682803","","","null","","","","","","<p><img src= images/blank.png width =""600"" height = ""600"" style=""position:fixed;top:50%; left:50%; transform: translate(-50%, -50%); border:5px solid black"">","","","","","","","",""
"","4329.8049999866635","sequential-stimulus-presentation-old","42","400705","0.0-13.0-1.4","SS1619739682803","trial","","40","500","4829.8049999866635","images/stimuli/spore_stims/simple_03_A_b.gif","images/stimuli/spore_stims/simple_19_A_a.gif","self_paced","","2","simple_dissimilar","images/stimuli/spore_stims/simple_19_A_a.gif","","","","",""
"","3510.3499999968335","survey-multi-choice","43","404223","0.0-14.0","SS1619739682803","math_question","","","","","","","","","","","","{""Q0"":""7""}","[0]","7","",""
"","null","html-keyboard-response","44","405285","0.0-15.0-0.0","SS1619739682803","","","null","","","","","","<p><img src= images/blank.png width =""600"" height = ""600"" style=""position:fixed;top:50%; left:50%; transform: translate(-50%, -50%); border:5px solid black"">","","","","","","","",""
"","179.2850000783801","sequential-stimulus-presentation-old","45","420477","0.0-15.0-1.0","SS1619739682803","trial","","40","500","679.2850000783801","images/stimuli/spore_stims/simple_03_A_a.gif","images/stimuli/spore_stims/simple_04_A_b.gif","forced_long","","3","simple_dissimilar","images/stimuli/spore_stims/simple_04_A_b.gif","","","","",""
"","null","html-keyboard-response","46","421640","0.0-15.0-0.1","SS1619739682803","","","null","","","","","","<p><img src= images/blank.png width =""600"" height = ""600"" style=""position:fixed;top:50%; left:50%; transform: translate(-50%, -50%); border:5px solid black"">","","","","","","","",""
"","7027.424999978393","sequential-stimulus-presentation-old","47","429179","0.0-15.0-1.1","SS1619739682803","trial","","40","500","7527.424999978393","images/stimuli/spore_stims/simple_03_A_a.gif","images/stimuli/spore_stims/simple_04_A_b.gif","forced_long","","3","simple_dissimilar","images/stimuli/spore_stims/simple_04_A_b.gif","","","","",""
"","null","html-keyboard-response","48","429993","0.0-15.0-0.2","SS1619739682803","","","null","","","","","","<p><img src= images/blank.png width =""600"" height = ""600"" style=""position:fixed;top:50%; left:50%; transform: translate(-50%, -50%); border:5px solid black"">","","","","","","","",""
"","3581.179999979213","sequential-stimulus-presentation-old","49","434084","0.0-15.0-1.2","SS1619739682803","trial","","40","500","4081.179999979213","images/stimuli/spore_stims/simple_03_A_a.gif","images/stimuli/spore_stims/simple_04_A_b.gif","forced_long","","3","simple_dissimilar","images/stimuli/spore_stims/simple_04_A_b.gif","","","","",""
"","null","html-keyboard-response","50","435166","0.0-15.0-0.3","SS1619739682803","","","null","","","","","","<p><img src= images/blank.png width =""600"" height = ""600"" style=""position:fixed;top:50%; left:50%; transform: translate(-50%, -50%); border:5px solid black"">","","","","","","","",""
"","4766.025000018999","sequential-stimulus-presentation-old","51","440443","0.0-15.0-1.3","SS1619739682803","trial","","40","500","5266.025000018999","images/stimuli/spore_stims/simple_03_A_a.gif","images/stimuli/spore_stims/simple_04_A_b.gif","forced_long","","3","simple_dissimilar","images/stimuli/spore_stims/simple_04_A_b.gif","","","","",""
"","null","html-keyboard-response","52","441313","0.0-15.0-0.4","SS1619739682803","","","null","","","","","","<p><img src= images/blank.png width =""600"" height = ""600"" style=""position:fixed;top:50%; left:50%; transform: translate(-50%, -50%); border:5px solid black"">","","","","","","","",""
"","2911.7199999745935","sequential-stimulus-presentation-old","53","444736","0.0-15.0-1.4","SS1619739682803","trial","","40","500","3411.7199999745935","images/stimuli/spore_stims/simple_03_A_a.gif","images/stimuli/spore_stims/simple_04_A_b.gif","forced_long","","3","simple_dissimilar","images/stimuli/spore_stims/simple_04_A_b.gif","","","","",""
"","null","html-keyboard-response","54","445811","0.0-15.0-0.5","SS1619739682803","","","null","","","","","","<p><img src= images/blank.png width =""600"" height = ""600"" style=""position:fixed;top:50%; left:50%; transform: translate(-50%, -50%); border:5px solid black"">","","","","","","","",""
"","6605.544999940321","sequential-stimulus-presentation-old","55","452929","0.0-15.0-1.5","SS1619739682803","trial","","40","500","7105.544999940321","images/stimuli/spore_stims/simple_03_A_a.gif","images/stimuli/spore_stims/simple_04_A_b.gif","forced_long","","3","simple_dissimilar","images/stimuli/spore_stims/simple_03_A_a.gif","","","","",""
"","4247.424999950454","survey-multi-choice","56","457183","0.0-16.0","SS1619739682803","math_question","","","","","","","","","","","","{""Q0"":""12""}","[0]","12","",""
"","null","html-keyboard-response","57","458445","0.0-17.0-0.0","SS1619739682803","","","null","","","","","","<p><img src= images/blank.png width =""600"" height = ""600"" style=""position:fixed;top:50%; left:50%; transform: translate(-50%, -50%); border:5px solid black"">","","","","","","","",""
"","16627.58000008762","sequential-stimulus-presentation-old","58","475587","0.0-17.0-1.0","SS1619739682803","trial","","40","500","17127.58000008762","images/stimuli/spore_stims/simple_18_A_a.gif","images/stimuli/spore_stims/simple_08_A_b.gif","forced_short","","4","simple_dissimilar","images/stimuli/spore_stims/simple_08_A_b.gif","","","","",""
"","null","html-keyboard-response","59","476426","0.0-17.0-0.1","SS1619739682803","","","null","","","","","","<p><img src= images/blank.png width =""600"" height = ""600"" style=""position:fixed;top:50%; left:50%; transform: translate(-50%, -50%); border:5px solid black"">","","","","","","","",""
"","8993.325000046752","sequential-stimulus-presentation-old","60","485933","0.0-17.0-1.1","SS1619739682803","trial","","40","500","9493.325000046752","images/stimuli/spore_stims/simple_18_A_a.gif","images/stimuli/spore_stims/simple_08_A_b.gif","forced_short","","4","simple_dissimilar","images/stimuli/spore_stims/simple_08_A_b.gif","","","","",""
"","null","html-keyboard-response","61","487060","0.0-17.0-0.2","SS1619739682803","","","null","","","","","","<p><img src= images/blank.png width =""600"" height = ""600"" style=""position:fixed;top:50%; left:50%; transform: translate(-50%, -50%); border:5px solid black"">","","","","","","","",""
"","6197.734999936074","sequential-stimulus-presentation-old","62","493774","0.0-17.0-1.2","SS1619739682803","trial","","40","500","6697.734999936074","images/stimuli/spore_stims/simple_18_A_a.gif","images/stimuli/spore_stims/simple_08_A_b.gif","forced_short","","4","simple_dissimilar","images/stimuli/spore_stims/simple_08_A_b.gif","","","","",""
"","null","html-keyboard-response","63","495059","0.0-17.0-0.3","SS1619739682803","","","null","","","","","","<p><img src= images/blank.png width =""600"" height = ""600"" style=""position:fixed;top:50%; left:50%; transform: translate(-50%, -50%); border:5px solid black"">","","","","","","","",""
"","2149.7950000921264","sequential-stimulus-presentation-old","64","497726","0.0-17.0-1.3","SS1619739682803","trial","","40","500","2649.7950000921264","images/stimuli/spore_stims/simple_18_A_a.gif","images/stimuli/spore_stims/simple_08_A_b.gif","forced_short","","4","simple_dissimilar","images/stimuli/spore_stims/simple_08_A_b.gif","","","","",""
"","null","html-keyboard-response","65","498874","0.0-17.0-0.4","SS1619739682803","","","null","","","","","","<p><img src= images/blank.png width =""600"" height = ""600"" style=""position:fixed;top:50%; left:50%; transform: translate(-50%, -50%); border:5px solid black"">","","","","","","","",""
"","14561.579999979585","sequential-stimulus-presentation-old","66","513951","0.0-17.0-1.4","SS1619739682803","trial","","40","500","15061.579999979585","images/stimuli/spore_stims/simple_18_A_a.gif","images/stimuli/spore_stims/simple_08_A_b.gif","forced_short","","4","simple_dissimilar","images/stimuli/spore_stims/simple_08_A_b.gif","","","","",""
"","null","html-keyboard-response","67","515241","0.0-17.0-0.5","SS1619739682803","","","null","","","","","","<p><img src= images/blank.png width =""600"" height = ""600"" style=""position:fixed;top:50%; left:50%; transform: translate(-50%, -50%); border:5px solid black"">","","","","","","","",""
"","1941.1950000794604","sequential-stimulus-presentation-old","68","517700","0.0-17.0-1.5","SS1619739682803","trial","","40","500","2441.1950000794604","images/stimuli/spore_stims/simple_18_A_a.gif","images/stimuli/spore_stims/simple_08_A_b.gif","forced_short","","4","simple_dissimilar","images/stimuli/spore_stims/simple_08_A_b.gif","","","","",""
"","3876.1550000635907","survey-multi-choice","69","521586","0.0-18.0","SS1619739682803","math_question","","","","","","","","","","","","{""Q0"":""13""}","[0]","13","",""
"","null","html-keyboard-response","70","522534","0.0-19.0-0.0","SS1619739682803","","","null","","","","","","<p><img src= images/blank.png width =""600"" height = ""600"" style=""position:fixed;top:50%; left:50%; transform: translate(-50%, -50%); border:5px solid black"">","","","","","","","",""
"","3272.2399999620393","sequential-stimulus-presentation-old","71","540830","0.0-19.0-1.0","SS1619739682803","trial","","40","500","3772.2399999620393","images/stimuli/spore_stims/simple_18_A_b.gif","images/stimuli/spore_stims/simple_09_A_a.gif","forced_long","","5","simple_dissimilar","images/stimuli/spore_stims/simple_09_A_a.gif","","","","",""
"","null","html-keyboard-response","72","542056","0.0-19.0-0.1","SS1619739682803","","","null","","","","","","<p><img src= images/blank.png width =""600"" height = ""600"" style=""position:fixed;top:50%; left:50%; transform: translate(-50%, -50%); border:5px solid black"">","","","","","","","",""
"","3300.994999939576","sequential-stimulus-presentation-old","73","545873","0.0-19.0-1.1","SS1619739682803","trial","","40","500","3800.994999939576","images/stimuli/spore_stims/simple_18_A_b.gif","images/stimuli/spore_stims/simple_09_A_a.gif","forced_long","","5","simple_dissimilar","images/stimuli/spore_stims/simple_09_A_a.gif","","","","",""
"","null","html-keyboard-response","74","547123","0.0-19.0-0.2","SS1619739682803","","","null","","","","","","<p><img src= images/blank.png width =""600"" height = ""600"" style=""position:fixed;top:50%; left:50%; transform: translate(-50%, -50%); border:5px solid black"">","","","","","","","",""
"","956.9299999857321","sequential-stimulus-presentation-old","75","548593","0.0-19.0-1.2","SS1619739682803","trial","","40","500","1456.9299999857321","images/stimuli/spore_stims/simple_18_A_b.gif","images/stimuli/spore_stims/simple_09_A_a.gif","forced_long","","5","simple_dissimilar","images/stimuli/spore_stims/simple_09_A_a.gif","","","","",""
"","null","html-keyboard-response","76","549668","0.0-19.0-0.3","SS1619739682803","","","null","","","","","","<p><img src= images/blank.png width =""600"" height = ""600"" style=""position:fixed;top:50%; left:50%; transform: translate(-50%, -50%); border:5px solid black"">","","","","","","","",""
"","736.0949999419972","sequential-stimulus-presentation-old","77","550920","0.0-19.0-1.3","SS1619739682803","trial","","40","500","1236.0949999419972","images/stimuli/spore_stims/simple_18_A_b.gif","images/stimuli/spore_stims/simple_09_A_a.gif","forced_long","","5","simple_dissimilar","images/stimuli/spore_stims/simple_09_A_a.gif","","","","",""
"","null","html-keyboard-response","78","551990","0.0-19.0-0.4","SS1619739682803","","","null","","","","","","<p><img src= images/blank.png width =""600"" height = ""600"" style=""position:fixed;top:50%; left:50%; transform: translate(-50%, -50%); border:5px solid black"">","","","","","","","",""
"","901.7899999162182","sequential-stimulus-presentation-old","79","553408","0.0-19.0-1.4","SS1619739682803","trial","","40","500","1401.7899999162182","images/stimuli/spore_stims/simple_18_A_b.gif","images/stimuli/spore_stims/simple_09_A_a.gif","forced_long","","5","simple_dissimilar","images/stimuli/spore_stims/simple_09_A_a.gif","","","","",""
"","null","html-keyboard-response","80","554607","0.0-19.0-0.5","SS1619739682803","","","null","","","","","","<p><img src= images/blank.png width =""600"" height = ""600"" style=""position:fixed;top:50%; left:50%; transform: translate(-50%, -50%); border:5px solid black"">","","","","","","","",""
"","5657.865000073798","sequential-stimulus-presentation-old","81","560777","0.0-19.0-1.5","SS1619739682803","trial","","40","500","6157.865000073798","images/stimuli/spore_stims/simple_18_A_b.gif","images/stimuli/spore_stims/simple_09_A_a.gif","forced_long","","5","simple_dissimilar","images/stimuli/spore_stims/simple_18_A_b.gif","","","","",""
"","3764.504999970086","survey-multi-choice","82","564546","0.0-20.0","SS1619739682803","math_question","","","","","","","","","","","","{""Q0"":""14""}","[0]","14","",""
"","null","html-keyboard-response","83","565736","0.0-21.0-0.0","SS1619739682803","","","null","","","","","","<p><img src= images/blank.png width =""600"" height = ""600"" style=""position:fixed;top:50%; left:50%; transform: translate(-50%, -50%); border:5px solid black"">","","","","","","","",""
"","2589.9650000501424","sequential-stimulus-presentation-old","84","568842","0.0-21.0-1.0","SS1619739682803","trial","","40","500","3089.9650000501424","images/stimuli/spore_stims/simple_05_A_a.gif","images/stimuli/spore_stims/simple_09_A_b.gif","self_paced","","6","simple_dissimilar","images/stimuli/spore_stims/simple_09_A_b.gif","","","","",""
"","null","html-keyboard-response","85","569781","0.0-21.0-0.1","SS1619739682803","","","null","","","","","","<p><img src= images/blank.png width =""600"" height = ""600"" style=""position:fixed;top:50%; left:50%; transform: translate(-50%, -50%); border:5px solid black"">","","","","","","","",""
"","1279.3250000104308","sequential-stimulus-presentation-old","86","571568","0.0-21.0-1.1","SS1619739682803","trial","","40","500","1779.3250000104308","images/stimuli/spore_stims/simple_05_A_a.gif","images/stimuli/spore_stims/simple_09_A_b.gif","self_paced","","6","simple_dissimilar","images/stimuli/spore_stims/simple_09_A_b.gif","","","","",""
"","null","html-keyboard-response","87","572787","0.0-21.0-0.2","SS1619739682803","","","null","","","","","","<p><img src= images/blank.png width =""600"" height = ""600"" style=""position:fixed;top:50%; left:50%; transform: translate(-50%, -50%); border:5px solid black"">","","","","","","","",""
"","1025.3399999346584","sequential-stimulus-presentation-old","88","574331","0.0-21.0-1.2","SS1619739682803","trial","","40","500","1525.3399999346584","images/stimuli/spore_stims/simple_05_A_a.gif","images/stimuli/spore_stims/simple_09_A_b.gif","self_paced","","6","simple_dissimilar","images/stimuli/spore_stims/simple_09_A_b.gif","","","","",""
"","null","html-keyboard-response","89","575422","0.0-21.0-0.3","SS1619739682803","","","null","","","","","","<p><img src= images/blank.png width =""600"" height = ""600"" style=""position:fixed;top:50%; left:50%; transform: translate(-50%, -50%); border:5px solid black"">","","","","","","","",""
"","1080.0599999492988","sequential-stimulus-presentation-old","90","577017","0.0-21.0-1.3","SS1619739682803","trial","","40","500","1580.0599999492988","images/stimuli/spore_stims/simple_05_A_a.gif","images/stimuli/spore_stims/simple_09_A_b.gif","self_paced","","6","simple_dissimilar","images/stimuli/spore_stims/simple_09_A_b.gif","","","","",""
"","null","html-keyboard-response","91","578039","0.0-21.0-0.4","SS1619739682803","","","null","","","","","","<p><img src= images/blank.png width =""600"" height = ""600"" style=""position:fixed;top:50%; left:50%; transform: translate(-50%, -50%); border:5px solid black"">","","","","","","","",""
"","3625.0050000380725","sequential-stimulus-presentation-old","92","582181","0.0-21.0-1.4","SS1619739682803","trial","","40","500","4125.0050000380725","images/stimuli/spore_stims/simple_05_A_a.gif","images/stimuli/spore_stims/simple_09_A_b.gif","self_paced","","6","simple_dissimilar","images/stimuli/spore_stims/simple_09_A_b.gif","","","","",""
"","null","html-keyboard-response","93","583472","0.0-21.0-0.5","SS1619739682803","","","null","","","","","","<p><img src= images/blank.png width =""600"" height = ""600"" style=""position:fixed;top:50%; left:50%; transform: translate(-50%, -50%); border:5px solid black"">","","","","","","","",""
"","324.0800000494346","sequential-stimulus-presentation-old","94","584310","0.0-21.0-1.5","SS1619739682803","trial","","40","500","824.0800000494346","images/stimuli/spore_stims/simple_05_A_a.gif","images/stimuli/spore_stims/simple_09_A_b.gif","self_paced","","6","simple_dissimilar","images/stimuli/spore_stims/simple_09_A_b.gif","","","","",""
"","3869.13500004448","survey-multi-choice","95","588190","0.0-22.0","SS1619739682803","math_question","","","","","","","","","","","","{""Q0"":""7""}","[0]","7","",""
"","null","html-keyboard-response","96","589135","0.0-23.0-0.0","SS1619739682803","","","null","","","","","","<p><img src= images/blank.png width =""600"" height = ""600"" style=""position:fixed;top:50%; left:50%; transform: translate(-50%, -50%); border:5px solid black"">","","","","","","","",""
"","6818.184999981895","sequential-stimulus-presentation-old","97","596466","0.0-23.0-1.0","SS1619739682803","trial","","40","500","7318.184999981895","images/stimuli/spore_stims/complex_15_A_b.gif","images/stimuli/spore_stims/complex_08_A_a.gif","self_paced","","7","complex_dissimilar","images/stimuli/spore_stims/complex_08_A_a.gif","","","","",""
"","null","html-keyboard-response","98","597762","0.0-23.0-0.1","SS1619739682803","","","null","","","","","","<p><img src= images/blank.png width =""600"" height = ""600"" style=""position:fixed;top:50%; left:50%; transform: translate(-50%, -50%); border:5px solid black"">","","","","","","","",""
"","6073.7349999835715","sequential-stimulus-presentation-old","99","604352","0.0-23.0-1.1","SS1619739682803","trial","","40","500","6573.7349999835715","images/stimuli/spore_stims/complex_15_A_b.gif","images/stimuli/spore_stims/complex_08_A_a.gif","self_paced","","7","complex_dissimilar","images/stimuli/spore_stims/complex_15_A_b.gif","","","","",""
"","null","html-keyboard-response","100","605335","0.0-23.0-0.2","SS1619739682803","","","null","","","","","","<p><img src= images/blank.png width =""600"" height = ""600"" style=""position:fixed;top:50%; left:50%; transform: translate(-50%, -50%); border:5px solid black"">","","","","","","","",""
"","661.5600000368431","sequential-stimulus-presentation-old","101","606509","0.0-23.0-1.2","SS1619739682803","trial","","40","500","1161.5600000368431","images/stimuli/spore_stims/complex_15_A_b.gif","images/stimuli/spore_stims/complex_08_A_a.gif","self_paced","","7","complex_dissimilar","images/stimuli/spore_stims/complex_15_A_b.gif","","","","",""
"","null","html-keyboard-response","102","607766","0.0-23.0-0.3","SS1619739682803","","","null","","","","","","<p><img src= images/blank.png width =""600"" height = ""600"" style=""position:fixed;top:50%; left:50%; transform: translate(-50%, -50%); border:5px solid black"">","","","","","","","",""
"","397.0299999928102","sequential-stimulus-presentation-old","103","608682","0.0-23.0-1.3","SS1619739682803","trial","","40","500","897.0299999928102","images/stimuli/spore_stims/complex_15_A_b.gif","images/stimuli/spore_stims/complex_08_A_a.gif","self_paced","","7","complex_dissimilar","images/stimuli/spore_stims/complex_08_A_a.gif","","","","",""
"","3656.665000016801","survey-multi-choice","104","612349","0.0-24.0","SS1619739682803","math_question","","","","","","","","","","","","{""Q0"":""10""}","[0]","10","",""
"","null","html-keyboard-response","105","613495","0.0-25.0-0.0","SS1619739682803","","","null","","","","","","<p><img src= images/blank.png width =""600"" height = ""600"" style=""position:fixed;top:50%; left:50%; transform: translate(-50%, -50%); border:5px solid black"">","","","","","","","",""
"","1138.509999960661","sequential-stimulus-presentation-old","106","629660","0.0-25.0-1.0","SS1619739682803","trial","","40","500","1638.509999960661","images/stimuli/spore_stims/complex_18_A_a.gif","images/stimuli/spore_stims/complex_13_A_b.gif","forced_long","","8","complex_dissimilar","images/stimuli/spore_stims/complex_13_A_b.gif","","","","",""
"","null","html-keyboard-response","107","630754","0.0-25.0-0.1","SS1619739682803","","","null","","","","","","<p><img src= images/blank.png width =""600"" height = ""600"" style=""position:fixed;top:50%; left:50%; transform: translate(-50%, -50%); border:5px solid black"">","","","","","","","",""
"","3424.615000025369","sequential-stimulus-presentation-old","108","634694","0.0-25.0-1.1","SS1619739682803","trial","","40","500","3924.615000025369","images/stimuli/spore_stims/complex_18_A_a.gif","images/stimuli/spore_stims/complex_13_A_b.gif","forced_long","","8","complex_dissimilar","images/stimuli/spore_stims/complex_13_A_b.gif","","","","",""
"","null","html-keyboard-response","109","635717","0.0-25.0-0.2","SS1619739682803","","","null","","","","","","<p><img src= images/blank.png width =""600"" height = ""600"" style=""position:fixed;top:50%; left:50%; transform: translate(-50%, -50%); border:5px solid black"">","","","","","","","",""
"","987.5000000465661","sequential-stimulus-presentation-old","110","637221","0.0-25.0-1.2","SS1619739682803","trial","","40","500","1487.5000000465661","images/stimuli/spore_stims/complex_18_A_a.gif","images/stimuli/spore_stims/complex_13_A_b.gif","forced_long","","8","complex_dissimilar","images/stimuli/spore_stims/complex_13_A_b.gif","","","","",""
"","null","html-keyboard-response","111","638532","0.0-25.0-0.3","SS1619739682803","","","null","","","","","","<p><img src= images/blank.png width =""600"" height = ""600"" style=""position:fixed;top:50%; left:50%; transform: translate(-50%, -50%); border:5px solid black"">","","","","","","","",""
"","11807.135000010021","sequential-stimulus-presentation-old","112","650855","0.0-25.0-1.3","SS1619739682803","trial","","40","500","12307.135000010021","images/stimuli/spore_stims/complex_18_A_a.gif","images/stimuli/spore_stims/complex_13_A_b.gif","forced_long","","8","complex_dissimilar","images/stimuli/spore_stims/complex_18_A_a.gif","","","","",""
"","null","html-keyboard-response","113","652120","0.0-25.0-0.4","SS1619739682803","","","null","","","","","","<p><img src= images/blank.png width =""600"" height = ""600"" style=""position:fixed;top:50%; left:50%; transform: translate(-50%, -50%); border:5px solid black"">","","","","","","","",""
"","820.2899999450892","sequential-stimulus-presentation-old","114","653454","0.0-25.0-1.4","SS1619739682803","trial","","40","500","1320.2899999450892","images/stimuli/spore_stims/complex_18_A_a.gif","images/stimuli/spore_stims/complex_13_A_b.gif","forced_long","","8","complex_dissimilar","images/stimuli/spore_stims/complex_13_A_b.gif","","","","",""
"","null","html-keyboard-response","115","654669","0.0-25.0-0.5","SS1619739682803","","","null","","","","","","<p><img src= images/blank.png width =""600"" height = ""600"" style=""position:fixed;top:50%; left:50%; transform: translate(-50%, -50%); border:5px solid black"">","","","","","","","",""
"","1965.0200000032783","sequential-stimulus-presentation-old","116","657151","0.0-25.0-1.5","SS1619739682803","trial","","40","500","2465.0200000032783","images/stimuli/spore_stims/complex_18_A_a.gif","images/stimuli/spore_stims/complex_13_A_b.gif","forced_long","","8","complex_dissimilar","images/stimuli/spore_stims/complex_13_A_b.gif","","","","",""
"","5071.200000005774","survey-multi-choice","117","662236","0.0-26.0","SS1619739682803","math_question","","","","","","","","","","","","{""Q0"":""10""}","[0]","10","",""
"","null","html-keyboard-response","118","663182","0.0-27.0-0.0","SS1619739682803","","","null","","","","","","<p><img src= images/blank.png width =""600"" height = ""600"" style=""position:fixed;top:50%; left:50%; transform: translate(-50%, -50%); border:5px solid black"">","","","","","","","",""
"","1138.3500000229105","sequential-stimulus-presentation-old","119","664834","0.0-27.0-1.0","SS1619739682803","trial","","40","500","1638.3500000229105","images/stimuli/spore_stims/complex_20_A_a.gif","images/stimuli/spore_stims/complex_09_A_b.gif","forced_short","","9","complex_dissimilar","images/stimuli/spore_stims/complex_09_A_b.gif","","","","",""
"","null","html-keyboard-response","120","666048","0.0-27.0-0.1","SS1619739682803","","","null","","","","","","<p><img src= images/blank.png width =""600"" height = ""600"" style=""position:fixed;top:50%; left:50%; transform: translate(-50%, -50%); border:5px solid black"">","","","","","","","",""
"","6987.955000018701","sequential-stimulus-presentation-old","121","673552","0.0-27.0-1.1","SS1619739682803","trial","","40","500","7487.955000018701","images/stimuli/spore_stims/complex_20_A_a.gif","images/stimuli/spore_stims/complex_09_A_b.gif","forced_short","","9","complex_dissimilar","images/stimuli/spore_stims/complex_20_A_a.gif","","","","",""
"","null","html-keyboard-response","122","674802","0.0-27.0-0.2","SS1619739682803","","","null","","","","","","<p><img src= images/blank.png width =""600"" height = ""600"" style=""position:fixed;top:50%; left:50%; transform: translate(-50%, -50%); border:5px solid black"">","","","","","","","",""
"","310.9000000404194","sequential-stimulus-presentation-old","123","675629","0.0-27.0-1.2","SS1619739682803","trial","","40","500","810.9000000404194","images/stimuli/spore_stims/complex_20_A_a.gif","images/stimuli/spore_stims/complex_09_A_b.gif","forced_short","","9","complex_dissimilar","images/stimuli/spore_stims/complex_20_A_a.gif","","","","",""
"","null","html-keyboard-response","124","676576","0.0-27.0-0.3","SS1619739682803","","","null","","","","","","<p><img src= images/blank.png width =""600"" height = ""600"" style=""position:fixed;top:50%; left:50%; transform: translate(-50%, -50%); border:5px solid black"">","","","","","","","",""
"","4976.995000033639","sequential-stimulus-presentation-old","125","682062","0.0-27.0-1.3","SS1619739682803","trial","","40","500","5476.995000033639","images/stimuli/spore_stims/complex_20_A_a.gif","images/stimuli/spore_stims/complex_09_A_b.gif","forced_short","","9","complex_dissimilar","images/stimuli/spore_stims/complex_09_A_b.gif","","","","",""
"","null","html-keyboard-response","126","683235","0.0-27.0-0.4","SS1619739682803","","","null","","","","","","<p><img src= images/blank.png width =""600"" height = ""600"" style=""position:fixed;top:50%; left:50%; transform: translate(-50%, -50%); border:5px solid black"">","","","","","","","",""
"","1265.0650000432506","sequential-stimulus-presentation-old","127","685017","0.0-27.0-1.4","SS1619739682803","trial","","40","500","1765.0650000432506","images/stimuli/spore_stims/complex_20_A_a.gif","images/stimuli/spore_stims/complex_09_A_b.gif","forced_short","","9","complex_dissimilar","images/stimuli/spore_stims/complex_09_A_b.gif","","","","",""
"","null","html-keyboard-response","128","686062","0.0-27.0-0.5","SS1619739682803","","","null","","","","","","<p><img src= images/blank.png width =""600"" height = ""600"" style=""position:fixed;top:50%; left:50%; transform: translate(-50%, -50%); border:5px solid black"">","","","","","","","",""
"","1087.0550000108778","sequential-stimulus-presentation-old","129","687672","0.0-27.0-1.5","SS1619739682803","trial","","40","500","1587.0550000108778","images/stimuli/spore_stims/complex_20_A_a.gif","images/stimuli/spore_stims/complex_09_A_b.gif","forced_short","","9","complex_dissimilar","images/stimuli/spore_stims/complex_09_A_b.gif","","","","",""
"","3135.9149999916553","survey-multi-choice","130","690819","0.0-28.0","SS1619739682803","math_question","","","","","","","","","","","","{""Q0"":""8""}","[0]","8","",""
"","null","html-keyboard-response","131","691863","0.0-29.0-0.0","SS1619739682803","","","null","","","","","","<p><img src= images/blank.png width =""600"" height = ""600"" style=""position:fixed;top:50%; left:50%; transform: translate(-50%, -50%); border:5px solid black"">","","","","","","","",""
"","643.625000026077","sequential-stimulus-presentation-old","132","693023","0.0-29.0-1.0","SS1619739682803","trial","","40","500","1143.625000026077","images/stimuli/spore_stims/complex_03_A_a.gif","images/stimuli/spore_stims/complex_14_A_b.gif","forced_short","","10","complex_dissimilar","images/stimuli/spore_stims/complex_14_A_b.gif","","","","",""
"","null","html-keyboard-response","133","693883","0.0-29.0-0.1","SS1619739682803","","","null","","","","","","<p><img src= images/blank.png width =""600"" height = ""600"" style=""position:fixed;top:50%; left:50%; transform: translate(-50%, -50%); border:5px solid black"">","","","","","","","",""
"","3949.330000090413","sequential-stimulus-presentation-old","134","698346","0.0-29.0-1.1","SS1619739682803","trial","","40","500","4449.330000090413","images/stimuli/spore_stims/complex_03_A_a.gif","images/stimuli/spore_stims/complex_14_A_b.gif","forced_short","","10","complex_dissimilar","images/stimuli/spore_stims/complex_03_A_a.gif","","","","",""
"","null","html-keyboard-response","135","699650","0.0-29.0-0.2","SS1619739682803","","","null","","","","","","<p><img src= images/blank.png width =""600"" height = ""600"" style=""position:fixed;top:50%; left:50%; transform: translate(-50%, -50%); border:5px solid black"">","","","","","","","",""
"","5963.004999910481","sequential-stimulus-presentation-old","136","706131","0.0-29.0-1.2","SS1619739682803","trial","","40","500","6463.004999910481","images/stimuli/spore_stims/complex_03_A_a.gif","images/stimuli/spore_stims/complex_14_A_b.gif","forced_short","","10","complex_dissimilar","images/stimuli/spore_stims/complex_14_A_b.gif","","","","",""
"","null","html-keyboard-response","137","707000","0.0-29.0-0.3","SS1619739682803","","","null","","","","","","<p><img src= images/blank.png width =""600"" height = ""600"" style=""position:fixed;top:50%; left:50%; transform: translate(-50%, -50%); border:5px solid black"">","","","","","","","",""
"","1963.300000061281","sequential-stimulus-presentation-old","138","709485","0.0-29.0-1.3","SS1619739682803","trial","","40","500","2463.300000061281","images/stimuli/spore_stims/complex_03_A_a.gif","images/stimuli/spore_stims/complex_14_A_b.gif","forced_short","","10","complex_dissimilar","images/stimuli/spore_stims/complex_14_A_b.gif","","","","",""
"","null","html-keyboard-response","139","710384","0.0-29.0-0.4","SS1619739682803","","","null","","","","","","<p><img src= images/blank.png width =""600"" height = ""600"" style=""position:fixed;top:50%; left:50%; transform: translate(-50%, -50%); border:5px solid black"">","","","","","","","",""
"","1745.6200000597164","sequential-stimulus-presentation-old","140","712660","0.0-29.0-1.4","SS1619739682803","trial","","40","500","2245.6200000597164","images/stimuli/spore_stims/complex_03_A_a.gif","images/stimuli/spore_stims/complex_14_A_b.gif","forced_short","","10","complex_dissimilar","images/stimuli/spore_stims/complex_03_A_a.gif","","","","",""
"","4900.370000046678","survey-multi-choice","141","717566","0.0-30.0","SS1619739682803","math_question","","","","","","","","","","","","{""Q0"":""15""}","[0]","15","",""
"","null","html-keyboard-response","142","718733","0.0-31.0-0.0","SS1619739682803","","","null","","","","","","<p><img src= images/blank.png width =""600"" height = ""600"" style=""position:fixed;top:50%; left:50%; transform: translate(-50%, -50%); border:5px solid black"">","","","","","","","",""
"","935.3250000858679","sequential-stimulus-presentation-old","143","734688","0.0-31.0-1.0","SS1619739682803","trial","","40","500","1435.325000085868","images/stimuli/spore_stims/complex_04_A_b.gif","images/stimuli/spore_stims/complex_06_A_a.gif","forced_long","","11","complex_dissimilar","images/stimuli/spore_stims/complex_06_A_a.gif","","","","",""
"","null","html-keyboard-response","144","735564","0.0-31.0-0.1","SS1619739682803","","","null","","","","","","<p><img src= images/blank.png width =""600"" height = ""600"" style=""position:fixed;top:50%; left:50%; transform: translate(-50%, -50%); border:5px solid black"">","","","","","","","",""
"","1418.62500004936","sequential-stimulus-presentation-old","145","737499","0.0-31.0-1.1","SS1619739682803","trial","","40","500","1918.62500004936","images/stimuli/spore_stims/complex_04_A_b.gif","images/stimuli/spore_stims/complex_06_A_a.gif","forced_long","","11","complex_dissimilar","images/stimuli/spore_stims/complex_06_A_a.gif","","","","",""
"","null","html-keyboard-response","146","738365","0.0-31.0-0.2","SS1619739682803","","","null","","","","","","<p><img src= images/blank.png width =""600"" height = ""600"" style=""position:fixed;top:50%; left:50%; transform: translate(-50%, -50%); border:5px solid black"">","","","","","","","",""
"","9537.86499996204","sequential-stimulus-presentation-old","147","748418","0.0-31.0-1.2","SS1619739682803","trial","","40","500","10037.86499996204","images/stimuli/spore_stims/complex_04_A_b.gif","images/stimuli/spore_stims/complex_06_A_a.gif","forced_long","","11","complex_dissimilar","images/stimuli/spore_stims/complex_04_A_b.gif","","","","",""
"","null","html-keyboard-response","148","749532","0.0-31.0-0.3","SS1619739682803","","","null","","","","","","<p><img src= images/blank.png width =""600"" height = ""600"" style=""position:fixed;top:50%; left:50%; transform: translate(-50%, -50%); border:5px solid black"">","","","","","","","",""
"","465.3050000779331","sequential-stimulus-presentation-old","149","750527","0.0-31.0-1.3","SS1619739682803","trial","","40","500","965.3050000779331","images/stimuli/spore_stims/complex_04_A_b.gif","images/stimuli/spore_stims/complex_06_A_a.gif","forced_long","","11","complex_dissimilar","images/stimuli/spore_stims/complex_04_A_b.gif","","","","",""
"","null","html-keyboard-response","150","751693","0.0-31.0-0.4","SS1619739682803","","","null","","","","","","<p><img src= images/blank.png width =""600"" height = ""600"" style=""position:fixed;top:50%; left:50%; transform: translate(-50%, -50%); border:5px solid black"">","","","","","","","",""
"","219.21500004827976","sequential-stimulus-presentation-old","151","752432","0.0-31.0-1.4","SS1619739682803","trial","","40","500","719.2150000482798","images/stimuli/spore_stims/complex_04_A_b.gif","images/stimuli/spore_stims/complex_06_A_a.gif","forced_long","","11","complex_dissimilar","images/stimuli/spore_stims/complex_06_A_a.gif","","","","",""
"","null","html-keyboard-response","152","753430","0.0-31.0-0.5","SS1619739682803","","","null","","","","","","<p><img src= images/blank.png width =""600"" height = ""600"" style=""position:fixed;top:50%; left:50%; transform: translate(-50%, -50%); border:5px solid black"">","","","","","","","",""
"","1116.4649999700487","sequential-stimulus-presentation-old","153","755060","0.0-31.0-1.5","SS1619739682803","trial","","40","500","1616.4649999700487","images/stimuli/spore_stims/complex_04_A_b.gif","images/stimuli/spore_stims/complex_06_A_a.gif","forced_long","","11","complex_dissimilar","images/stimuli/spore_stims/complex_06_A_a.gif","","","","",""
"[{""page_index"":0,""viewing_time"":5456.239999970421}]","5458.529999945313","instructions","154","760532","0.0-32.0","SS1619739682803","instructions","","","","","","","","","","","","","","","",""
"","10531.79000003729","survey-likert","155","771080","0.0-33.0","SS1619739682803","similarity_question","","","","","","","","","","","","{""Q0"":0}","[0]","","images/stimuli/spore_stims/complex_01_A_a.gif","images/stimuli/spore_stims/complex_07_A_b.gif"
"","4581.0799999162555","survey-likert","156","775699","0.0-34.0","SS1619739682803","similarity_question","","","","","","","","","","","","{""Q0"":2}","[0]","","images/stimuli/spore_stims/simple_09_A_a.gif","images/stimuli/spore_stims/simple_18_A_b.gif"
"","9263.850000104867","survey-likert","157","784981","0.0-35.0","SS1619739682803","similarity_question","","","","","","","","","","","","{""Q0"":2}","[0]","","images/stimuli/spore_stims/simple_07_A_b.gif","images/stimuli/spore_stims/simple_11_A_a.gif"
"","6053.73500008136","survey-likert","158","791065","0.0-36.0","SS1619739682803","similarity_question","","","","","","","","","","","","{""Q0"":4}","[0]","","images/stimuli/spore_stims/simple_18_A_a.gif","images/stimuli/spore_stims/simple_08_A_b.gif"
"","4991.144999978133","survey-likert","159","796089","0.0-37.0","SS1619739682803","similarity_question","","","","","","","","","","","","{""Q0"":2}","[0]","","images/stimuli/spore_stims/simple_09_A_b.gif","images/stimuli/spore_stims/simple_05_A_a.gif"
"","10841.314999968745","survey-likert","160","806971","0.0-38.0","SS1619739682803","similarity_question","","","","","","","","","","","","{""Q0"":4}","[0]","","images/stimuli/spore_stims/complex_14_A_b.gif","images/stimuli/spore_stims/complex_03_A_a.gif"
"","8106.544999987818","survey-likert","161","815096","0.0-39.0","SS1619739682803","similarity_question","","","","","","","","","","","","{""Q0"":4}","[0]","","images/stimuli/spore_stims/complex_18_A_a.gif","images/stimuli/spore_stims/complex_13_A_b.gif"
"","5978.660000022501","survey-likert","162","821104","0.0-40.0","SS1619739682803","similarity_question","","","","","","","","","","","","{""Q0"":2}","[0]","","images/stimuli/spore_stims/complex_09_A_b.gif","images/stimuli/spore_stims/complex_20_A_a.gif"
"","5745.244999998249","survey-likert","163","826870","0.0-41.0","SS1619739682803","similarity_question","","","","","","","","","","","","{""Q0"":2}","[0]","","images/stimuli/spore_stims/complex_15_A_b.gif","images/stimuli/spore_stims/complex_08_A_a.gif"
"","5241.490000043996","survey-likert","164","832134","0.0-42.0","SS1619739682803","similarity_question","","","","","","","","","","","","{""Q0"":5}","[0]","","images/stimuli/spore_stims/simple_03_A_a.gif","images/stimuli/spore_stims/simple_04_A_b.gif"
"","8590.139999985695","survey-likert","165","840744","0.0-43.0","SS1619739682803","similarity_question","","","","","","","","","","","","{""Q0"":2}","[0]","","images/stimuli/spore_stims/complex_04_A_b.gif","images/stimuli/spore_stims/complex_06_A_a.gif"
"","4383.219999959692","survey-likert","166","845159","0.0-44.0","SS1619739682803","similarity_question","","","","","","","","","","","","{""Q0"":5}","[0]","","images/stimuli/spore_stims/simple_19_A_a.gif","images/stimuli/spore_stims/simple_03_A_b.gif"
"[{""page_index"":0,""viewing_time"":5484.255000017583}]","5484.790000016801","instructions","167","850671","0.0-45.0","SS1619739682803","instructions","","","","","","","","","","","","","","","",""
"","7252.235000021756","survey-likert","168","857932","0.0-46.0","SS1619739682803","","","","","","","","","images/stimuli/spore_stims/complex_07_A_b.gif","","","","{""Q0"":4}","[0]","","",""
"","4180.549999931827","survey-likert","169","862131","0.0-47.0","SS1619739682803","","","","","","","","","images/stimuli/spore_stims/simple_09_A_a.gif","","","","{""Q0"":0}","[0]","","",""
"","3346.5649998979643","survey-likert","170","865498","0.0-48.0","SS1619739682803","","","","","","","","","images/stimuli/spore_stims/simple_03_A_b.gif","","","","{""Q0"":0}","[0]","","",""
"","5014.419999904931","survey-likert","171","870542","0.0-49.0","SS1619739682803","","","","","","","","","images/stimuli/spore_stims/simple_07_A_b.gif","","","","{""Q0"":1}","[0]","","",""
"","2656.5899999113753","survey-likert","172","873217","0.0-50.0","SS1619739682803","","","","","","","","","images/stimuli/spore_stims/simple_09_A_b.gif","","","","{""Q0"":0}","[0]","","",""
"","6060.124999959953","survey-likert","173","879293","0.0-51.0","SS1619739682803","","","","","","","","","images/stimuli/spore_stims/complex_15_A_b.gif","","","","{""Q0"":4}","[0]","","",""
"","3515.4650000622496","survey-likert","174","882838","0.0-52.0","SS1619739682803","","","","","","","","","images/stimuli/spore_stims/simple_18_A_a.gif","","","","{""Q0"":0}","[0]","","",""
"","6172.7800000226125","survey-likert","175","889042","0.0-53.0","SS1619739682803","","","","","","","","","images/stimuli/spore_stims/complex_04_A_b.gif","","","","{""Q0"":4}","[0]","","",""
"","6115.470000077039","survey-likert","176","895190","0.0-54.0","SS1619739682803","","","","","","","","","images/stimuli/spore_stims/complex_14_A_b.gif","","","","{""Q0"":5}","[0]","","",""
"","3175.8050000062212","survey-likert","177","898406","0.0-55.0","SS1619739682803","","","","","","","","","images/stimuli/spore_stims/simple_03_A_a.gif","","","","{""Q0"":0}","[0]","","",""
"","4499.009999912232","survey-likert","178","902921","0.0-56.0","SS1619739682803","","","","","","","","","images/stimuli/spore_stims/complex_13_A_b.gif","","","","{""Q0"":4}","[0]","","",""
"","7435.969999991357","survey-likert","179","910380","0.0-57.0","SS1619739682803","","","","","","","","","images/stimuli/spore_stims/complex_20_A_a.gif","","","","{""Q0"":5}","[0]","","",""
"[{""page_index"":0,""viewing_time"":3065.904999966733}]","3066.7149999644607","instructions","180","913480","0.0-58.0","SS1619739682803","instructions","","","","","","","","","","","","","","","",""
"","3227.3999999742955","demog-age","181","916728","0.0-59.0","SS1619739682803","","","","","","","","","","","","","{""age"":""22""}","","","",""
"","5595.989999943413","demog-ethnic-US","182","922340","0.0-60.0","SS1619739682803","","","","","","","","","","","","","{""ethnicity"":[""Hispanic or Latino""]}","[0]","","",""
"","11797.570000053383","demog-gender-and-education","183","934159","0.0-61.0","SS1619739682803","","","","","","","","","","","","","{""gender"":""Female"",""education"":""High school diploma""}","[0,1]","","",""
"","7717.8449999773875","survey-text","184","941921","0.0-62.0","SS1619739682803","feedback","","","","","","","","","","","","{""Q0"":""no""}","","","",""
"[{""page_index"":0,""viewing_time"":3194.0350000513718}]","3194.850000087172","instructions","185","945129","0.0-63.0","SS1619739682803","instructions","","","","","","","","","","","","","","","",""
