"view_history","rt","trial_type","trial_index","time_elapsed","internal_node_id","subject","stimulus_type","trial_stimulus","key_press","minimum_viewing_duration","trial_looking_time","block_deviant","block_background","exposure_type","stimulus","block_number","block_type","stimulus_displayed","responses","question_order","math_correct_answer","stimulus_left","stimulus_right"
"[{""page_index"":0,""viewing_time"":164093.3050000001}]","164093.65500000012","instructions","0","164097","0.0-0.0","SS1619740244617","","","","","","","","","","","","","","","","",""
"[{""page_index"":0,""viewing_time"":7923.7949999999255},{""page_index"":1,""viewing_time"":3311.834999999992}]","11235.969999999972","instructions","1","177336","0.0-1.0","SS1619740244617","instructions","","","","","","","","","","","","","","","",""
"","3854.280000000028","sequential-stimulus-presentation-old","2","181692","0.0-2.0","SS1619740244617","","","40","500","4354.280000000028","null","null","self_paced","","","","","","","","",""
"","2825.8000000000757","sequential-stimulus-presentation-old","3","185020","0.0-3.0","SS1619740244617","","","40","500","3325.8000000000757","null","null","self_paced","","","","","","","","",""
"[{""page_index"":0,""viewing_time"":14626.99999999997}]","14627.314999999973","instructions","4","199648","0.0-4.0","SS1619740244617","instructions","","","","","","","","","","","","","","","",""
"","673.3249999997497","sequential-stimulus-presentation-old","5","215324","0.0-5.0","SS1619740244617","","","40","500","1173.3249999997497","null","null","forced_long","","","","","","","","",""
"","2223.085000000079","sequential-stimulus-presentation-old","6","218051","0.0-6.0","SS1619740244617","","","40","500","2723.085000000079","null","null","forced_long","","","","","","","","",""
"[{""page_index"":0,""viewing_time"":2947.0049999999756}]","2947.264999999781","instructions","7","221000","0.0-7.0","SS1619740244617","instructions","","","","","","","","","","","","","","","",""
"[{""page_index"":0,""viewing_time"":8054.740000000049},{""page_index"":1,""viewing_time"":5376.235000000161},{""page_index"":2,""viewing_time"":4143.804999999702},{""page_index"":3,""viewing_time"":1112.0550000000803},{""page_index"":4,""viewing_time"":839.9300000000803}]","19527.085000000166","instructions","8","240527","0.0-8.0","SS1619740244617","instructions","","","","","","","","","","","","","","","",""
"","null","html-keyboard-response","9","241413","0.0-9.0-0.0","SS1619740244617","","","null","","","","","","<p><img src= images/blank.png width =""600"" height = ""600"" style=""position:fixed;top:50%; left:50%; transform: translate(-50%, -50%); border:5px solid black"">","","","","","","","",""
"","1203.1599999999744","sequential-stimulus-presentation-old","10","257619","0.0-9.0-1.0","SS1619740244617","trial","","40","500","1703.1599999999744","images/stimuli/spore_stims/complex_03_A_b.gif","images/stimuli/spore_stims/complex_18_A_a.gif","forced_long","","0","complex_dissimilar","images/stimuli/spore_stims/complex_18_A_a.gif","","","","",""
"","null","html-keyboard-response","11","258524","0.0-9.0-0.1","SS1619740244617","","","null","","","","","","<p><img src= images/blank.png width =""600"" height = ""600"" style=""position:fixed;top:50%; left:50%; transform: translate(-50%, -50%); border:5px solid black"">","","","","","","","",""
"","32735.940000000002","sequential-stimulus-presentation-old","12","291763","0.0-9.0-1.1","SS1619740244617","trial","","40","500","33235.94","images/stimuli/spore_stims/complex_03_A_b.gif","images/stimuli/spore_stims/complex_18_A_a.gif","forced_long","","0","complex_dissimilar","images/stimuli/spore_stims/complex_03_A_b.gif","","","","",""
"","null","html-keyboard-response","13","292605","0.0-9.0-0.2","SS1619740244617","","","null","","","","","","<p><img src= images/blank.png width =""600"" height = ""600"" style=""position:fixed;top:50%; left:50%; transform: translate(-50%, -50%); border:5px solid black"">","","","","","","","",""
"","830.7700000000768","sequential-stimulus-presentation-old","14","293939","0.0-9.0-1.2","SS1619740244617","trial","","40","500","1330.7700000000768","images/stimuli/spore_stims/complex_03_A_b.gif","images/stimuli/spore_stims/complex_18_A_a.gif","forced_long","","0","complex_dissimilar","images/stimuli/spore_stims/complex_18_A_a.gif","","","","",""
"","null","html-keyboard-response","15","294749","0.0-9.0-0.3","SS1619740244617","","","null","","","","","","<p><img src= images/blank.png width =""600"" height = ""600"" style=""position:fixed;top:50%; left:50%; transform: translate(-50%, -50%); border:5px solid black"">","","","","","","","",""
"","430.3650000001653","sequential-stimulus-presentation-old","16","295683","0.0-9.0-1.3","SS1619740244617","trial","","40","500","930.3650000001653","images/stimuli/spore_stims/complex_03_A_b.gif","images/stimuli/spore_stims/complex_18_A_a.gif","forced_long","","0","complex_dissimilar","images/stimuli/spore_stims/complex_18_A_a.gif","","","","",""
"","null","html-keyboard-response","17","296790","0.0-9.0-0.4","SS1619740244617","","","null","","","","","","<p><img src= images/blank.png width =""600"" height = ""600"" style=""position:fixed;top:50%; left:50%; transform: translate(-50%, -50%); border:5px solid black"">","","","","","","","",""
"","782.1949999997742","sequential-stimulus-presentation-old","18","298075","0.0-9.0-1.4","SS1619740244617","trial","","40","500","1282.1949999997742","images/stimuli/spore_stims/complex_03_A_b.gif","images/stimuli/spore_stims/complex_18_A_a.gif","forced_long","","0","complex_dissimilar","images/stimuli/spore_stims/complex_18_A_a.gif","","","","",""
"","null","html-keyboard-response","19","299296","0.0-9.0-0.5","SS1619740244617","","","null","","","","","","<p><img src= images/blank.png width =""600"" height = ""600"" style=""position:fixed;top:50%; left:50%; transform: translate(-50%, -50%); border:5px solid black"">","","","","","","","",""
"","260.2600000000675","sequential-stimulus-presentation-old","20","300059","0.0-9.0-1.5","SS1619740244617","trial","","40","500","760.2600000000675","images/stimuli/spore_stims/complex_03_A_b.gif","images/stimuli/spore_stims/complex_18_A_a.gif","forced_long","","0","complex_dissimilar","images/stimuli/spore_stims/complex_18_A_a.gif","","","","",""
"","5338.6350000000675","survey-multi-choice","21","305400","0.0-10.0","SS1619740244617","math_question","","","","","","","","","","","","{""Q0"":""13""}","[0]","13","",""
"","null","html-keyboard-response","22","306515","0.0-11.0-0.0","SS1619740244617","","","null","","","","","","<p><img src= images/blank.png width =""600"" height = ""600"" style=""position:fixed;top:50%; left:50%; transform: translate(-50%, -50%); border:5px solid black"">","","","","","","","",""
"","501.09000000020023","sequential-stimulus-presentation-old","23","322019","0.0-11.0-1.0","SS1619740244617","trial","","40","500","1001.0900000002002","images/stimuli/spore_stims/simple_02_A_b.gif","images/stimuli/spore_stims/simple_06_A_a.gif","forced_long","","1","simple_dissimilar","images/stimuli/spore_stims/simple_06_A_a.gif","","","","",""
"","null","html-keyboard-response","24","322935","0.0-11.0-0.1","SS1619740244617","","","null","","","","","","<p><img src= images/blank.png width =""600"" height = ""600"" style=""position:fixed;top:50%; left:50%; transform: translate(-50%, -50%); border:5px solid black"">","","","","","","","",""
"","1373.3649999999325","sequential-stimulus-presentation-old","25","324811","0.0-11.0-1.1","SS1619740244617","trial","","40","500","1873.3649999999325","images/stimuli/spore_stims/simple_02_A_b.gif","images/stimuli/spore_stims/simple_06_A_a.gif","forced_long","","1","simple_dissimilar","images/stimuli/spore_stims/simple_06_A_a.gif","","","","",""
"","null","html-keyboard-response","26","326002","0.0-11.0-0.2","SS1619740244617","","","null","","","","","","<p><img src= images/blank.png width =""600"" height = ""600"" style=""position:fixed;top:50%; left:50%; transform: translate(-50%, -50%); border:5px solid black"">","","","","","","","",""
"","786.429999999702","sequential-stimulus-presentation-old","27","327291","0.0-11.0-1.2","SS1619740244617","trial","","40","500","1286.429999999702","images/stimuli/spore_stims/simple_02_A_b.gif","images/stimuli/spore_stims/simple_06_A_a.gif","forced_long","","1","simple_dissimilar","images/stimuli/spore_stims/simple_06_A_a.gif","","","","",""
"","null","html-keyboard-response","28","328581","0.0-11.0-0.3","SS1619740244617","","","null","","","","","","<p><img src= images/blank.png width =""600"" height = ""600"" style=""position:fixed;top:50%; left:50%; transform: translate(-50%, -50%); border:5px solid black"">","","","","","","","",""
"","1354.460000000021","sequential-stimulus-presentation-old","29","330443","0.0-11.0-1.3","SS1619740244617","trial","","40","500","1854.460000000021","images/stimuli/spore_stims/simple_02_A_b.gif","images/stimuli/spore_stims/simple_06_A_a.gif","forced_long","","1","simple_dissimilar","images/stimuli/spore_stims/simple_06_A_a.gif","","","","",""
"","null","html-keyboard-response","30","331468","0.0-11.0-0.4","SS1619740244617","","","null","","","","","","<p><img src= images/blank.png width =""600"" height = ""600"" style=""position:fixed;top:50%; left:50%; transform: translate(-50%, -50%); border:5px solid black"">","","","","","","","",""
"","2849.069999999774","sequential-stimulus-presentation-old","31","334819","0.0-11.0-1.4","SS1619740244617","trial","","40","500","3349.069999999774","images/stimuli/spore_stims/simple_02_A_b.gif","images/stimuli/spore_stims/simple_06_A_a.gif","forced_long","","1","simple_dissimilar","images/stimuli/spore_stims/simple_06_A_a.gif","","","","",""
"","3002.210000000079","survey-multi-choice","32","337823","0.0-12.0","SS1619740244617","math_question","","","","","","","","","","","","{""Q0"":""10""}","[0]","10","",""
"","null","html-keyboard-response","33","338648","0.0-13.0-0.0","SS1619740244617","","","null","","","","","","<p><img src= images/blank.png width =""600"" height = ""600"" style=""position:fixed;top:50%; left:50%; transform: translate(-50%, -50%); border:5px solid black"">","","","","","","","",""
"","4352.76999999996","sequential-stimulus-presentation-old","34","358003","0.0-13.0-1.0","SS1619740244617","trial","","40","500","4852.76999999996","images/stimuli/spore_stims/simple_09_A_a.gif","images/stimuli/spore_stims/simple_17_A_b.gif","forced_long","","2","simple_dissimilar","images/stimuli/spore_stims/simple_17_A_b.gif","","","","",""
"","null","html-keyboard-response","35","359239","0.0-13.0-0.1","SS1619740244617","","","null","","","","","","<p><img src= images/blank.png width =""600"" height = ""600"" style=""position:fixed;top:50%; left:50%; transform: translate(-50%, -50%); border:5px solid black"">","","","","","","","",""
"","924.4049999997369","sequential-stimulus-presentation-old","36","360667","0.0-13.0-1.1","SS1619740244617","trial","","40","500","1424.404999999737","images/stimuli/spore_stims/simple_09_A_a.gif","images/stimuli/spore_stims/simple_17_A_b.gif","forced_long","","2","simple_dissimilar","images/stimuli/spore_stims/simple_17_A_b.gif","","","","",""
"","null","html-keyboard-response","37","361727","0.0-13.0-0.2","SS1619740244617","","","null","","","","","","<p><img src= images/blank.png width =""600"" height = ""600"" style=""position:fixed;top:50%; left:50%; transform: translate(-50%, -50%); border:5px solid black"">","","","","","","","",""
"","1731.0299999999115","sequential-stimulus-presentation-old","38","363963","0.0-13.0-1.2","SS1619740244617","trial","","40","500","2231.0299999999115","images/stimuli/spore_stims/simple_09_A_a.gif","images/stimuli/spore_stims/simple_17_A_b.gif","forced_long","","2","simple_dissimilar","images/stimuli/spore_stims/simple_17_A_b.gif","","","","",""
"","null","html-keyboard-response","39","364837","0.0-13.0-0.3","SS1619740244617","","","null","","","","","","<p><img src= images/blank.png width =""600"" height = ""600"" style=""position:fixed;top:50%; left:50%; transform: translate(-50%, -50%); border:5px solid black"">","","","","","","","",""
"","1566.5650000000605","sequential-stimulus-presentation-old","40","366907","0.0-13.0-1.3","SS1619740244617","trial","","40","500","2066.5650000000605","images/stimuli/spore_stims/simple_09_A_a.gif","images/stimuli/spore_stims/simple_17_A_b.gif","forced_long","","2","simple_dissimilar","images/stimuli/spore_stims/simple_17_A_b.gif","","","","",""
"","null","html-keyboard-response","41","367896","0.0-13.0-0.4","SS1619740244617","","","null","","","","","","<p><img src= images/blank.png width =""600"" height = ""600"" style=""position:fixed;top:50%; left:50%; transform: translate(-50%, -50%); border:5px solid black"">","","","","","","","",""
"","3476.810000000114","sequential-stimulus-presentation-old","42","371875","0.0-13.0-1.4","SS1619740244617","trial","","40","500","3976.810000000114","images/stimuli/spore_stims/simple_09_A_a.gif","images/stimuli/spore_stims/simple_17_A_b.gif","forced_long","","2","simple_dissimilar","images/stimuli/spore_stims/simple_17_A_b.gif","","","","",""
"","2858.4000000000815","survey-multi-choice","43","374735","0.0-14.0","SS1619740244617","math_question","","","","","","","","","","","","{""Q0"":""11""}","[0]","11","",""
"","null","html-keyboard-response","44","375707","0.0-15.0-0.0","SS1619740244617","","","null","","","","","","<p><img src= images/blank.png width =""600"" height = ""600"" style=""position:fixed;top:50%; left:50%; transform: translate(-50%, -50%); border:5px solid black"">","","","","","","","",""
"","920.969999999681","sequential-stimulus-presentation-old","45","377131","0.0-15.0-1.0","SS1619740244617","trial","","40","500","1420.969999999681","images/stimuli/spore_stims/simple_10_A_b.gif","images/stimuli/spore_stims/simple_19_A_a.gif","forced_short","","3","simple_dissimilar","images/stimuli/spore_stims/simple_19_A_a.gif","","","","",""
"","null","html-keyboard-response","46","378153","0.0-15.0-0.1","SS1619740244617","","","null","","","","","","<p><img src= images/blank.png width =""600"" height = ""600"" style=""position:fixed;top:50%; left:50%; transform: translate(-50%, -50%); border:5px solid black"">","","","","","","","",""
"","2201.5999999998603","sequential-stimulus-presentation-old","47","380859","0.0-15.0-1.1","SS1619740244617","trial","","40","500","2701.5999999998603","images/stimuli/spore_stims/simple_10_A_b.gif","images/stimuli/spore_stims/simple_19_A_a.gif","forced_short","","3","simple_dissimilar","images/stimuli/spore_stims/simple_19_A_a.gif","","","","",""
"","null","html-keyboard-response","48","381801","0.0-15.0-0.2","SS1619740244617","","","null","","","","","","<p><img src= images/blank.png width =""600"" height = ""600"" style=""position:fixed;top:50%; left:50%; transform: translate(-50%, -50%); border:5px solid black"">","","","","","","","",""
"","1336.7100000000792","sequential-stimulus-presentation-old","49","383643","0.0-15.0-1.2","SS1619740244617","trial","","40","500","1836.7100000000792","images/stimuli/spore_stims/simple_10_A_b.gif","images/stimuli/spore_stims/simple_19_A_a.gif","forced_short","","3","simple_dissimilar","images/stimuli/spore_stims/simple_19_A_a.gif","","","","",""
"","null","html-keyboard-response","50","384726","0.0-15.0-0.3","SS1619740244617","","","null","","","","","","<p><img src= images/blank.png width =""600"" height = ""600"" style=""position:fixed;top:50%; left:50%; transform: translate(-50%, -50%); border:5px solid black"">","","","","","","","",""
"","3548.2850000002654","sequential-stimulus-presentation-old","51","388779","0.0-15.0-1.3","SS1619740244617","trial","","40","500","4048.2850000002654","images/stimuli/spore_stims/simple_10_A_b.gif","images/stimuli/spore_stims/simple_19_A_a.gif","forced_short","","3","simple_dissimilar","images/stimuli/spore_stims/simple_19_A_a.gif","","","","",""
"","null","html-keyboard-response","52","389973","0.0-15.0-0.4","SS1619740244617","","","null","","","","","","<p><img src= images/blank.png width =""600"" height = ""600"" style=""position:fixed;top:50%; left:50%; transform: translate(-50%, -50%); border:5px solid black"">","","","","","","","",""
"","1278.6499999997322","sequential-stimulus-presentation-old","53","391755","0.0-15.0-1.4","SS1619740244617","trial","","40","500","1778.6499999997322","images/stimuli/spore_stims/simple_10_A_b.gif","images/stimuli/spore_stims/simple_19_A_a.gif","forced_short","","3","simple_dissimilar","images/stimuli/spore_stims/simple_19_A_a.gif","","","","",""
"","2818.435000000114","survey-multi-choice","54","394575","0.0-16.0","SS1619740244617","math_question","","","","","","","","","","","","{""Q0"":""12""}","[0]","12","",""
"","null","html-keyboard-response","55","395622","0.0-17.0-0.0","SS1619740244617","","","null","","","","","","<p><img src= images/blank.png width =""600"" height = ""600"" style=""position:fixed;top:50%; left:50%; transform: translate(-50%, -50%); border:5px solid black"">","","","","","","","",""
"","965.3600000001607","sequential-stimulus-presentation-old","56","397091","0.0-17.0-1.0","SS1619740244617","trial","","40","500","1465.3600000001607","images/stimuli/spore_stims/simple_03_A_a.gif","images/stimuli/spore_stims/simple_20_A_b.gif","forced_short","","4","simple_dissimilar","images/stimuli/spore_stims/simple_20_A_b.gif","","","","",""
"","null","html-keyboard-response","57","398144","0.0-17.0-0.1","SS1619740244617","","","null","","","","","","<p><img src= images/blank.png width =""600"" height = ""600"" style=""position:fixed;top:50%; left:50%; transform: translate(-50%, -50%); border:5px solid black"">","","","","","","","",""
"","2203.4399999997695","sequential-stimulus-presentation-old","58","400851","0.0-17.0-1.1","SS1619740244617","trial","","40","500","2703.4399999997695","images/stimuli/spore_stims/simple_03_A_a.gif","images/stimuli/spore_stims/simple_20_A_b.gif","forced_short","","4","simple_dissimilar","images/stimuli/spore_stims/simple_20_A_b.gif","","","","",""
"","null","html-keyboard-response","59","401941","0.0-17.0-0.2","SS1619740244617","","","null","","","","","","<p><img src= images/blank.png width =""600"" height = ""600"" style=""position:fixed;top:50%; left:50%; transform: translate(-50%, -50%); border:5px solid black"">","","","","","","","",""
"","1046.515000000014","sequential-stimulus-presentation-old","60","403490","0.0-17.0-1.2","SS1619740244617","trial","","40","500","1546.515000000014","images/stimuli/spore_stims/simple_03_A_a.gif","images/stimuli/spore_stims/simple_20_A_b.gif","forced_short","","4","simple_dissimilar","images/stimuli/spore_stims/simple_20_A_b.gif","","","","",""
"","null","html-keyboard-response","61","404398","0.0-17.0-0.3","SS1619740244617","","","null","","","","","","<p><img src= images/blank.png width =""600"" height = ""600"" style=""position:fixed;top:50%; left:50%; transform: translate(-50%, -50%); border:5px solid black"">","","","","","","","",""
"","1373.5750000000698","sequential-stimulus-presentation-old","62","406275","0.0-17.0-1.3","SS1619740244617","trial","","40","500","1873.5750000000698","images/stimuli/spore_stims/simple_03_A_a.gif","images/stimuli/spore_stims/simple_20_A_b.gif","forced_short","","4","simple_dissimilar","images/stimuli/spore_stims/simple_20_A_b.gif","","","","",""
"","null","html-keyboard-response","63","407391","0.0-17.0-0.4","SS1619740244617","","","null","","","","","","<p><img src= images/blank.png width =""600"" height = ""600"" style=""position:fixed;top:50%; left:50%; transform: translate(-50%, -50%); border:5px solid black"">","","","","","","","",""
"","747.9199999997509","sequential-stimulus-presentation-old","64","408642","0.0-17.0-1.4","SS1619740244617","trial","","40","500","1247.9199999997509","images/stimuli/spore_stims/simple_03_A_a.gif","images/stimuli/spore_stims/simple_20_A_b.gif","forced_short","","4","simple_dissimilar","images/stimuli/spore_stims/simple_20_A_b.gif","","","","",""
"","null","html-keyboard-response","65","409827","0.0-17.0-0.5","SS1619740244617","","","null","","","","","","<p><img src= images/blank.png width =""600"" height = ""600"" style=""position:fixed;top:50%; left:50%; transform: translate(-50%, -50%); border:5px solid black"">","","","","","","","",""
"","912.1749999999302","sequential-stimulus-presentation-old","66","411242","0.0-17.0-1.5","SS1619740244617","trial","","40","500","1412.1749999999302","images/stimuli/spore_stims/simple_03_A_a.gif","images/stimuli/spore_stims/simple_20_A_b.gif","forced_short","","4","simple_dissimilar","images/stimuli/spore_stims/simple_03_A_a.gif","","","","",""
"","3298.585000000021","survey-multi-choice","67","414542","0.0-18.0","SS1619740244617","math_question","","","","","","","","","","","","{""Q0"":""5""}","[0]","5","",""
"","null","html-keyboard-response","68","415655","0.0-19.0-0.0","SS1619740244617","","","null","","","","","","<p><img src= images/blank.png width =""600"" height = ""600"" style=""position:fixed;top:50%; left:50%; transform: translate(-50%, -50%); border:5px solid black"">","","","","","","","",""
"","1108.6900000000023","sequential-stimulus-presentation-old","69","417266","0.0-19.0-1.0","SS1619740244617","trial","","40","500","1608.6900000000023","images/stimuli/spore_stims/complex_13_A_b.gif","images/stimuli/spore_stims/complex_03_A_a.gif","forced_short","","5","complex_dissimilar","images/stimuli/spore_stims/complex_03_A_a.gif","","","","",""
"","null","html-keyboard-response","70","418177","0.0-19.0-0.1","SS1619740244617","","","null","","","","","","<p><img src= images/blank.png width =""600"" height = ""600"" style=""position:fixed;top:50%; left:50%; transform: translate(-50%, -50%); border:5px solid black"">","","","","","","","",""
"","3041.5849999999627","sequential-stimulus-presentation-old","71","421722","0.0-19.0-1.1","SS1619740244617","trial","","40","500","3541.5849999999627","images/stimuli/spore_stims/complex_13_A_b.gif","images/stimuli/spore_stims/complex_03_A_a.gif","forced_short","","5","complex_dissimilar","images/stimuli/spore_stims/complex_13_A_b.gif","","","","",""
"","null","html-keyboard-response","72","422941","0.0-19.0-0.2","SS1619740244617","","","null","","","","","","<p><img src= images/blank.png width =""600"" height = ""600"" style=""position:fixed;top:50%; left:50%; transform: translate(-50%, -50%); border:5px solid black"">","","","","","","","",""
"","18861.21499999991","sequential-stimulus-presentation-old","73","442306","0.0-19.0-1.2","SS1619740244617","trial","","40","500","19361.21499999991","images/stimuli/spore_stims/complex_13_A_b.gif","images/stimuli/spore_stims/complex_03_A_a.gif","forced_short","","5","complex_dissimilar","images/stimuli/spore_stims/complex_03_A_a.gif","","","","",""
"","null","html-keyboard-response","74","443275","0.0-19.0-0.3","SS1619740244617","","","null","","","","","","<p><img src= images/blank.png width =""600"" height = ""600"" style=""position:fixed;top:50%; left:50%; transform: translate(-50%, -50%); border:5px solid black"">","","","","","","","",""
"","727.2600000000675","sequential-stimulus-presentation-old","75","444506","0.0-19.0-1.3","SS1619740244617","trial","","40","500","1227.2600000000675","images/stimuli/spore_stims/complex_13_A_b.gif","images/stimuli/spore_stims/complex_03_A_a.gif","forced_short","","5","complex_dissimilar","images/stimuli/spore_stims/complex_03_A_a.gif","","","","",""
"","null","html-keyboard-response","76","445642","0.0-19.0-0.4","SS1619740244617","","","null","","","","","","<p><img src= images/blank.png width =""600"" height = ""600"" style=""position:fixed;top:50%; left:50%; transform: translate(-50%, -50%); border:5px solid black"">","","","","","","","",""
"","913.12000000017","sequential-stimulus-presentation-old","77","447058","0.0-19.0-1.4","SS1619740244617","trial","","40","500","1413.12000000017","images/stimuli/spore_stims/complex_13_A_b.gif","images/stimuli/spore_stims/complex_03_A_a.gif","forced_short","","5","complex_dissimilar","images/stimuli/spore_stims/complex_13_A_b.gif","","","","",""
"","2448.7049999997835","survey-multi-choice","78","449510","0.0-20.0","SS1619740244617","math_question","","","","","","","","","","","","{""Q0"":""6""}","[0]","6","",""
"","null","html-keyboard-response","79","450452","0.0-21.0-0.0","SS1619740244617","","","null","","","","","","<p><img src= images/blank.png width =""600"" height = ""600"" style=""position:fixed;top:50%; left:50%; transform: translate(-50%, -50%); border:5px solid black"">","","","","","","","",""
"","613.9650000000256","sequential-stimulus-presentation-old","80","451570","0.0-21.0-1.0","SS1619740244617","trial","","40","500","1113.9650000000256","images/stimuli/spore_stims/complex_01_A_b.gif","images/stimuli/spore_stims/complex_14_A_a.gif","forced_short","","6","complex_dissimilar","images/stimuli/spore_stims/complex_14_A_a.gif","","","","",""
"","null","html-keyboard-response","81","452453","0.0-21.0-0.1","SS1619740244617","","","null","","","","","","<p><img src= images/blank.png width =""600"" height = ""600"" style=""position:fixed;top:50%; left:50%; transform: translate(-50%, -50%); border:5px solid black"">","","","","","","","",""
"","741.0700000000652","sequential-stimulus-presentation-old","82","453698","0.0-21.0-1.1","SS1619740244617","trial","","40","500","1241.0700000000652","images/stimuli/spore_stims/complex_01_A_b.gif","images/stimuli/spore_stims/complex_14_A_a.gif","forced_short","","6","complex_dissimilar","images/stimuli/spore_stims/complex_14_A_a.gif","","","","",""
"","null","html-keyboard-response","83","454656","0.0-21.0-0.2","SS1619740244617","","","null","","","","","","<p><img src= images/blank.png width =""600"" height = ""600"" style=""position:fixed;top:50%; left:50%; transform: translate(-50%, -50%); border:5px solid black"">","","","","","","","",""
"","770.9749999999185","sequential-stimulus-presentation-old","84","455930","0.0-21.0-1.2","SS1619740244617","trial","","40","500","1270.9749999999185","images/stimuli/spore_stims/complex_01_A_b.gif","images/stimuli/spore_stims/complex_14_A_a.gif","forced_short","","6","complex_dissimilar","images/stimuli/spore_stims/complex_14_A_a.gif","","","","",""
"","null","html-keyboard-response","85","457183","0.0-21.0-0.3","SS1619740244617","","","null","","","","","","<p><img src= images/blank.png width =""600"" height = ""600"" style=""position:fixed;top:50%; left:50%; transform: translate(-50%, -50%); border:5px solid black"">","","","","","","","",""
"","76.02499999984866","sequential-stimulus-presentation-old","86","457762","0.0-21.0-1.3","SS1619740244617","trial","","40","500","576.0249999998487","images/stimuli/spore_stims/complex_01_A_b.gif","images/stimuli/spore_stims/complex_14_A_a.gif","forced_short","","6","complex_dissimilar","images/stimuli/spore_stims/complex_14_A_a.gif","","","","",""
"","null","html-keyboard-response","87","458865","0.0-21.0-0.4","SS1619740244617","","","null","","","","","","<p><img src= images/blank.png width =""600"" height = ""600"" style=""position:fixed;top:50%; left:50%; transform: translate(-50%, -50%); border:5px solid black"">","","","","","","","",""
"","2673.5100000000675","sequential-stimulus-presentation-old","88","462042","0.0-21.0-1.4","SS1619740244617","trial","","40","500","3173.5100000000675","images/stimuli/spore_stims/complex_01_A_b.gif","images/stimuli/spore_stims/complex_14_A_a.gif","forced_short","","6","complex_dissimilar","images/stimuli/spore_stims/complex_01_A_b.gif","","","","",""
"","2258.214999999793","survey-multi-choice","89","464302","0.0-22.0","SS1619740244617","math_question","","","","","","","","","","","","{""Q0"":""8""}","[0]","8","",""
"","null","html-keyboard-response","90","465248","0.0-23.0-0.0","SS1619740244617","","","null","","","","","","<p><img src= images/blank.png width =""600"" height = ""600"" style=""position:fixed;top:50%; left:50%; transform: translate(-50%, -50%); border:5px solid black"">","","","","","","","",""
"","1010.6550000000861","sequential-stimulus-presentation-old","91","466762","0.0-23.0-1.0","SS1619740244617","trial","","40","500","1510.6550000000861","images/stimuli/spore_stims/complex_20_A_a.gif","images/stimuli/spore_stims/complex_08_A_b.gif","self_paced","","7","complex_dissimilar","images/stimuli/spore_stims/complex_08_A_b.gif","","","","",""
"","null","html-keyboard-response","92","467848","0.0-23.0-0.1","SS1619740244617","","","null","","","","","","<p><img src= images/blank.png width =""600"" height = ""600"" style=""position:fixed;top:50%; left:50%; transform: translate(-50%, -50%); border:5px solid black"">","","","","","","","",""
"","954.9950000000536","sequential-stimulus-presentation-old","93","469306","0.0-23.0-1.1","SS1619740244617","trial","","40","500","1454.9950000000536","images/stimuli/spore_stims/complex_20_A_a.gif","images/stimuli/spore_stims/complex_08_A_b.gif","self_paced","","7","complex_dissimilar","images/stimuli/spore_stims/complex_20_A_a.gif","","","","",""
"","null","html-keyboard-response","94","470567","0.0-23.0-0.2","SS1619740244617","","","null","","","","","","<p><img src= images/blank.png width =""600"" height = ""600"" style=""position:fixed;top:50%; left:50%; transform: translate(-50%, -50%); border:5px solid black"">","","","","","","","",""
"","603.4450000001816","sequential-stimulus-presentation-old","95","471674","0.0-23.0-1.2","SS1619740244617","trial","","40","500","1103.4450000001816","images/stimuli/spore_stims/complex_20_A_a.gif","images/stimuli/spore_stims/complex_08_A_b.gif","self_paced","","7","complex_dissimilar","images/stimuli/spore_stims/complex_08_A_b.gif","","","","",""
"","null","html-keyboard-response","96","472777","0.0-23.0-0.3","SS1619740244617","","","null","","","","","","<p><img src= images/blank.png width =""600"" height = ""600"" style=""position:fixed;top:50%; left:50%; transform: translate(-50%, -50%); border:5px solid black"">","","","","","","","",""
"","873.4450000001816","sequential-stimulus-presentation-old","97","474154","0.0-23.0-1.3","SS1619740244617","trial","","40","500","1373.4450000001816","images/stimuli/spore_stims/complex_20_A_a.gif","images/stimuli/spore_stims/complex_08_A_b.gif","self_paced","","7","complex_dissimilar","images/stimuli/spore_stims/complex_08_A_b.gif","","","","",""
"","null","html-keyboard-response","98","475076","0.0-23.0-0.4","SS1619740244617","","","null","","","","","","<p><img src= images/blank.png width =""600"" height = ""600"" style=""position:fixed;top:50%; left:50%; transform: translate(-50%, -50%); border:5px solid black"">","","","","","","","",""
"","1366.3950000000186","sequential-stimulus-presentation-old","99","476946","0.0-23.0-1.4","SS1619740244617","trial","","40","500","1866.3950000000186","images/stimuli/spore_stims/complex_20_A_a.gif","images/stimuli/spore_stims/complex_08_A_b.gif","self_paced","","7","complex_dissimilar","images/stimuli/spore_stims/complex_08_A_b.gif","","","","",""
"","2153.87999999983","survey-multi-choice","100","479102","0.0-24.0","SS1619740244617","math_question","","","","","","","","","","","","{""Q0"":""7""}","[0]","7","",""
"","null","html-keyboard-response","101","480112","0.0-25.0-0.0","SS1619740244617","","","null","","","","","","<p><img src= images/blank.png width =""600"" height = ""600"" style=""position:fixed;top:50%; left:50%; transform: translate(-50%, -50%); border:5px solid black"">","","","","","","","",""
"","1498.890000000305","sequential-stimulus-presentation-old","102","482114","0.0-25.0-1.0","SS1619740244617","trial","","40","500","1998.890000000305","images/stimuli/spore_stims/complex_08_A_a.gif","images/stimuli/spore_stims/complex_20_A_b.gif","self_paced","","8","complex_dissimilar","images/stimuli/spore_stims/complex_20_A_b.gif","","","","",""
"","null","html-keyboard-response","103","483207","0.0-25.0-0.1","SS1619740244617","","","null","","","","","","<p><img src= images/blank.png width =""600"" height = ""600"" style=""position:fixed;top:50%; left:50%; transform: translate(-50%, -50%); border:5px solid black"">","","","","","","","",""
"","202.64000000042142","sequential-stimulus-presentation-old","104","483914","0.0-25.0-1.1","SS1619740244617","trial","","40","500","702.6400000004214","images/stimuli/spore_stims/complex_08_A_a.gif","images/stimuli/spore_stims/complex_20_A_b.gif","self_paced","","8","complex_dissimilar","images/stimuli/spore_stims/complex_20_A_b.gif","","","","",""
"","null","html-keyboard-response","105","484877","0.0-25.0-0.2","SS1619740244617","","","null","","","","","","<p><img src= images/blank.png width =""600"" height = ""600"" style=""position:fixed;top:50%; left:50%; transform: translate(-50%, -50%); border:5px solid black"">","","","","","","","",""
"","3132.9049999999115","sequential-stimulus-presentation-old","106","488514","0.0-25.0-1.2","SS1619740244617","trial","","40","500","3632.9049999999115","images/stimuli/spore_stims/complex_08_A_a.gif","images/stimuli/spore_stims/complex_20_A_b.gif","self_paced","","8","complex_dissimilar","images/stimuli/spore_stims/complex_08_A_a.gif","","","","",""
"","null","html-keyboard-response","107","489376","0.0-25.0-0.3","SS1619740244617","","","null","","","","","","<p><img src= images/blank.png width =""600"" height = ""600"" style=""position:fixed;top:50%; left:50%; transform: translate(-50%, -50%); border:5px solid black"">","","","","","","","",""
"","898.5299999999115","sequential-stimulus-presentation-old","108","490778","0.0-25.0-1.3","SS1619740244617","trial","","40","500","1398.5299999999115","images/stimuli/spore_stims/complex_08_A_a.gif","images/stimuli/spore_stims/complex_20_A_b.gif","self_paced","","8","complex_dissimilar","images/stimuli/spore_stims/complex_08_A_a.gif","","","","",""
"","null","html-keyboard-response","109","491923","0.0-25.0-0.4","SS1619740244617","","","null","","","","","","<p><img src= images/blank.png width =""600"" height = ""600"" style=""position:fixed;top:50%; left:50%; transform: translate(-50%, -50%); border:5px solid black"">","","","","","","","",""
"","926.855000000156","sequential-stimulus-presentation-old","110","493354","0.0-25.0-1.4","SS1619740244617","trial","","40","500","1426.855000000156","images/stimuli/spore_stims/complex_08_A_a.gif","images/stimuli/spore_stims/complex_20_A_b.gif","self_paced","","8","complex_dissimilar","images/stimuli/spore_stims/complex_20_A_b.gif","","","","",""
"","null","html-keyboard-response","111","494191","0.0-25.0-0.5","SS1619740244617","","","null","","","","","","<p><img src= images/blank.png width =""600"" height = ""600"" style=""position:fixed;top:50%; left:50%; transform: translate(-50%, -50%); border:5px solid black"">","","","","","","","",""
"","506.8000000001048","sequential-stimulus-presentation-old","112","495202","0.0-25.0-1.5","SS1619740244617","trial","","40","500","1006.8000000001048","images/stimuli/spore_stims/complex_08_A_a.gif","images/stimuli/spore_stims/complex_20_A_b.gif","self_paced","","8","complex_dissimilar","images/stimuli/spore_stims/complex_20_A_b.gif","","","","",""
"","4209.960000000137","survey-multi-choice","113","499414","0.0-26.0","SS1619740244617","math_question","","","","","","","","","","","","{""Q0"":""14""}","[0]","14","",""
"","null","html-keyboard-response","114","500407","0.0-27.0-0.0","SS1619740244617","","","null","","","","","","<p><img src= images/blank.png width =""600"" height = ""600"" style=""position:fixed;top:50%; left:50%; transform: translate(-50%, -50%); border:5px solid black"">","","","","","","","",""
"","1737.609999999695","sequential-stimulus-presentation-old","115","502649","0.0-27.0-1.0","SS1619740244617","trial","","40","500","2237.609999999695","images/stimuli/spore_stims/simple_13_A_a.gif","images/stimuli/spore_stims/simple_07_A_b.gif","self_paced","","9","simple_dissimilar","images/stimuli/spore_stims/simple_07_A_b.gif","","","","",""
"","null","html-keyboard-response","116","503895","0.0-27.0-0.1","SS1619740244617","","","null","","","","","","<p><img src= images/blank.png width =""600"" height = ""600"" style=""position:fixed;top:50%; left:50%; transform: translate(-50%, -50%); border:5px solid black"">","","","","","","","",""
"","377.9399999998277","sequential-stimulus-presentation-old","117","504777","0.0-27.0-1.1","SS1619740244617","trial","","40","500","877.9399999998277","images/stimuli/spore_stims/simple_13_A_a.gif","images/stimuli/spore_stims/simple_07_A_b.gif","self_paced","","9","simple_dissimilar","images/stimuli/spore_stims/simple_07_A_b.gif","","","","",""
"","null","html-keyboard-response","118","505760","0.0-27.0-0.2","SS1619740244617","","","null","","","","","","<p><img src= images/blank.png width =""600"" height = ""600"" style=""position:fixed;top:50%; left:50%; transform: translate(-50%, -50%); border:5px solid black"">","","","","","","","",""
"","394.7149999999092","sequential-stimulus-presentation-old","119","506658","0.0-27.0-1.2","SS1619740244617","trial","","40","500","894.7149999999092","images/stimuli/spore_stims/simple_13_A_a.gif","images/stimuli/spore_stims/simple_07_A_b.gif","self_paced","","9","simple_dissimilar","images/stimuli/spore_stims/simple_07_A_b.gif","","","","",""
"","null","html-keyboard-response","120","507887","0.0-27.0-0.3","SS1619740244617","","","null","","","","","","<p><img src= images/blank.png width =""600"" height = ""600"" style=""position:fixed;top:50%; left:50%; transform: translate(-50%, -50%); border:5px solid black"">","","","","","","","",""
"","1235.5900000002584","sequential-stimulus-presentation-old","121","509626","0.0-27.0-1.3","SS1619740244617","trial","","40","500","1735.5900000002584","images/stimuli/spore_stims/simple_13_A_a.gif","images/stimuli/spore_stims/simple_07_A_b.gif","self_paced","","9","simple_dissimilar","images/stimuli/spore_stims/simple_13_A_a.gif","","","","",""
"","2345.835000000079","survey-multi-choice","122","511974","0.0-28.0","SS1619740244617","math_question","","","","","","","","","","","","{""Q0"":""14""}","[0]","14","",""
"","null","html-keyboard-response","123","513182","0.0-29.0-0.0","SS1619740244617","","","null","","","","","","<p><img src= images/blank.png width =""600"" height = ""600"" style=""position:fixed;top:50%; left:50%; transform: translate(-50%, -50%); border:5px solid black"">","","","","","","","",""
"","1048.6750000000466","sequential-stimulus-presentation-old","124","529234","0.0-29.0-1.0","SS1619740244617","trial","","40","500","1548.6750000000466","images/stimuli/spore_stims/complex_11_A_b.gif","images/stimuli/spore_stims/complex_12_A_a.gif","forced_long","","10","complex_dissimilar","images/stimuli/spore_stims/complex_12_A_a.gif","","","","",""
"","null","html-keyboard-response","125","530343","0.0-29.0-0.1","SS1619740244617","","","null","","","","","","<p><img src= images/blank.png width =""600"" height = ""600"" style=""position:fixed;top:50%; left:50%; transform: translate(-50%, -50%); border:5px solid black"">","","","","","","","",""
"","1810.4050000001444","sequential-stimulus-presentation-old","126","532657","0.0-29.0-1.1","SS1619740244617","trial","","40","500","2310.4050000001444","images/stimuli/spore_stims/complex_11_A_b.gif","images/stimuli/spore_stims/complex_12_A_a.gif","forced_long","","10","complex_dissimilar","images/stimuli/spore_stims/complex_12_A_a.gif","","","","",""
"","null","html-keyboard-response","127","533493","0.0-29.0-0.2","SS1619740244617","","","null","","","","","","<p><img src= images/blank.png width =""600"" height = ""600"" style=""position:fixed;top:50%; left:50%; transform: translate(-50%, -50%); border:5px solid black"">","","","","","","","",""
"","1612.8100000000559","sequential-stimulus-presentation-old","128","535610","0.0-29.0-1.2","SS1619740244617","trial","","40","500","2112.810000000056","images/stimuli/spore_stims/complex_11_A_b.gif","images/stimuli/spore_stims/complex_12_A_a.gif","forced_long","","10","complex_dissimilar","images/stimuli/spore_stims/complex_11_A_b.gif","","","","",""
"","null","html-keyboard-response","129","536726","0.0-29.0-0.3","SS1619740244617","","","null","","","","","","<p><img src= images/blank.png width =""600"" height = ""600"" style=""position:fixed;top:50%; left:50%; transform: translate(-50%, -50%); border:5px solid black"">","","","","","","","",""
"","172.4049999997951","sequential-stimulus-presentation-old","130","537401","0.0-29.0-1.3","SS1619740244617","trial","","40","500","672.4049999997951","images/stimuli/spore_stims/complex_11_A_b.gif","images/stimuli/spore_stims/complex_12_A_a.gif","forced_long","","10","complex_dissimilar","images/stimuli/spore_stims/complex_12_A_a.gif","","","","",""
"","2177.985000000219","survey-multi-choice","131","539582","0.0-30.0","SS1619740244617","math_question","","","","","","","","","","","","{""Q0"":""9""}","[0]","9","",""
"","null","html-keyboard-response","132","540638","0.0-31.0-0.0","SS1619740244617","","","null","","","","","","<p><img src= images/blank.png width =""600"" height = ""600"" style=""position:fixed;top:50%; left:50%; transform: translate(-50%, -50%); border:5px solid black"">","","","","","","","",""
"","299.5649999998277","sequential-stimulus-presentation-old","133","541442","0.0-31.0-1.0","SS1619740244617","trial","","40","500","799.5649999998277","images/stimuli/spore_stims/simple_12_A_a.gif","images/stimuli/spore_stims/simple_13_A_b.gif","self_paced","","11","simple_dissimilar","images/stimuli/spore_stims/simple_13_A_b.gif","","","","",""
"","null","html-keyboard-response","134","542287","0.0-31.0-0.1","SS1619740244617","","","null","","","","","","<p><img src= images/blank.png width =""600"" height = ""600"" style=""position:fixed;top:50%; left:50%; transform: translate(-50%, -50%); border:5px solid black"">","","","","","","","",""
"","634.5000000001164","sequential-stimulus-presentation-old","135","543426","0.0-31.0-1.1","SS1619740244617","trial","","40","500","1134.5000000001164","images/stimuli/spore_stims/simple_12_A_a.gif","images/stimuli/spore_stims/simple_13_A_b.gif","self_paced","","11","simple_dissimilar","images/stimuli/spore_stims/simple_12_A_a.gif","","","","",""
"","null","html-keyboard-response","136","544315","0.0-31.0-0.2","SS1619740244617","","","null","","","","","","<p><img src= images/blank.png width =""600"" height = ""600"" style=""position:fixed;top:50%; left:50%; transform: translate(-50%, -50%); border:5px solid black"">","","","","","","","",""
"","14.815000000060536","sequential-stimulus-presentation-old","137","544834","0.0-31.0-1.2","SS1619740244617","trial","","40","500","514.8150000000605","images/stimuli/spore_stims/simple_12_A_a.gif","images/stimuli/spore_stims/simple_13_A_b.gif","self_paced","","11","simple_dissimilar","images/stimuli/spore_stims/simple_13_A_b.gif","","","","",""
"","null","html-keyboard-response","138","545737","0.0-31.0-0.3","SS1619740244617","","","null","","","","","","<p><img src= images/blank.png width =""600"" height = ""600"" style=""position:fixed;top:50%; left:50%; transform: translate(-50%, -50%); border:5px solid black"">","","","","","","","",""
"","312.42500000004657","sequential-stimulus-presentation-old","139","546554","0.0-31.0-1.3","SS1619740244617","trial","","40","500","812.4250000000466","images/stimuli/spore_stims/simple_12_A_a.gif","images/stimuli/spore_stims/simple_13_A_b.gif","self_paced","","11","simple_dissimilar","images/stimuli/spore_stims/simple_13_A_b.gif","","","","",""
"","null","html-keyboard-response","140","547842","0.0-31.0-0.4","SS1619740244617","","","null","","","","","","<p><img src= images/blank.png width =""600"" height = ""600"" style=""position:fixed;top:50%; left:50%; transform: translate(-50%, -50%); border:5px solid black"">","","","","","","","",""
"","895.5","sequential-stimulus-presentation-old","141","549241","0.0-31.0-1.4","SS1619740244617","trial","","40","500","1395.5","images/stimuli/spore_stims/simple_12_A_a.gif","images/stimuli/spore_stims/simple_13_A_b.gif","self_paced","","11","simple_dissimilar","images/stimuli/spore_stims/simple_13_A_b.gif","","","","",""
"","null","html-keyboard-response","142","550526","0.0-31.0-0.5","SS1619740244617","","","null","","","","","","<p><img src= images/blank.png width =""600"" height = ""600"" style=""position:fixed;top:50%; left:50%; transform: translate(-50%, -50%); border:5px solid black"">","","","","","","","",""
"","1771.035000000149","sequential-stimulus-presentation-old","143","552802","0.0-31.0-1.5","SS1619740244617","trial","","40","500","2271.035000000149","images/stimuli/spore_stims/simple_12_A_a.gif","images/stimuli/spore_stims/simple_13_A_b.gif","self_paced","","11","simple_dissimilar","images/stimuli/spore_stims/simple_12_A_a.gif","","","","",""
"[{""page_index"":0,""viewing_time"":3425.310000000056}]","3425.604999999865","instructions","144","556230","0.0-32.0","SS1619740244617","instructions","","","","","","","","","","","","","","","",""
"","5181.010000000242","survey-likert","145","561414","0.0-33.0","SS1619740244617","similarity_question","","","","","","","","","","","","{""Q0"":2}","[0]","","images/stimuli/spore_stims/complex_20_A_a.gif","images/stimuli/spore_stims/complex_08_A_b.gif"
"","4628.2050000000745","survey-likert","146","566046","0.0-34.0","SS1619740244617","similarity_question","","","","","","","","","","","","{""Q0"":3}","[0]","","images/stimuli/spore_stims/simple_13_A_a.gif","images/stimuli/spore_stims/simple_07_A_b.gif"
"","2700.1549999999115","survey-likert","147","568750","0.0-35.0","SS1619740244617","similarity_question","","","","","","","","","","","","{""Q0"":5}","[0]","","images/stimuli/spore_stims/simple_12_A_a.gif","images/stimuli/spore_stims/simple_13_A_b.gif"
"","2412.929999999935","survey-likert","148","571166","0.0-36.0","SS1619740244617","similarity_question","","","","","","","","","","","","{""Q0"":5}","[0]","","images/stimuli/spore_stims/simple_20_A_b.gif","images/stimuli/spore_stims/simple_03_A_a.gif"
"","2524.104999999865","survey-likert","149","573694","0.0-37.0","SS1619740244617","similarity_question","","","","","","","","","","","","{""Q0"":6}","[0]","","images/stimuli/spore_stims/simple_02_A_b.gif","images/stimuli/spore_stims/simple_06_A_a.gif"
"","2500.734999999986","survey-likert","150","576198","0.0-38.0","SS1619740244617","similarity_question","","","","","","","","","","","","{""Q0"":0}","[0]","","images/stimuli/spore_stims/complex_03_A_a.gif","images/stimuli/spore_stims/complex_13_A_b.gif"
"","2852.3599999998696","survey-likert","151","579054","0.0-39.0","SS1619740244617","similarity_question","","","","","","","","","","","","{""Q0"":4}","[0]","","images/stimuli/spore_stims/simple_09_A_a.gif","images/stimuli/spore_stims/simple_17_A_b.gif"
"","3020.435000000405","survey-likert","152","582078","0.0-40.0","SS1619740244617","similarity_question","","","","","","","","","","","","{""Q0"":2}","[0]","","images/stimuli/spore_stims/complex_08_A_a.gif","images/stimuli/spore_stims/complex_20_A_b.gif"
"","2452.770000000368","survey-likert","153","584534","0.0-41.0","SS1619740244617","similarity_question","","","","","","","","","","","","{""Q0"":4}","[0]","","images/stimuli/spore_stims/simple_19_A_a.gif","images/stimuli/spore_stims/simple_10_A_b.gif"
"","2516.2500000001164","survey-likert","154","587054","0.0-42.0","SS1619740244617","similarity_question","","","","","","","","","","","","{""Q0"":0}","[0]","","images/stimuli/spore_stims/complex_12_A_a.gif","images/stimuli/spore_stims/complex_11_A_b.gif"
"","2572.5499999998137","survey-likert","155","589630","0.0-43.0","SS1619740244617","similarity_question","","","","","","","","","","","","{""Q0"":0}","[0]","","images/stimuli/spore_stims/complex_18_A_a.gif","images/stimuli/spore_stims/complex_03_A_b.gif"
"","1740.7050000000745","survey-likert","156","591374","0.0-44.0","SS1619740244617","similarity_question","","","","","","","","","","","","{""Q0"":0}","[0]","","images/stimuli/spore_stims/complex_01_A_b.gif","images/stimuli/spore_stims/complex_14_A_a.gif"
"[{""page_index"":0,""viewing_time"":2916.574999999837}]","2916.8749999998836","instructions","157","594293","0.0-45.0","SS1619740244617","instructions","","","","","","","","","","","","","","","",""
"","3300.944999999949","survey-likert","158","597598","0.0-46.0","SS1619740244617","","","","","","","","","images/stimuli/spore_stims/complex_20_A_a.gif","","","","{""Q0"":4}","[0]","","",""
"","2325.444999999949","survey-likert","159","599926","0.0-47.0","SS1619740244617","","","","","","","","","images/stimuli/spore_stims/complex_08_A_a.gif","","","","{""Q0"":4}","[0]","","",""
"","4075.6150000002235","survey-likert","160","604006","0.0-48.0","SS1619740244617","","","","","","","","","images/stimuli/spore_stims/complex_14_A_a.gif","","","","{""Q0"":2}","[0]","","",""
"","4260.409999999916","survey-likert","161","608269","0.0-49.0","SS1619740244617","","","","","","","","","images/stimuli/spore_stims/simple_17_A_b.gif","","","","{""Q0"":1}","[0]","","",""
"","3044.4950000001118","survey-likert","162","611318","0.0-50.0","SS1619740244617","","","","","","","","","images/stimuli/spore_stims/complex_12_A_a.gif","","","","{""Q0"":6}","[0]","","",""
"","3012.1699999999255","survey-likert","163","614333","0.0-51.0","SS1619740244617","","","","","","","","","images/stimuli/spore_stims/simple_10_A_b.gif","","","","{""Q0"":0}","[0]","","",""
"","1908.2750000002561","survey-likert","164","616246","0.0-52.0","SS1619740244617","","","","","","","","","images/stimuli/spore_stims/simple_13_A_b.gif","","","","{""Q0"":0}","[0]","","",""
"","3636.5150000001304","survey-likert","165","619886","0.0-53.0","SS1619740244617","","","","","","","","","images/stimuli/spore_stims/complex_03_A_b.gif","","","","{""Q0"":4}","[0]","","",""
"","1580.7600000002421","survey-likert","166","621470","0.0-54.0","SS1619740244617","","","","","","","","","images/stimuli/spore_stims/simple_20_A_b.gif","","","","{""Q0"":1}","[0]","","",""
"","2052.79999999993","survey-likert","167","623525","0.0-55.0","SS1619740244617","","","","","","","","","images/stimuli/spore_stims/simple_02_A_b.gif","","","","{""Q0"":0}","[0]","","",""
"","3380.0900000002002","survey-likert","168","626909","0.0-56.0","SS1619740244617","","","","","","","","","images/stimuli/spore_stims/simple_07_A_b.gif","","","","{""Q0"":0}","[0]","","",""
"","3676.669999999809","survey-likert","169","630589","0.0-57.0","SS1619740244617","","","","","","","","","images/stimuli/spore_stims/complex_13_A_b.gif","","","","{""Q0"":3}","[0]","","",""
"[{""page_index"":0,""viewing_time"":1188.9350000000559}]","1189.229999999865","instructions","170","631781","0.0-58.0","SS1619740244617","instructions","","","","","","","","","","","","","","","",""
"","2938.9849999998696","demog-age","171","634725","0.0-59.0","SS1619740244617","","","","","","","","","","","","","{""age"":""21""}","","","",""
"","5193.9900000002235","demog-ethnic-US","172","639926","0.0-60.0","SS1619740244617","","","","","","","","","","","","","{""ethnicity"":[""White""]}","[0]","","",""
"","13892.989999999874","demog-gender-and-education","173","653823","0.0-61.0","SS1619740244617","","","","","","","","","","","","","{""gender"":""Male"",""education"":""High school diploma""}","[0,1]","","",""
"","9030.73499999987","survey-text","174","662861","0.0-62.0","SS1619740244617","feedback","","","","","","","","","","","","{""Q0"":""No""}","","","",""
"[{""page_index"":0,""viewing_time"":1012.429999999702}]","1012.7699999997858","instructions","175","663877","0.0-63.0","SS1619740244617","instructions","","","","","","","","","","","","","","","",""
