"view_history","rt","trial_type","trial_index","time_elapsed","internal_node_id","subject","stimulus_type","trial_stimulus","key_press","minimum_viewing_duration","trial_looking_time","block_deviant","block_background","exposure_type","stimulus","block_number","block_type","stimulus_displayed","responses","question_order","math_correct_answer","stimulus_left","stimulus_right"
"[{""page_index"":0,""viewing_time"":35583.559999999125}]","35588.32500000426","instructions","0","35592","0.0-0.0","SS1619739450277","","","","","","","","","","","","","","","","",""
"[{""page_index"":0,""viewing_time"":17584.909999990487},{""page_index"":1,""viewing_time"":9363.01500000991}]","26949.379999990924","instructions","1","64560","0.0-1.0","SS1619739450277","instructions","","","","","","","","","","","","","","","",""
"","8969.69500000705","sequential-stimulus-presentation-old","2","74048","0.0-2.0","SS1619739450277","","","40","500","9469.69500000705","null","null","self_paced","","","","","","","","",""
"","6067.669999989448","sequential-stimulus-presentation-old","3","80623","0.0-3.0","SS1619739450277","","","40","500","6567.669999989448","null","null","self_paced","","","","","","","","",""
"[{""page_index"":0,""viewing_time"":22019.645000007586}]","22021.46000000357","instructions","4","102647","0.0-4.0","SS1619739450277","instructions","","","","","","","","","","","","","","","",""
"","1716.339999999036","sequential-stimulus-presentation-old","5","119403","0.0-5.0","SS1619739450277","","","40","500","2216.339999999036","null","null","forced_long","","","","","","","","",""
"","3108.3550000039395","sequential-stimulus-presentation-old","6","123018","0.0-6.0","SS1619739450277","","","40","500","3608.3550000039395","null","null","forced_long","","","","","","","","",""
"[{""page_index"":0,""viewing_time"":4245.885000011185}]","4249.0400000097","instructions","7","127270","0.0-7.0","SS1619739450277","instructions","","","","","","","","","","","","","","","",""
"[{""page_index"":0,""viewing_time"":12400.114999996731},{""page_index"":1,""viewing_time"":24562.055000002147},{""page_index"":2,""viewing_time"":11022.94000000984},{""page_index"":3,""viewing_time"":2498.5649999871384},{""page_index"":4,""viewing_time"":1706.385000012233}]","52192.1250000014","instructions","8","179468","0.0-8.0","SS1619739450277","instructions","","","","","","","","","","","","","","","",""
"","null","html-keyboard-response","9","180361","0.0-9.0-0.0","SS1619739450277","","","null","","","","","","<p><img src= images/blank.png width =""600"" height = ""600"" style=""position:fixed;top:50%; left:50%; transform: translate(-50%, -50%); border:5px solid black"">","","","","","","","",""
"","5086.650000012014","sequential-stimulus-presentation-old","10","200461","0.0-9.0-1.0","SS1619739450277","trial","","40","500","5586.650000012014","images/stimuli/spore_stims/complex_20_A_a.gif","images/stimuli/spore_stims/complex_15_A_b.gif","forced_long","","0","complex_dissimilar","images/stimuli/spore_stims/complex_15_A_b.gif","","","","",""
"","null","html-keyboard-response","11","201768","0.0-9.0-0.1","SS1619739450277","","","null","","","","","","<p><img src= images/blank.png width =""600"" height = ""600"" style=""position:fixed;top:50%; left:50%; transform: translate(-50%, -50%); border:5px solid black"">","","","","","","","",""
"","14102.344999992056","sequential-stimulus-presentation-old","12","216384","0.0-9.0-1.1","SS1619739450277","trial","","40","500","14602.344999992056","images/stimuli/spore_stims/complex_20_A_a.gif","images/stimuli/spore_stims/complex_15_A_b.gif","forced_long","","0","complex_dissimilar","images/stimuli/spore_stims/complex_15_A_b.gif","","","","",""
"","null","html-keyboard-response","13","217639","0.0-9.0-0.2","SS1619739450277","","","null","","","","","","<p><img src= images/blank.png width =""600"" height = ""600"" style=""position:fixed;top:50%; left:50%; transform: translate(-50%, -50%); border:5px solid black"">","","","","","","","",""
"","9313.280000002123","sequential-stimulus-presentation-old","14","227477","0.0-9.0-1.2","SS1619739450277","trial","","40","500","9813.280000002123","images/stimuli/spore_stims/complex_20_A_a.gif","images/stimuli/spore_stims/complex_15_A_b.gif","forced_long","","0","complex_dissimilar","images/stimuli/spore_stims/complex_15_A_b.gif","","","","",""
"","null","html-keyboard-response","15","228388","0.0-9.0-0.3","SS1619739450277","","","null","","","","","","<p><img src= images/blank.png width =""600"" height = ""600"" style=""position:fixed;top:50%; left:50%; transform: translate(-50%, -50%); border:5px solid black"">","","","","","","","",""
"","2988.134999992326","sequential-stimulus-presentation-old","16","231887","0.0-9.0-1.3","SS1619739450277","trial","","40","500","3488.134999992326","images/stimuli/spore_stims/complex_20_A_a.gif","images/stimuli/spore_stims/complex_15_A_b.gif","forced_long","","0","complex_dissimilar","images/stimuli/spore_stims/complex_15_A_b.gif","","","","",""
"","null","html-keyboard-response","17","232950","0.0-9.0-0.4","SS1619739450277","","","null","","","","","","<p><img src= images/blank.png width =""600"" height = ""600"" style=""position:fixed;top:50%; left:50%; transform: translate(-50%, -50%); border:5px solid black"">","","","","","","","",""
"","8484.530000001541","sequential-stimulus-presentation-old","18","241947","0.0-9.0-1.4","SS1619739450277","trial","","40","500","8984.530000001541","images/stimuli/spore_stims/complex_20_A_a.gif","images/stimuli/spore_stims/complex_15_A_b.gif","forced_long","","0","complex_dissimilar","images/stimuli/spore_stims/complex_15_A_b.gif","","","","",""
"","5075.329999992391","survey-multi-choice","19","247044","0.0-10.0","SS1619739450277","math_question","","","","","","","","","","","","{""Q0"":""11""}","[0]","11","",""
"","null","html-keyboard-response","20","247935","0.0-11.0-0.0","SS1619739450277","","","null","","","","","","<p><img src= images/blank.png width =""600"" height = ""600"" style=""position:fixed;top:50%; left:50%; transform: translate(-50%, -50%); border:5px solid black"">","","","","","","","",""
"","1438.0750000127591","sequential-stimulus-presentation-old","21","249920","0.0-11.0-1.0","SS1619739450277","trial","","40","500","1938.0750000127591","images/stimuli/spore_stims/complex_02_A_b.gif","images/stimuli/spore_stims/complex_16_A_a.gif","forced_short","","1","complex_dissimilar","images/stimuli/spore_stims/complex_16_A_a.gif","","","","",""
"","null","html-keyboard-response","22","250894","0.0-11.0-0.1","SS1619739450277","","","null","","","","","","<p><img src= images/blank.png width =""600"" height = ""600"" style=""position:fixed;top:50%; left:50%; transform: translate(-50%, -50%); border:5px solid black"">","","","","","","","",""
"","9323.584999990999","sequential-stimulus-presentation-old","23","260736","0.0-11.0-1.1","SS1619739450277","trial","","40","500","9823.584999990999","images/stimuli/spore_stims/complex_02_A_b.gif","images/stimuli/spore_stims/complex_16_A_a.gif","forced_short","","1","complex_dissimilar","images/stimuli/spore_stims/complex_16_A_a.gif","","","","",""
"","null","html-keyboard-response","24","261595","0.0-11.0-0.2","SS1619739450277","","","null","","","","","","<p><img src= images/blank.png width =""600"" height = ""600"" style=""position:fixed;top:50%; left:50%; transform: translate(-50%, -50%); border:5px solid black"">","","","","","","","",""
"","7486.195000004955","sequential-stimulus-presentation-old","25","269596","0.0-11.0-1.2","SS1619739450277","trial","","40","500","7986.195000004955","images/stimuli/spore_stims/complex_02_A_b.gif","images/stimuli/spore_stims/complex_16_A_a.gif","forced_short","","1","complex_dissimilar","images/stimuli/spore_stims/complex_16_A_a.gif","","","","",""
"","null","html-keyboard-response","26","270844","0.0-11.0-0.3","SS1619739450277","","","null","","","","","","<p><img src= images/blank.png width =""600"" height = ""600"" style=""position:fixed;top:50%; left:50%; transform: translate(-50%, -50%); border:5px solid black"">","","","","","","","",""
"","8413.644999993267","sequential-stimulus-presentation-old","27","279769","0.0-11.0-1.3","SS1619739450277","trial","","40","500","8913.644999993267","images/stimuli/spore_stims/complex_02_A_b.gif","images/stimuli/spore_stims/complex_16_A_a.gif","forced_short","","1","complex_dissimilar","images/stimuli/spore_stims/complex_16_A_a.gif","","","","",""
"","null","html-keyboard-response","28","280803","0.0-11.0-0.4","SS1619739450277","","","null","","","","","","<p><img src= images/blank.png width =""600"" height = ""600"" style=""position:fixed;top:50%; left:50%; transform: translate(-50%, -50%); border:5px solid black"">","","","","","","","",""
"","10066.464999996242","sequential-stimulus-presentation-old","29","291379","0.0-11.0-1.4","SS1619739450277","trial","","40","500","10566.464999996242","images/stimuli/spore_stims/complex_02_A_b.gif","images/stimuli/spore_stims/complex_16_A_a.gif","forced_short","","1","complex_dissimilar","images/stimuli/spore_stims/complex_16_A_a.gif","","","","",""
"","null","html-keyboard-response","30","292340","0.0-11.0-0.5","SS1619739450277","","","null","","","","","","<p><img src= images/blank.png width =""600"" height = ""600"" style=""position:fixed;top:50%; left:50%; transform: translate(-50%, -50%); border:5px solid black"">","","","","","","","",""
"","12728.914999999688","sequential-stimulus-presentation-old","31","305578","0.0-11.0-1.5","SS1619739450277","trial","","40","500","13228.914999999688","images/stimuli/spore_stims/complex_02_A_b.gif","images/stimuli/spore_stims/complex_16_A_a.gif","forced_short","","1","complex_dissimilar","images/stimuli/spore_stims/complex_02_A_b.gif","","","","",""
"","3878.080000009504","survey-multi-choice","32","309474","0.0-12.0","SS1619739450277","math_question","","","","","","","","","","","","{""Q0"":""18""}","[0]","18","",""
"","null","html-keyboard-response","33","310290","0.0-13.0-0.0","SS1619739450277","","","null","","","","","","<p><img src= images/blank.png width =""600"" height = ""600"" style=""position:fixed;top:50%; left:50%; transform: translate(-50%, -50%); border:5px solid black"">","","","","","","","",""
"","8048.949999996694","sequential-stimulus-presentation-old","34","318852","0.0-13.0-1.0","SS1619739450277","trial","","40","500","8548.949999996694","images/stimuli/spore_stims/simple_14_A_a.gif","images/stimuli/spore_stims/simple_03_A_b.gif","self_paced","","2","simple_dissimilar","images/stimuli/spore_stims/simple_03_A_b.gif","","","","",""
"","null","html-keyboard-response","35","319986","0.0-13.0-0.1","SS1619739450277","","","null","","","","","","<p><img src= images/blank.png width =""600"" height = ""600"" style=""position:fixed;top:50%; left:50%; transform: translate(-50%, -50%); border:5px solid black"">","","","","","","","",""
"","8749.679999993532","sequential-stimulus-presentation-old","36","329253","0.0-13.0-1.1","SS1619739450277","trial","","40","500","9249.679999993532","images/stimuli/spore_stims/simple_14_A_a.gif","images/stimuli/spore_stims/simple_03_A_b.gif","self_paced","","2","simple_dissimilar","images/stimuli/spore_stims/simple_03_A_b.gif","","","","",""
"","null","html-keyboard-response","37","330134","0.0-13.0-0.2","SS1619739450277","","","null","","","","","","<p><img src= images/blank.png width =""600"" height = ""600"" style=""position:fixed;top:50%; left:50%; transform: translate(-50%, -50%); border:5px solid black"">","","","","","","","",""
"","7919.355000005453","sequential-stimulus-presentation-old","38","338564","0.0-13.0-1.2","SS1619739450277","trial","","40","500","8419.355000005453","images/stimuli/spore_stims/simple_14_A_a.gif","images/stimuli/spore_stims/simple_03_A_b.gif","self_paced","","2","simple_dissimilar","images/stimuli/spore_stims/simple_14_A_a.gif","","","","",""
"","null","html-keyboard-response","39","339834","0.0-13.0-0.3","SS1619739450277","","","null","","","","","","<p><img src= images/blank.png width =""600"" height = ""600"" style=""position:fixed;top:50%; left:50%; transform: translate(-50%, -50%); border:5px solid black"">","","","","","","","",""
"","8007.470000011381","sequential-stimulus-presentation-old","40","348355","0.0-13.0-1.3","SS1619739450277","trial","","40","500","8507.47000001138","images/stimuli/spore_stims/simple_14_A_a.gif","images/stimuli/spore_stims/simple_03_A_b.gif","self_paced","","2","simple_dissimilar","images/stimuli/spore_stims/simple_03_A_b.gif","","","","",""
"","null","html-keyboard-response","41","349206","0.0-13.0-0.4","SS1619739450277","","","null","","","","","","<p><img src= images/blank.png width =""600"" height = ""600"" style=""position:fixed;top:50%; left:50%; transform: translate(-50%, -50%); border:5px solid black"">","","","","","","","",""
"","7133.939999999711","sequential-stimulus-presentation-old","42","356857","0.0-13.0-1.4","SS1619739450277","trial","","40","500","7633.939999999711","images/stimuli/spore_stims/simple_14_A_a.gif","images/stimuli/spore_stims/simple_03_A_b.gif","self_paced","","2","simple_dissimilar","images/stimuli/spore_stims/simple_03_A_b.gif","","","","",""
"","3491.325000009965","survey-multi-choice","43","360359","0.0-14.0","SS1619739450277","math_question","","","","","","","","","","","","{""Q0"":""9""}","[0]","9","",""
"","null","html-keyboard-response","44","361195","0.0-15.0-0.0","SS1619739450277","","","null","","","","","","<p><img src= images/blank.png width =""600"" height = ""600"" style=""position:fixed;top:50%; left:50%; transform: translate(-50%, -50%); border:5px solid black"">","","","","","","","",""
"","9132.815000004484","sequential-stimulus-presentation-old","45","370839","0.0-15.0-1.0","SS1619739450277","trial","","40","500","9632.815000004484","images/stimuli/spore_stims/simple_06_A_b.gif","images/stimuli/spore_stims/simple_04_A_a.gif","self_paced","","3","simple_dissimilar","images/stimuli/spore_stims/simple_04_A_a.gif","","","","",""
"","null","html-keyboard-response","46","371991","0.0-15.0-0.1","SS1619739450277","","","null","","","","","","<p><img src= images/blank.png width =""600"" height = ""600"" style=""position:fixed;top:50%; left:50%; transform: translate(-50%, -50%); border:5px solid black"">","","","","","","","",""
"","8080.229999992298","sequential-stimulus-presentation-old","47","380582","0.0-15.0-1.1","SS1619739450277","trial","","40","500","8580.229999992298","images/stimuli/spore_stims/simple_06_A_b.gif","images/stimuli/spore_stims/simple_04_A_a.gif","self_paced","","3","simple_dissimilar","images/stimuli/spore_stims/simple_06_A_b.gif","","","","",""
"","null","html-keyboard-response","48","381581","0.0-15.0-0.2","SS1619739450277","","","null","","","","","","<p><img src= images/blank.png width =""600"" height = ""600"" style=""position:fixed;top:50%; left:50%; transform: translate(-50%, -50%); border:5px solid black"">","","","","","","","",""
"","6314.395000008517","sequential-stimulus-presentation-old","49","388407","0.0-15.0-1.2","SS1619739450277","trial","","40","500","6814.395000008517","images/stimuli/spore_stims/simple_06_A_b.gif","images/stimuli/spore_stims/simple_04_A_a.gif","self_paced","","3","simple_dissimilar","images/stimuli/spore_stims/simple_06_A_b.gif","","","","",""
"","null","html-keyboard-response","50","389326","0.0-15.0-0.3","SS1619739450277","","","null","","","","","","<p><img src= images/blank.png width =""600"" height = ""600"" style=""position:fixed;top:50%; left:50%; transform: translate(-50%, -50%); border:5px solid black"">","","","","","","","",""
"","9287.324999997509","sequential-stimulus-presentation-old","51","399123","0.0-15.0-1.3","SS1619739450277","trial","","40","500","9787.324999997509","images/stimuli/spore_stims/simple_06_A_b.gif","images/stimuli/spore_stims/simple_04_A_a.gif","self_paced","","3","simple_dissimilar","images/stimuli/spore_stims/simple_04_A_a.gif","","","","",""
"","5005.915000001551","survey-multi-choice","52","404140","0.0-16.0","SS1619739450277","math_question","","","","","","","","","","","","{""Q0"":""10""}","[0]","10","",""
"","null","html-keyboard-response","53","405355","0.0-17.0-0.0","SS1619739450277","","","null","","","","","","<p><img src= images/blank.png width =""600"" height = ""600"" style=""position:fixed;top:50%; left:50%; transform: translate(-50%, -50%); border:5px solid black"">","","","","","","","",""
"","1779.7800000116695","sequential-stimulus-presentation-old","54","407657","0.0-17.0-1.0","SS1619739450277","trial","","40","500","2279.7800000116695","images/stimuli/spore_stims/simple_17_A_a.gif","images/stimuli/spore_stims/simple_16_A_b.gif","forced_short","","4","simple_dissimilar","images/stimuli/spore_stims/simple_16_A_b.gif","","","","",""
"","null","html-keyboard-response","55","408923","0.0-17.0-0.1","SS1619739450277","","","null","","","","","","<p><img src= images/blank.png width =""600"" height = ""600"" style=""position:fixed;top:50%; left:50%; transform: translate(-50%, -50%); border:5px solid black"">","","","","","","","",""
"","12392.200000002049","sequential-stimulus-presentation-old","56","421826","0.0-17.0-1.1","SS1619739450277","trial","","40","500","12892.200000002049","images/stimuli/spore_stims/simple_17_A_a.gif","images/stimuli/spore_stims/simple_16_A_b.gif","forced_short","","4","simple_dissimilar","images/stimuli/spore_stims/simple_16_A_b.gif","","","","",""
"","null","html-keyboard-response","57","422744","0.0-17.0-0.2","SS1619739450277","","","null","","","","","","<p><img src= images/blank.png width =""600"" height = ""600"" style=""position:fixed;top:50%; left:50%; transform: translate(-50%, -50%); border:5px solid black"">","","","","","","","",""
"","8307.849999997416","sequential-stimulus-presentation-old","58","431585","0.0-17.0-1.2","SS1619739450277","trial","","40","500","8807.849999997416","images/stimuli/spore_stims/simple_17_A_a.gif","images/stimuli/spore_stims/simple_16_A_b.gif","forced_short","","4","simple_dissimilar","images/stimuli/spore_stims/simple_17_A_a.gif","","","","",""
"","null","html-keyboard-response","59","432770","0.0-17.0-0.3","SS1619739450277","","","null","","","","","","<p><img src= images/blank.png width =""600"" height = ""600"" style=""position:fixed;top:50%; left:50%; transform: translate(-50%, -50%); border:5px solid black"">","","","","","","","",""
"","15925.730000002659","sequential-stimulus-presentation-old","60","449218","0.0-17.0-1.3","SS1619739450277","trial","","40","500","16425.73000000266","images/stimuli/spore_stims/simple_17_A_a.gif","images/stimuli/spore_stims/simple_16_A_b.gif","forced_short","","4","simple_dissimilar","images/stimuli/spore_stims/simple_17_A_a.gif","","","","",""
"","4582.695000004605","survey-multi-choice","61","453813","0.0-18.0","SS1619739450277","math_question","","","","","","","","","","","","{""Q0"":""4""}","[0]","4","",""
"","null","html-keyboard-response","62","454698","0.0-19.0-0.0","SS1619739450277","","","null","","","","","","<p><img src= images/blank.png width =""600"" height = ""600"" style=""position:fixed;top:50%; left:50%; transform: translate(-50%, -50%); border:5px solid black"">","","","","","","","",""
"","1804.2500000010477","sequential-stimulus-presentation-old","63","471519","0.0-19.0-1.0","SS1619739450277","trial","","40","500","2304.2500000010477","images/stimuli/spore_stims/simple_18_A_a.gif","images/stimuli/spore_stims/simple_04_A_b.gif","forced_long","","5","simple_dissimilar","images/stimuli/spore_stims/simple_04_A_b.gif","","","","",""
"","null","html-keyboard-response","64","472555","0.0-19.0-0.1","SS1619739450277","","","null","","","","","","<p><img src= images/blank.png width =""600"" height = ""600"" style=""position:fixed;top:50%; left:50%; transform: translate(-50%, -50%); border:5px solid black"">","","","","","","","",""
"","22910.25499999523","sequential-stimulus-presentation-old","65","495988","0.0-19.0-1.1","SS1619739450277","trial","","40","500","23410.25499999523","images/stimuli/spore_stims/simple_18_A_a.gif","images/stimuli/spore_stims/simple_04_A_b.gif","forced_long","","5","simple_dissimilar","images/stimuli/spore_stims/simple_18_A_a.gif","","","","",""
"","null","html-keyboard-response","66","496876","0.0-19.0-0.2","SS1619739450277","","","null","","","","","","<p><img src= images/blank.png width =""600"" height = ""600"" style=""position:fixed;top:50%; left:50%; transform: translate(-50%, -50%); border:5px solid black"">","","","","","","","",""
"","22366.835000007995","sequential-stimulus-presentation-old","67","519767","0.0-19.0-1.2","SS1619739450277","trial","","40","500","22866.835000007995","images/stimuli/spore_stims/simple_18_A_a.gif","images/stimuli/spore_stims/simple_04_A_b.gif","forced_long","","5","simple_dissimilar","images/stimuli/spore_stims/simple_04_A_b.gif","","","","",""
"","null","html-keyboard-response","68","521010","0.0-19.0-0.3","SS1619739450277","","","null","","","","","","<p><img src= images/blank.png width =""600"" height = ""600"" style=""position:fixed;top:50%; left:50%; transform: translate(-50%, -50%); border:5px solid black"">","","","","","","","",""
"","17811.965000000782","sequential-stimulus-presentation-old","69","539350","0.0-19.0-1.3","SS1619739450277","trial","","40","500","18311.965000000782","images/stimuli/spore_stims/simple_18_A_a.gif","images/stimuli/spore_stims/simple_04_A_b.gif","forced_long","","5","simple_dissimilar","images/stimuli/spore_stims/simple_18_A_a.gif","","","","",""
"","4074.2750000063097","survey-multi-choice","70","543443","0.0-20.0","SS1619739450277","math_question","","","","","","","","","","","","{""Q0"":""18""}","[0]","18","",""
"","null","html-keyboard-response","71","544703","0.0-21.0-0.0","SS1619739450277","","","null","","","","","","<p><img src= images/blank.png width =""600"" height = ""600"" style=""position:fixed;top:50%; left:50%; transform: translate(-50%, -50%); border:5px solid black"">","","","","","","","",""
"","1889.1350000048988","sequential-stimulus-presentation-old","72","561605","0.0-21.0-1.0","SS1619739450277","trial","","40","500","2389.1350000048988","images/stimuli/spore_stims/simple_01_A_b.gif","images/stimuli/spore_stims/simple_06_A_a.gif","forced_long","","6","simple_dissimilar","images/stimuli/spore_stims/simple_06_A_a.gif","","","","",""
"","null","html-keyboard-response","73","562575","0.0-21.0-0.1","SS1619739450277","","","null","","","","","","<p><img src= images/blank.png width =""600"" height = ""600"" style=""position:fixed;top:50%; left:50%; transform: translate(-50%, -50%); border:5px solid black"">","","","","","","","",""
"","17537.9099999991","sequential-stimulus-presentation-old","74","580635","0.0-21.0-1.1","SS1619739450277","trial","","40","500","18037.9099999991","images/stimuli/spore_stims/simple_01_A_b.gif","images/stimuli/spore_stims/simple_06_A_a.gif","forced_long","","6","simple_dissimilar","images/stimuli/spore_stims/simple_06_A_a.gif","","","","",""
"","null","html-keyboard-response","75","581655","0.0-21.0-0.2","SS1619739450277","","","null","","","","","","<p><img src= images/blank.png width =""600"" height = ""600"" style=""position:fixed;top:50%; left:50%; transform: translate(-50%, -50%); border:5px solid black"">","","","","","","","",""
"","16374.395000006189","sequential-stimulus-presentation-old","76","598555","0.0-21.0-1.2","SS1619739450277","trial","","40","500","16874.39500000619","images/stimuli/spore_stims/simple_01_A_b.gif","images/stimuli/spore_stims/simple_06_A_a.gif","forced_long","","6","simple_dissimilar","images/stimuli/spore_stims/simple_06_A_a.gif","","","","",""
"","null","html-keyboard-response","77","599638","0.0-21.0-0.3","SS1619739450277","","","null","","","","","","<p><img src= images/blank.png width =""600"" height = ""600"" style=""position:fixed;top:50%; left:50%; transform: translate(-50%, -50%); border:5px solid black"">","","","","","","","",""
"","15143.739999999525","sequential-stimulus-presentation-old","78","615294","0.0-21.0-1.3","SS1619739450277","trial","","40","500","15643.739999999525","images/stimuli/spore_stims/simple_01_A_b.gif","images/stimuli/spore_stims/simple_06_A_a.gif","forced_long","","6","simple_dissimilar","images/stimuli/spore_stims/simple_06_A_a.gif","","","","",""
"","null","html-keyboard-response","79","616371","0.0-21.0-0.4","SS1619739450277","","","null","","","","","","<p><img src= images/blank.png width =""600"" height = ""600"" style=""position:fixed;top:50%; left:50%; transform: translate(-50%, -50%); border:5px solid black"">","","","","","","","",""
"","17155.729999998584","sequential-stimulus-presentation-old","80","634040","0.0-21.0-1.4","SS1619739450277","trial","","40","500","17655.729999998584","images/stimuli/spore_stims/simple_01_A_b.gif","images/stimuli/spore_stims/simple_06_A_a.gif","forced_long","","6","simple_dissimilar","images/stimuli/spore_stims/simple_06_A_a.gif","","","","",""
"","null","html-keyboard-response","81","634944","0.0-21.0-0.5","SS1619739450277","","","null","","","","","","<p><img src= images/blank.png width =""600"" height = ""600"" style=""position:fixed;top:50%; left:50%; transform: translate(-50%, -50%); border:5px solid black"">","","","","","","","",""
"","17160.900000002584","sequential-stimulus-presentation-old","82","652621","0.0-21.0-1.5","SS1619739450277","trial","","40","500","17660.900000002584","images/stimuli/spore_stims/simple_01_A_b.gif","images/stimuli/spore_stims/simple_06_A_a.gif","forced_long","","6","simple_dissimilar","images/stimuli/spore_stims/simple_06_A_a.gif","","","","",""
"","4265.404999998282","survey-multi-choice","83","656894","0.0-22.0","SS1619739450277","math_question","","","","","","","","","","","","{""Q0"":""10""}","[0]","10","",""
"","null","html-keyboard-response","84","658173","0.0-23.0-0.0","SS1619739450277","","","null","","","","","","<p><img src= images/blank.png width =""600"" height = ""600"" style=""position:fixed;top:50%; left:50%; transform: translate(-50%, -50%); border:5px solid black"">","","","","","","","",""
"","2251.845000006142","sequential-stimulus-presentation-old","85","660942","0.0-23.0-1.0","SS1619739450277","trial","","40","500","2751.845000006142","images/stimuli/spore_stims/complex_01_A_b.gif","images/stimuli/spore_stims/complex_12_A_a.gif","forced_short","","7","complex_dissimilar","images/stimuli/spore_stims/complex_12_A_a.gif","","","","",""
"","null","html-keyboard-response","86","661918","0.0-23.0-0.1","SS1619739450277","","","null","","","","","","<p><img src= images/blank.png width =""600"" height = ""600"" style=""position:fixed;top:50%; left:50%; transform: translate(-50%, -50%); border:5px solid black"">","","","","","","","",""
"","12104.149999999208","sequential-stimulus-presentation-old","87","674535","0.0-23.0-1.1","SS1619739450277","trial","","40","500","12604.149999999208","images/stimuli/spore_stims/complex_01_A_b.gif","images/stimuli/spore_stims/complex_12_A_a.gif","forced_short","","7","complex_dissimilar","images/stimuli/spore_stims/complex_12_A_a.gif","","","","",""
"","null","html-keyboard-response","88","675390","0.0-23.0-0.2","SS1619739450277","","","null","","","","","","<p><img src= images/blank.png width =""600"" height = ""600"" style=""position:fixed;top:50%; left:50%; transform: translate(-50%, -50%); border:5px solid black"">","","","","","","","",""
"","14242.03999999736","sequential-stimulus-presentation-old","89","690145","0.0-23.0-1.2","SS1619739450277","trial","","40","500","14742.03999999736","images/stimuli/spore_stims/complex_01_A_b.gif","images/stimuli/spore_stims/complex_12_A_a.gif","forced_short","","7","complex_dissimilar","images/stimuli/spore_stims/complex_12_A_a.gif","","","","",""
"","null","html-keyboard-response","90","691116","0.0-23.0-0.3","SS1619739450277","","","null","","","","","","<p><img src= images/blank.png width =""600"" height = ""600"" style=""position:fixed;top:50%; left:50%; transform: translate(-50%, -50%); border:5px solid black"">","","","","","","","",""
"","12663.934999989579","sequential-stimulus-presentation-old","91","704301","0.0-23.0-1.3","SS1619739450277","trial","","40","500","13163.934999989579","images/stimuli/spore_stims/complex_01_A_b.gif","images/stimuli/spore_stims/complex_12_A_a.gif","forced_short","","7","complex_dissimilar","images/stimuli/spore_stims/complex_12_A_a.gif","","","","",""
"","null","html-keyboard-response","92","705289","0.0-23.0-0.4","SS1619739450277","","","null","","","","","","<p><img src= images/blank.png width =""600"" height = ""600"" style=""position:fixed;top:50%; left:50%; transform: translate(-50%, -50%); border:5px solid black"">","","","","","","","",""
"","12161.840000000666","sequential-stimulus-presentation-old","93","717965","0.0-23.0-1.4","SS1619739450277","trial","","40","500","12661.840000000666","images/stimuli/spore_stims/complex_01_A_b.gif","images/stimuli/spore_stims/complex_12_A_a.gif","forced_short","","7","complex_dissimilar","images/stimuli/spore_stims/complex_01_A_b.gif","","","","",""
"","null","html-keyboard-response","94","718933","0.0-23.0-0.5","SS1619739450277","","","null","","","","","","<p><img src= images/blank.png width =""600"" height = ""600"" style=""position:fixed;top:50%; left:50%; transform: translate(-50%, -50%); border:5px solid black"">","","","","","","","",""
"","12250.27499999851","sequential-stimulus-presentation-old","95","731697","0.0-23.0-1.5","SS1619739450277","trial","","40","500","12750.27499999851","images/stimuli/spore_stims/complex_01_A_b.gif","images/stimuli/spore_stims/complex_12_A_a.gif","forced_short","","7","complex_dissimilar","images/stimuli/spore_stims/complex_01_A_b.gif","","","","",""
"","3707.255000001169","survey-multi-choice","96","735416","0.0-24.0","SS1619739450277","math_question","","","","","","","","","","","","{""Q0"":""5""}","[0]","5","",""
"","null","html-keyboard-response","97","736494","0.0-25.0-0.0","SS1619739450277","","","null","","","","","","<p><img src= images/blank.png width =""600"" height = ""600"" style=""position:fixed;top:50%; left:50%; transform: translate(-50%, -50%); border:5px solid black"">","","","","","","","",""
"","12295.169999997597","sequential-stimulus-presentation-old","98","749302","0.0-25.0-1.0","SS1619739450277","trial","","40","500","12795.169999997597","images/stimuli/spore_stims/complex_07_A_b.gif","images/stimuli/spore_stims/complex_06_A_a.gif","self_paced","","8","complex_dissimilar","images/stimuli/spore_stims/complex_06_A_a.gif","","","","",""
"","null","html-keyboard-response","99","750206","0.0-25.0-0.1","SS1619739450277","","","null","","","","","","<p><img src= images/blank.png width =""600"" height = ""600"" style=""position:fixed;top:50%; left:50%; transform: translate(-50%, -50%); border:5px solid black"">","","","","","","","",""
"","10492.010000001756","sequential-stimulus-presentation-old","100","761211","0.0-25.0-1.1","SS1619739450277","trial","","40","500","10992.010000001756","images/stimuli/spore_stims/complex_07_A_b.gif","images/stimuli/spore_stims/complex_06_A_a.gif","self_paced","","8","complex_dissimilar","images/stimuli/spore_stims/complex_06_A_a.gif","","","","",""
"","null","html-keyboard-response","101","762478","0.0-25.0-0.2","SS1619739450277","","","null","","","","","","<p><img src= images/blank.png width =""600"" height = ""600"" style=""position:fixed;top:50%; left:50%; transform: translate(-50%, -50%); border:5px solid black"">","","","","","","","",""
"","15847.495000009076","sequential-stimulus-presentation-old","102","778839","0.0-25.0-1.2","SS1619739450277","trial","","40","500","16347.495000009076","images/stimuli/spore_stims/complex_07_A_b.gif","images/stimuli/spore_stims/complex_06_A_a.gif","self_paced","","8","complex_dissimilar","images/stimuli/spore_stims/complex_06_A_a.gif","","","","",""
"","null","html-keyboard-response","103","780132","0.0-25.0-0.3","SS1619739450277","","","null","","","","","","<p><img src= images/blank.png width =""600"" height = ""600"" style=""position:fixed;top:50%; left:50%; transform: translate(-50%, -50%); border:5px solid black"">","","","","","","","",""
"","11172.38499999803","sequential-stimulus-presentation-old","104","791825","0.0-25.0-1.3","SS1619739450277","trial","","40","500","11672.38499999803","images/stimuli/spore_stims/complex_07_A_b.gif","images/stimuli/spore_stims/complex_06_A_a.gif","self_paced","","8","complex_dissimilar","images/stimuli/spore_stims/complex_07_A_b.gif","","","","",""
"","null","html-keyboard-response","105","793049","0.0-25.0-0.4","SS1619739450277","","","null","","","","","","<p><img src= images/blank.png width =""600"" height = ""600"" style=""position:fixed;top:50%; left:50%; transform: translate(-50%, -50%); border:5px solid black"">","","","","","","","",""
"","10889.915000007022","sequential-stimulus-presentation-old","106","804458","0.0-25.0-1.4","SS1619739450277","trial","","40","500","11389.915000007022","images/stimuli/spore_stims/complex_07_A_b.gif","images/stimuli/spore_stims/complex_06_A_a.gif","self_paced","","8","complex_dissimilar","images/stimuli/spore_stims/complex_06_A_a.gif","","","","",""
"","4271.905000001425","survey-multi-choice","107","808755","0.0-26.0","SS1619739450277","math_question","","","","","","","","","","","","{""Q0"":""11""}","[0]","11","",""
"","null","html-keyboard-response","108","809787","0.0-27.0-0.0","SS1619739450277","","","null","","","","","","<p><img src= images/blank.png width =""600"" height = ""600"" style=""position:fixed;top:50%; left:50%; transform: translate(-50%, -50%); border:5px solid black"">","","","","","","","",""
"","13433.819999991101","sequential-stimulus-presentation-old","109","823737","0.0-27.0-1.0","SS1619739450277","trial","","40","500","13933.819999991101","images/stimuli/spore_stims/complex_03_A_a.gif","images/stimuli/spore_stims/complex_10_A_b.gif","self_paced","","9","complex_dissimilar","images/stimuli/spore_stims/complex_10_A_b.gif","","","","",""
"","null","html-keyboard-response","110","824576","0.0-27.0-0.1","SS1619739450277","","","null","","","","","","<p><img src= images/blank.png width =""600"" height = ""600"" style=""position:fixed;top:50%; left:50%; transform: translate(-50%, -50%); border:5px solid black"">","","","","","","","",""
"","18071.664999995846","sequential-stimulus-presentation-old","111","843176","0.0-27.0-1.1","SS1619739450277","trial","","40","500","18571.664999995846","images/stimuli/spore_stims/complex_03_A_a.gif","images/stimuli/spore_stims/complex_10_A_b.gif","self_paced","","9","complex_dissimilar","images/stimuli/spore_stims/complex_10_A_b.gif","","","","",""
"","null","html-keyboard-response","112","844387","0.0-27.0-0.2","SS1619739450277","","","null","","","","","","<p><img src= images/blank.png width =""600"" height = ""600"" style=""position:fixed;top:50%; left:50%; transform: translate(-50%, -50%); border:5px solid black"">","","","","","","","",""
"","15445.454999993672","sequential-stimulus-presentation-old","113","860346","0.0-27.0-1.2","SS1619739450277","trial","","40","500","15945.454999993672","images/stimuli/spore_stims/complex_03_A_a.gif","images/stimuli/spore_stims/complex_10_A_b.gif","self_paced","","9","complex_dissimilar","images/stimuli/spore_stims/complex_03_A_a.gif","","","","",""
"","null","html-keyboard-response","114","861230","0.0-27.0-0.3","SS1619739450277","","","null","","","","","","<p><img src= images/blank.png width =""600"" height = ""600"" style=""position:fixed;top:50%; left:50%; transform: translate(-50%, -50%); border:5px solid black"">","","","","","","","",""
"","14672.21000000427","sequential-stimulus-presentation-old","115","876419","0.0-27.0-1.3","SS1619739450277","trial","","40","500","15172.21000000427","images/stimuli/spore_stims/complex_03_A_a.gif","images/stimuli/spore_stims/complex_10_A_b.gif","self_paced","","9","complex_dissimilar","images/stimuli/spore_stims/complex_10_A_b.gif","","","","",""
"","null","html-keyboard-response","116","877373","0.0-27.0-0.4","SS1619739450277","","","null","","","","","","<p><img src= images/blank.png width =""600"" height = ""600"" style=""position:fixed;top:50%; left:50%; transform: translate(-50%, -50%); border:5px solid black"">","","","","","","","",""
"","12685.859999997774","sequential-stimulus-presentation-old","117","890576","0.0-27.0-1.4","SS1619739450277","trial","","40","500","13185.859999997774","images/stimuli/spore_stims/complex_03_A_a.gif","images/stimuli/spore_stims/complex_10_A_b.gif","self_paced","","9","complex_dissimilar","images/stimuli/spore_stims/complex_03_A_a.gif","","","","",""
"","6906.810000000405","survey-multi-choice","118","897496","0.0-28.0","SS1619739450277","math_question","","","","","","","","","","","","{""Q0"":""16""}","[0]","16","",""
"","null","html-keyboard-response","119","898695","0.0-29.0-0.0","SS1619739450277","","","null","","","","","","<p><img src= images/blank.png width =""600"" height = ""600"" style=""position:fixed;top:50%; left:50%; transform: translate(-50%, -50%); border:5px solid black"">","","","","","","","",""
"","1340.3649999963818","sequential-stimulus-presentation-old","120","900547","0.0-29.0-1.0","SS1619739450277","trial","","40","500","1840.3649999963818","images/stimuli/spore_stims/simple_09_A_b.gif","images/stimuli/spore_stims/simple_03_A_a.gif","forced_short","","10","simple_dissimilar","images/stimuli/spore_stims/simple_03_A_a.gif","","","","",""
"","null","html-keyboard-response","121","901704","0.0-29.0-0.1","SS1619739450277","","","null","","","","","","<p><img src= images/blank.png width =""600"" height = ""600"" style=""position:fixed;top:50%; left:50%; transform: translate(-50%, -50%); border:5px solid black"">","","","","","","","",""
"","11629.379999998491","sequential-stimulus-presentation-old","122","913848","0.0-29.0-1.1","SS1619739450277","trial","","40","500","12129.379999998491","images/stimuli/spore_stims/simple_09_A_b.gif","images/stimuli/spore_stims/simple_03_A_a.gif","forced_short","","10","simple_dissimilar","images/stimuli/spore_stims/simple_03_A_a.gif","","","","",""
"","null","html-keyboard-response","123","914750","0.0-29.0-0.2","SS1619739450277","","","null","","","","","","<p><img src= images/blank.png width =""600"" height = ""600"" style=""position:fixed;top:50%; left:50%; transform: translate(-50%, -50%); border:5px solid black"">","","","","","","","",""
"","9850.63000000082","sequential-stimulus-presentation-old","124","925135","0.0-29.0-1.2","SS1619739450277","trial","","40","500","10350.63000000082","images/stimuli/spore_stims/simple_09_A_b.gif","images/stimuli/spore_stims/simple_03_A_a.gif","forced_short","","10","simple_dissimilar","images/stimuli/spore_stims/simple_03_A_a.gif","","","","",""
"","null","html-keyboard-response","125","926450","0.0-29.0-0.3","SS1619739450277","","","null","","","","","","<p><img src= images/blank.png width =""600"" height = ""600"" style=""position:fixed;top:50%; left:50%; transform: translate(-50%, -50%); border:5px solid black"">","","","","","","","",""
"","10664.264999999432","sequential-stimulus-presentation-old","126","937629","0.0-29.0-1.3","SS1619739450277","trial","","40","500","11164.264999999432","images/stimuli/spore_stims/simple_09_A_b.gif","images/stimuli/spore_stims/simple_03_A_a.gif","forced_short","","10","simple_dissimilar","images/stimuli/spore_stims/simple_03_A_a.gif","","","","",""
"","null","html-keyboard-response","127","938555","0.0-29.0-0.4","SS1619739450277","","","null","","","","","","<p><img src= images/blank.png width =""600"" height = ""600"" style=""position:fixed;top:50%; left:50%; transform: translate(-50%, -50%); border:5px solid black"">","","","","","","","",""
"","13393.570000000182","sequential-stimulus-presentation-old","128","952466","0.0-29.0-1.4","SS1619739450277","trial","","40","500","13893.570000000182","images/stimuli/spore_stims/simple_09_A_b.gif","images/stimuli/spore_stims/simple_03_A_a.gif","forced_short","","10","simple_dissimilar","images/stimuli/spore_stims/simple_09_A_b.gif","","","","",""
"","4262.900000001537","survey-multi-choice","129","956742","0.0-30.0","SS1619739450277","math_question","","","","","","","","","","","","{""Q0"":""6""}","[0]","6","",""
"","null","html-keyboard-response","130","957895","0.0-31.0-0.0","SS1619739450277","","","null","","","","","","<p><img src= images/blank.png width =""600"" height = ""600"" style=""position:fixed;top:50%; left:50%; transform: translate(-50%, -50%); border:5px solid black"">","","","","","","","",""
"","1125.6500000017695","sequential-stimulus-presentation-old","131","974073","0.0-31.0-1.0","SS1619739450277","trial","","40","500","1625.6500000017695","images/stimuli/spore_stims/complex_09_A_b.gif","images/stimuli/spore_stims/complex_01_A_a.gif","forced_long","","11","complex_dissimilar","images/stimuli/spore_stims/complex_01_A_a.gif","","","","",""
"","null","html-keyboard-response","132","975309","0.0-31.0-0.1","SS1619739450277","","","null","","","","","","<p><img src= images/blank.png width =""600"" height = ""600"" style=""position:fixed;top:50%; left:50%; transform: translate(-50%, -50%); border:5px solid black"">","","","","","","","",""
"","9148.165000005974","sequential-stimulus-presentation-old","133","984978","0.0-31.0-1.1","SS1619739450277","trial","","40","500","9648.165000005974","images/stimuli/spore_stims/complex_09_A_b.gif","images/stimuli/spore_stims/complex_01_A_a.gif","forced_long","","11","complex_dissimilar","images/stimuli/spore_stims/complex_09_A_b.gif","","","","",""
"","null","html-keyboard-response","134","985812","0.0-31.0-0.2","SS1619739450277","","","null","","","","","","<p><img src= images/blank.png width =""600"" height = ""600"" style=""position:fixed;top:50%; left:50%; transform: translate(-50%, -50%); border:5px solid black"">","","","","","","","",""
"","9034.865000008722","sequential-stimulus-presentation-old","135","995361","0.0-31.0-1.2","SS1619739450277","trial","","40","500","9534.865000008722","images/stimuli/spore_stims/complex_09_A_b.gif","images/stimuli/spore_stims/complex_01_A_a.gif","forced_long","","11","complex_dissimilar","images/stimuli/spore_stims/complex_01_A_a.gif","","","","",""
"","null","html-keyboard-response","136","996518","0.0-31.0-0.3","SS1619739450277","","","null","","","","","","<p><img src= images/blank.png width =""600"" height = ""600"" style=""position:fixed;top:50%; left:50%; transform: translate(-50%, -50%); border:5px solid black"">","","","","","","","",""
"","5214.330000002519","sequential-stimulus-presentation-old","137","1002248","0.0-31.0-1.3","SS1619739450277","trial","","40","500","5714.330000002519","images/stimuli/spore_stims/complex_09_A_b.gif","images/stimuli/spore_stims/complex_01_A_a.gif","forced_long","","11","complex_dissimilar","images/stimuli/spore_stims/complex_09_A_b.gif","","","","",""
"[{""page_index"":0,""viewing_time"":5552.345000003697}]","5553.299999999581","instructions","138","1007810","0.0-32.0","SS1619739450277","instructions","","","","","","","","","","","","","","","",""
"","6301.959999997052","survey-likert","139","1014130","0.0-33.0","SS1619739450277","similarity_question","","","","","","","","","","","","{""Q0"":1}","[0]","","images/stimuli/spore_stims/simple_06_A_b.gif","images/stimuli/spore_stims/simple_04_A_a.gif"
"","6276.725000003353","survey-likert","140","1020423","0.0-34.0","SS1619739450277","similarity_question","","","","","","","","","","","","{""Q0"":1}","[0]","","images/stimuli/spore_stims/complex_16_A_a.gif","images/stimuli/spore_stims/complex_02_A_b.gif"
"","8428.679999997257","survey-likert","141","1028873","0.0-35.0","SS1619739450277","similarity_question","","","","","","","","","","","","{""Q0"":2}","[0]","","images/stimuli/spore_stims/simple_03_A_b.gif","images/stimuli/spore_stims/simple_14_A_a.gif"
"","7073.6450000111945","survey-likert","142","1035965","0.0-36.0","SS1619739450277","similarity_question","","","","","","","","","","","","{""Q0"":5}","[0]","","images/stimuli/spore_stims/simple_06_A_a.gif","images/stimuli/spore_stims/simple_01_A_b.gif"
"","7684.145000006538","survey-likert","143","1043666","0.0-37.0","SS1619739450277","similarity_question","","","","","","","","","","","","{""Q0"":1}","[0]","","images/stimuli/spore_stims/complex_10_A_b.gif","images/stimuli/spore_stims/complex_03_A_a.gif"
"","5285.770000002114","survey-likert","144","1048968","0.0-38.0","SS1619739450277","similarity_question","","","","","","","","","","","","{""Q0"":0}","[0]","","images/stimuli/spore_stims/complex_15_A_b.gif","images/stimuli/spore_stims/complex_20_A_a.gif"
"","5071.039999995148","survey-likert","145","1054057","0.0-39.0","SS1619739450277","similarity_question","","","","","","","","","","","","{""Q0"":4}","[0]","","images/stimuli/spore_stims/simple_03_A_a.gif","images/stimuli/spore_stims/simple_09_A_b.gif"
"","5457.020000001648","survey-likert","146","1059531","0.0-40.0","SS1619739450277","similarity_question","","","","","","","","","","","","{""Q0"":0}","[0]","","images/stimuli/spore_stims/complex_06_A_a.gif","images/stimuli/spore_stims/complex_07_A_b.gif"
"","7237.600000007544","survey-likert","147","1066785","0.0-41.0","SS1619739450277","similarity_question","","","","","","","","","","","","{""Q0"":3}","[0]","","images/stimuli/spore_stims/simple_17_A_a.gif","images/stimuli/spore_stims/simple_16_A_b.gif"
"","5058.099999994738","survey-likert","148","1071859","0.0-42.0","SS1619739450277","similarity_question","","","","","","","","","","","","{""Q0"":1}","[0]","","images/stimuli/spore_stims/complex_09_A_b.gif","images/stimuli/spore_stims/complex_01_A_a.gif"
"","7490.885000006761","survey-likert","149","1079368","0.0-43.0","SS1619739450277","similarity_question","","","","","","","","","","","","{""Q0"":1}","[0]","","images/stimuli/spore_stims/complex_12_A_a.gif","images/stimuli/spore_stims/complex_01_A_b.gif"
"","5649.23000000976","survey-likert","150","1085038","0.0-44.0","SS1619739450277","similarity_question","","","","","","","","","","","","{""Q0"":4}","[0]","","images/stimuli/spore_stims/simple_18_A_a.gif","images/stimuli/spore_stims/simple_04_A_b.gif"
"[{""page_index"":0,""viewing_time"":6230.575000008568}]","6232.295000008773","instructions","151","1091292","0.0-45.0","SS1619739450277","instructions","","","","","","","","","","","","","","","",""
"","14393.284999998286","survey-likert","152","1105706","0.0-46.0","SS1619739450277","","","","","","","","","images/stimuli/spore_stims/complex_20_A_a.gif","","","","{""Q0"":4}","[0]","","",""
"","6766.770000001881","survey-likert","153","1112490","0.0-47.0","SS1619739450277","","","","","","","","","images/stimuli/spore_stims/simple_17_A_a.gif","","","","{""Q0"":1}","[0]","","",""
"","3794.8549999999814","survey-likert","154","1116305","0.0-48.0","SS1619739450277","","","","","","","","","images/stimuli/spore_stims/simple_04_A_a.gif","","","","{""Q0"":1}","[0]","","",""
"","4540.539999987464","survey-likert","155","1120863","0.0-49.0","SS1619739450277","","","","","","","","","images/stimuli/spore_stims/complex_10_A_b.gif","","","","{""Q0"":4}","[0]","","",""
"","3685.750000004191","survey-likert","156","1124569","0.0-50.0","SS1619739450277","","","","","","","","","images/stimuli/spore_stims/simple_09_A_b.gif","","","","{""Q0"":0}","[0]","","",""
"","9192.070000004489","survey-likert","157","1133782","0.0-51.0","SS1619739450277","","","","","","","","","images/stimuli/spore_stims/complex_02_A_b.gif","","","","{""Q0"":3}","[0]","","",""
"","5570.095000002999","survey-likert","158","1139392","0.0-52.0","SS1619739450277","","","","","","","","","images/stimuli/spore_stims/complex_12_A_a.gif","","","","{""Q0"":5}","[0]","","",""
"","8331.64999999269","survey-likert","159","1147748","0.0-53.0","SS1619739450277","","","","","","","","","images/stimuli/spore_stims/simple_18_A_a.gif","","","","{""Q0"":2}","[0]","","",""
"","4935.100000002421","survey-likert","160","1152720","0.0-54.0","SS1619739450277","","","","","","","","","images/stimuli/spore_stims/complex_06_A_a.gif","","","","{""Q0"":5}","[0]","","",""
"","3999.645000003511","survey-likert","161","1156737","0.0-55.0","SS1619739450277","","","","","","","","","images/stimuli/spore_stims/complex_09_A_b.gif","","","","{""Q0"":5}","[0]","","",""
"","3504.404999999795","survey-likert","162","1160269","0.0-56.0","SS1619739450277","","","","","","","","","images/stimuli/spore_stims/simple_01_A_b.gif","","","","{""Q0"":0}","[0]","","",""
"","3828.7649999982677","survey-likert","163","1164117","0.0-57.0","SS1619739450277","","","","","","","","","images/stimuli/spore_stims/simple_14_A_a.gif","","","","{""Q0"":1}","[0]","","",""
"[{""page_index"":0,""viewing_time"":3828.9850000003353}]","3834.170000002021","instructions","164","1167987","0.0-58.0","SS1619739450277","instructions","","","","","","","","","","","","","","","",""
"","2781.6600000075996","demog-age","165","1170791","0.0-59.0","SS1619739450277","","","","","","","","","","","","","{""age"":""25""}","","","",""
"","9052.045000003884","demog-ethnic-US","166","1179884","0.0-60.0","SS1619739450277","","","","","","","","","","","","","{""ethnicity"":[""Hispanic or Latino""]}","[0]","","",""
"","13384.300000005402","demog-gender-and-education","167","1193291","0.0-61.0","SS1619739450277","","","","","","","","","","","","","{""gender"":""Female"",""education"":""Bachelor's Degree""}","[0,1]","","",""
"","16574.29499999853","survey-text","168","1209893","0.0-62.0","SS1619739450277","feedback","","","","","","","","","","","","{""Q0"":""none""}","","","",""
"[{""page_index"":0,""viewing_time"":3938.4900000004563}]","3941.415000008419","instructions","169","1213850","0.0-63.0","SS1619739450277","instructions","","","","","","","","","","","","","","","",""
