"view_history","rt","trial_type","trial_index","time_elapsed","internal_node_id","subject","stimulus_type","trial_stimulus","key_press","minimum_viewing_duration","trial_looking_time","block_deviant","block_background","exposure_type","stimulus","block_number","block_type","stimulus_displayed","responses","question_order","math_correct_answer","stimulus_left","stimulus_right"
"[{""page_index"":0,""viewing_time"":5157}]","5159","instructions","0","5159","0.0-0.0","SS1619739156020","","","","","","","","","","","","","","","","",""
"[{""page_index"":0,""viewing_time"":17139},{""page_index"":1,""viewing_time"":5447}]","22586","instructions","1","29747","0.0-1.0","SS1619739156020","instructions","","","","","","","","","","","","","","","",""
"","6347","sequential-stimulus-presentation-old","2","36595","0.0-2.0","SS1619739156020","","","40","500","6847","null","null","self_paced","","","","","","","","",""
"","5597","sequential-stimulus-presentation-old","3","42693","0.0-3.0","SS1619739156020","","","40","500","6097","null","null","self_paced","","","","","","","","",""
"[{""page_index"":0,""viewing_time"":18512}]","18512","instructions","4","61205","0.0-4.0","SS1619739156020","instructions","","","","","","","","","","","","","","","",""
"","1469","sequential-stimulus-presentation-old","5","77676","0.0-5.0","SS1619739156020","","","40","500","1969","null","null","forced_long","","","","","","","","",""
"","3786","sequential-stimulus-presentation-old","6","81964","0.0-6.0","SS1619739156020","","","40","500","4286","null","null","forced_long","","","","","","","","",""
"[{""page_index"":0,""viewing_time"":4829}]","4829","instructions","7","86793","0.0-7.0","SS1619739156020","instructions","","","","","","","","","","","","","","","",""
"[{""page_index"":0,""viewing_time"":11172},{""page_index"":1,""viewing_time"":18050},{""page_index"":2,""viewing_time"":6920},{""page_index"":3,""viewing_time"":2002},{""page_index"":4,""viewing_time"":1516}]","39660","instructions","8","126455","0.0-8.0","SS1619739156020","instructions","","","","","","","","","","","","","","","",""
"","null","html-keyboard-response","9","127331","0.0-9.0-0.0","SS1619739156020","","","null","","","","","","<p><img src= images/blank.png width =""600"" height = ""600"" style=""position:fixed;top:50%; left:50%; transform: translate(-50%, -50%); border:5px solid black"">","","","","","","","",""
"","3965","sequential-stimulus-presentation-old","10","131799","0.0-9.0-1.0","SS1619739156020","trial","","40","500","4465","images/stimuli/spore_stims/simple_11_A_a.gif","images/stimuli/spore_stims/simple_04_A_b.gif","self_paced","","0","simple_dissimilar","images/stimuli/spore_stims/simple_04_A_b.gif","","","","",""
"","null","html-keyboard-response","11","132709","0.0-9.0-0.1","SS1619739156020","","","null","","","","","","<p><img src= images/blank.png width =""600"" height = ""600"" style=""position:fixed;top:50%; left:50%; transform: translate(-50%, -50%); border:5px solid black"">","","","","","","","",""
"","2963","sequential-stimulus-presentation-old","12","136174","0.0-9.0-1.1","SS1619739156020","trial","","40","500","3463","images/stimuli/spore_stims/simple_11_A_a.gif","images/stimuli/spore_stims/simple_04_A_b.gif","self_paced","","0","simple_dissimilar","images/stimuli/spore_stims/simple_04_A_b.gif","","","","",""
"","null","html-keyboard-response","13","137001","0.0-9.0-0.2","SS1619739156020","","","null","","","","","","<p><img src= images/blank.png width =""600"" height = ""600"" style=""position:fixed;top:50%; left:50%; transform: translate(-50%, -50%); border:5px solid black"">","","","","","","","",""
"","4246","sequential-stimulus-presentation-old","14","141751","0.0-9.0-1.2","SS1619739156020","trial","","40","500","4746","images/stimuli/spore_stims/simple_11_A_a.gif","images/stimuli/spore_stims/simple_04_A_b.gif","self_paced","","0","simple_dissimilar","images/stimuli/spore_stims/simple_04_A_b.gif","","","","",""
"","null","html-keyboard-response","15","142948","0.0-9.0-0.3","SS1619739156020","","","null","","","","","","<p><img src= images/blank.png width =""600"" height = ""600"" style=""position:fixed;top:50%; left:50%; transform: translate(-50%, -50%); border:5px solid black"">","","","","","","","",""
"","7330","sequential-stimulus-presentation-old","16","150780","0.0-9.0-1.3","SS1619739156020","trial","","40","500","7830","images/stimuli/spore_stims/simple_11_A_a.gif","images/stimuli/spore_stims/simple_04_A_b.gif","self_paced","","0","simple_dissimilar","images/stimuli/spore_stims/simple_04_A_b.gif","","","","",""
"","3245","survey-multi-choice","17","154026","0.0-10.0","SS1619739156020","math_question","","","","","","","","","","","","{""Q0"":""9""}","[0]","9","",""
"","null","html-keyboard-response","18","155041","0.0-11.0-0.0","SS1619739156020","","","null","","","","","","<p><img src= images/blank.png width =""600"" height = ""600"" style=""position:fixed;top:50%; left:50%; transform: translate(-50%, -50%); border:5px solid black"">","","","","","","","",""
"","1395","sequential-stimulus-presentation-old","19","171436","0.0-11.0-1.0","SS1619739156020","trial","","40","500","1895","images/stimuli/spore_stims/simple_09_A_a.gif","images/stimuli/spore_stims/simple_10_A_b.gif","forced_long","","1","simple_dissimilar","images/stimuli/spore_stims/simple_10_A_b.gif","","","","",""
"","null","html-keyboard-response","20","172618","0.0-11.0-0.1","SS1619739156020","","","null","","","","","","<p><img src= images/blank.png width =""600"" height = ""600"" style=""position:fixed;top:50%; left:50%; transform: translate(-50%, -50%); border:5px solid black"">","","","","","","","",""
"","2471","sequential-stimulus-presentation-old","21","175592","0.0-11.0-1.1","SS1619739156020","trial","","40","500","2971","images/stimuli/spore_stims/simple_09_A_a.gif","images/stimuli/spore_stims/simple_10_A_b.gif","forced_long","","1","simple_dissimilar","images/stimuli/spore_stims/simple_10_A_b.gif","","","","",""
"","null","html-keyboard-response","22","176806","0.0-11.0-0.2","SS1619739156020","","","null","","","","","","<p><img src= images/blank.png width =""600"" height = ""600"" style=""position:fixed;top:50%; left:50%; transform: translate(-50%, -50%); border:5px solid black"">","","","","","","","",""
"","3992","sequential-stimulus-presentation-old","23","181299","0.0-11.0-1.2","SS1619739156020","trial","","40","500","4492","images/stimuli/spore_stims/simple_09_A_a.gif","images/stimuli/spore_stims/simple_10_A_b.gif","forced_long","","1","simple_dissimilar","images/stimuli/spore_stims/simple_10_A_b.gif","","","","",""
"","null","html-keyboard-response","24","182305","0.0-11.0-0.3","SS1619739156020","","","null","","","","","","<p><img src= images/blank.png width =""600"" height = ""600"" style=""position:fixed;top:50%; left:50%; transform: translate(-50%, -50%); border:5px solid black"">","","","","","","","",""
"","5369","sequential-stimulus-presentation-old","25","188175","0.0-11.0-1.3","SS1619739156020","trial","","40","500","5869","images/stimuli/spore_stims/simple_09_A_a.gif","images/stimuli/spore_stims/simple_10_A_b.gif","forced_long","","1","simple_dissimilar","images/stimuli/spore_stims/simple_10_A_b.gif","","","","",""
"","null","html-keyboard-response","26","189118","0.0-11.0-0.4","SS1619739156020","","","null","","","","","","<p><img src= images/blank.png width =""600"" height = ""600"" style=""position:fixed;top:50%; left:50%; transform: translate(-50%, -50%); border:5px solid black"">","","","","","","","",""
"","2455","sequential-stimulus-presentation-old","27","192074","0.0-11.0-1.4","SS1619739156020","trial","","40","500","2955","images/stimuli/spore_stims/simple_09_A_a.gif","images/stimuli/spore_stims/simple_10_A_b.gif","forced_long","","1","simple_dissimilar","images/stimuli/spore_stims/simple_09_A_a.gif","","","","",""
"","5038","survey-multi-choice","28","197114","0.0-12.0","SS1619739156020","math_question","","","","","","","","","","","","{""Q0"":""16""}","[0]","16","",""
"","null","html-keyboard-response","29","197940","0.0-13.0-0.0","SS1619739156020","","","null","","","","","","<p><img src= images/blank.png width =""600"" height = ""600"" style=""position:fixed;top:50%; left:50%; transform: translate(-50%, -50%); border:5px solid black"">","","","","","","","",""
"","1774","sequential-stimulus-presentation-old","30","200215","0.0-13.0-1.0","SS1619739156020","trial","","40","500","2274","images/stimuli/spore_stims/simple_19_A_a.gif","images/stimuli/spore_stims/simple_08_A_b.gif","forced_short","","2","simple_dissimilar","images/stimuli/spore_stims/simple_08_A_b.gif","","","","",""
"","null","html-keyboard-response","31","201468","0.0-13.0-0.1","SS1619739156020","","","null","","","","","","<p><img src= images/blank.png width =""600"" height = ""600"" style=""position:fixed;top:50%; left:50%; transform: translate(-50%, -50%); border:5px solid black"">","","","","","","","",""
"","5233","sequential-stimulus-presentation-old","32","207203","0.0-13.0-1.1","SS1619739156020","trial","","40","500","5733","images/stimuli/spore_stims/simple_19_A_a.gif","images/stimuli/spore_stims/simple_08_A_b.gif","forced_short","","2","simple_dissimilar","images/stimuli/spore_stims/simple_08_A_b.gif","","","","",""
"","null","html-keyboard-response","33","208243","0.0-13.0-0.2","SS1619739156020","","","null","","","","","","<p><img src= images/blank.png width =""600"" height = ""600"" style=""position:fixed;top:50%; left:50%; transform: translate(-50%, -50%); border:5px solid black"">","","","","","","","",""
"","3319","sequential-stimulus-presentation-old","34","212064","0.0-13.0-1.2","SS1619739156020","trial","","40","500","3819","images/stimuli/spore_stims/simple_19_A_a.gif","images/stimuli/spore_stims/simple_08_A_b.gif","forced_short","","2","simple_dissimilar","images/stimuli/spore_stims/simple_08_A_b.gif","","","","",""
"","null","html-keyboard-response","35","212903","0.0-13.0-0.3","SS1619739156020","","","null","","","","","","<p><img src= images/blank.png width =""600"" height = ""600"" style=""position:fixed;top:50%; left:50%; transform: translate(-50%, -50%); border:5px solid black"">","","","","","","","",""
"","5301","sequential-stimulus-presentation-old","36","218704","0.0-13.0-1.3","SS1619739156020","trial","","40","500","5801","images/stimuli/spore_stims/simple_19_A_a.gif","images/stimuli/spore_stims/simple_08_A_b.gif","forced_short","","2","simple_dissimilar","images/stimuli/spore_stims/simple_08_A_b.gif","","","","",""
"","null","html-keyboard-response","37","219622","0.0-13.0-0.4","SS1619739156020","","","null","","","","","","<p><img src= images/blank.png width =""600"" height = ""600"" style=""position:fixed;top:50%; left:50%; transform: translate(-50%, -50%); border:5px solid black"">","","","","","","","",""
"","4438","sequential-stimulus-presentation-old","38","224562","0.0-13.0-1.4","SS1619739156020","trial","","40","500","4938","images/stimuli/spore_stims/simple_19_A_a.gif","images/stimuli/spore_stims/simple_08_A_b.gif","forced_short","","2","simple_dissimilar","images/stimuli/spore_stims/simple_19_A_a.gif","","","","",""
"","null","html-keyboard-response","39","225672","0.0-13.0-0.5","SS1619739156020","","","null","","","","","","<p><img src= images/blank.png width =""600"" height = ""600"" style=""position:fixed;top:50%; left:50%; transform: translate(-50%, -50%); border:5px solid black"">","","","","","","","",""
"","1611","sequential-stimulus-presentation-old","40","227782","0.0-13.0-1.5","SS1619739156020","trial","","40","500","2111","images/stimuli/spore_stims/simple_19_A_a.gif","images/stimuli/spore_stims/simple_08_A_b.gif","forced_short","","2","simple_dissimilar","images/stimuli/spore_stims/simple_19_A_a.gif","","","","",""
"","5357","survey-multi-choice","41","233141","0.0-14.0","SS1619739156020","math_question","","","","","","","","","","","","{""Q0"":""8""}","[0]","8","",""
"","null","html-keyboard-response","42","234201","0.0-15.0-0.0","SS1619739156020","","","null","","","","","","<p><img src= images/blank.png width =""600"" height = ""600"" style=""position:fixed;top:50%; left:50%; transform: translate(-50%, -50%); border:5px solid black"">","","","","","","","",""
"","3489","sequential-stimulus-presentation-old","43","238192","0.0-15.0-1.0","SS1619739156020","trial","","40","500","3989","images/stimuli/spore_stims/complex_07_A_b.gif","images/stimuli/spore_stims/complex_03_A_a.gif","forced_short","","3","complex_dissimilar","images/stimuli/spore_stims/complex_03_A_a.gif","","","","",""
"","null","html-keyboard-response","44","239474","0.0-15.0-0.1","SS1619739156020","","","null","","","","","","<p><img src= images/blank.png width =""600"" height = ""600"" style=""position:fixed;top:50%; left:50%; transform: translate(-50%, -50%); border:5px solid black"">","","","","","","","",""
"","4875","sequential-stimulus-presentation-old","45","244851","0.0-15.0-1.1","SS1619739156020","trial","","40","500","5375","images/stimuli/spore_stims/complex_07_A_b.gif","images/stimuli/spore_stims/complex_03_A_a.gif","forced_short","","3","complex_dissimilar","images/stimuli/spore_stims/complex_03_A_a.gif","","","","",""
"","null","html-keyboard-response","46","245807","0.0-15.0-0.2","SS1619739156020","","","null","","","","","","<p><img src= images/blank.png width =""600"" height = ""600"" style=""position:fixed;top:50%; left:50%; transform: translate(-50%, -50%); border:5px solid black"">","","","","","","","",""
"","4302","sequential-stimulus-presentation-old","47","250610","0.0-15.0-1.2","SS1619739156020","trial","","40","500","4802","images/stimuli/spore_stims/complex_07_A_b.gif","images/stimuli/spore_stims/complex_03_A_a.gif","forced_short","","3","complex_dissimilar","images/stimuli/spore_stims/complex_03_A_a.gif","","","","",""
"","null","html-keyboard-response","48","251896","0.0-15.0-0.3","SS1619739156020","","","null","","","","","","<p><img src= images/blank.png width =""600"" height = ""600"" style=""position:fixed;top:50%; left:50%; transform: translate(-50%, -50%); border:5px solid black"">","","","","","","","",""
"","3124","sequential-stimulus-presentation-old","49","255521","0.0-15.0-1.3","SS1619739156020","trial","","40","500","3624","images/stimuli/spore_stims/complex_07_A_b.gif","images/stimuli/spore_stims/complex_03_A_a.gif","forced_short","","3","complex_dissimilar","images/stimuli/spore_stims/complex_03_A_a.gif","","","","",""
"","null","html-keyboard-response","50","256411","0.0-15.0-0.4","SS1619739156020","","","null","","","","","","<p><img src= images/blank.png width =""600"" height = ""600"" style=""position:fixed;top:50%; left:50%; transform: translate(-50%, -50%); border:5px solid black"">","","","","","","","",""
"","3128","sequential-stimulus-presentation-old","51","260043","0.0-15.0-1.4","SS1619739156020","trial","","40","500","3628","images/stimuli/spore_stims/complex_07_A_b.gif","images/stimuli/spore_stims/complex_03_A_a.gif","forced_short","","3","complex_dissimilar","images/stimuli/spore_stims/complex_03_A_a.gif","","","","",""
"","null","html-keyboard-response","52","261291","0.0-15.0-0.5","SS1619739156020","","","null","","","","","","<p><img src= images/blank.png width =""600"" height = ""600"" style=""position:fixed;top:50%; left:50%; transform: translate(-50%, -50%); border:5px solid black"">","","","","","","","",""
"","210","sequential-stimulus-presentation-old","53","262005","0.0-15.0-1.5","SS1619739156020","trial","","40","500","710","images/stimuli/spore_stims/complex_07_A_b.gif","images/stimuli/spore_stims/complex_03_A_a.gif","forced_short","","3","complex_dissimilar","images/stimuli/spore_stims/complex_03_A_a.gif","","","","",""
"","3078","survey-multi-choice","54","265083","0.0-16.0","SS1619739156020","math_question","","","","","","","","","","","","{""Q0"":""11""}","[0]","11","",""
"","null","html-keyboard-response","55","266351","0.0-17.0-0.0","SS1619739156020","","","null","","","","","","<p><img src= images/blank.png width =""600"" height = ""600"" style=""position:fixed;top:50%; left:50%; transform: translate(-50%, -50%); border:5px solid black"">","","","","","","","",""
"","811","sequential-stimulus-presentation-old","56","267664","0.0-17.0-1.0","SS1619739156020","trial","","40","500","1311","images/stimuli/spore_stims/simple_07_A_a.gif","images/stimuli/spore_stims/simple_09_A_b.gif","forced_short","","4","simple_dissimilar","images/stimuli/spore_stims/simple_09_A_b.gif","","","","",""
"","null","html-keyboard-response","57","268509","0.0-17.0-0.1","SS1619739156020","","","null","","","","","","<p><img src= images/blank.png width =""600"" height = ""600"" style=""position:fixed;top:50%; left:50%; transform: translate(-50%, -50%); border:5px solid black"">","","","","","","","",""
"","2500","sequential-stimulus-presentation-old","58","271512","0.0-17.0-1.1","SS1619739156020","trial","","40","500","3000","images/stimuli/spore_stims/simple_07_A_a.gif","images/stimuli/spore_stims/simple_09_A_b.gif","forced_short","","4","simple_dissimilar","images/stimuli/spore_stims/simple_09_A_b.gif","","","","",""
"","null","html-keyboard-response","59","272611","0.0-17.0-0.2","SS1619739156020","","","null","","","","","","<p><img src= images/blank.png width =""600"" height = ""600"" style=""position:fixed;top:50%; left:50%; transform: translate(-50%, -50%); border:5px solid black"">","","","","","","","",""
"","3313","sequential-stimulus-presentation-old","60","276426","0.0-17.0-1.2","SS1619739156020","trial","","40","500","3813","images/stimuli/spore_stims/simple_07_A_a.gif","images/stimuli/spore_stims/simple_09_A_b.gif","forced_short","","4","simple_dissimilar","images/stimuli/spore_stims/simple_09_A_b.gif","","","","",""
"","null","html-keyboard-response","61","277467","0.0-17.0-0.3","SS1619739156020","","","null","","","","","","<p><img src= images/blank.png width =""600"" height = ""600"" style=""position:fixed;top:50%; left:50%; transform: translate(-50%, -50%); border:5px solid black"">","","","","","","","",""
"","10823","sequential-stimulus-presentation-old","62","288792","0.0-17.0-1.3","SS1619739156020","trial","","40","500","11323","images/stimuli/spore_stims/simple_07_A_a.gif","images/stimuli/spore_stims/simple_09_A_b.gif","forced_short","","4","simple_dissimilar","images/stimuli/spore_stims/simple_09_A_b.gif","","","","",""
"","2719","survey-multi-choice","63","291512","0.0-18.0","SS1619739156020","math_question","","","","","","","","","","","","{""Q0"":""12""}","[0]","12","",""
"","null","html-keyboard-response","64","292498","0.0-19.0-0.0","SS1619739156020","","","null","","","","","","<p><img src= images/blank.png width =""600"" height = ""600"" style=""position:fixed;top:50%; left:50%; transform: translate(-50%, -50%); border:5px solid black"">","","","","","","","",""
"","1103","sequential-stimulus-presentation-old","65","294103","0.0-19.0-1.0","SS1619739156020","trial","","40","500","1603","images/stimuli/spore_stims/complex_06_A_b.gif","images/stimuli/spore_stims/complex_07_A_a.gif","forced_short","","5","complex_dissimilar","images/stimuli/spore_stims/complex_07_A_a.gif","","","","",""
"","null","html-keyboard-response","66","294911","0.0-19.0-0.1","SS1619739156020","","","null","","","","","","<p><img src= images/blank.png width =""600"" height = ""600"" style=""position:fixed;top:50%; left:50%; transform: translate(-50%, -50%); border:5px solid black"">","","","","","","","",""
"","2945","sequential-stimulus-presentation-old","67","298357","0.0-19.0-1.1","SS1619739156020","trial","","40","500","3445","images/stimuli/spore_stims/complex_06_A_b.gif","images/stimuli/spore_stims/complex_07_A_a.gif","forced_short","","5","complex_dissimilar","images/stimuli/spore_stims/complex_07_A_a.gif","","","","",""
"","null","html-keyboard-response","68","299602","0.0-19.0-0.2","SS1619739156020","","","null","","","","","","<p><img src= images/blank.png width =""600"" height = ""600"" style=""position:fixed;top:50%; left:50%; transform: translate(-50%, -50%); border:5px solid black"">","","","","","","","",""
"","835","sequential-stimulus-presentation-old","69","300938","0.0-19.0-1.2","SS1619739156020","trial","","40","500","1335","images/stimuli/spore_stims/complex_06_A_b.gif","images/stimuli/spore_stims/complex_07_A_a.gif","forced_short","","5","complex_dissimilar","images/stimuli/spore_stims/complex_07_A_a.gif","","","","",""
"","null","html-keyboard-response","70","301781","0.0-19.0-0.3","SS1619739156020","","","null","","","","","","<p><img src= images/blank.png width =""600"" height = ""600"" style=""position:fixed;top:50%; left:50%; transform: translate(-50%, -50%); border:5px solid black"">","","","","","","","",""
"","2503","sequential-stimulus-presentation-old","71","304788","0.0-19.0-1.3","SS1619739156020","trial","","40","500","3003","images/stimuli/spore_stims/complex_06_A_b.gif","images/stimuli/spore_stims/complex_07_A_a.gif","forced_short","","5","complex_dissimilar","images/stimuli/spore_stims/complex_07_A_a.gif","","","","",""
"","null","html-keyboard-response","72","305650","0.0-19.0-0.4","SS1619739156020","","","null","","","","","","<p><img src= images/blank.png width =""600"" height = ""600"" style=""position:fixed;top:50%; left:50%; transform: translate(-50%, -50%); border:5px solid black"">","","","","","","","",""
"","3672","sequential-stimulus-presentation-old","73","309823","0.0-19.0-1.4","SS1619739156020","trial","","40","500","4172","images/stimuli/spore_stims/complex_06_A_b.gif","images/stimuli/spore_stims/complex_07_A_a.gif","forced_short","","5","complex_dissimilar","images/stimuli/spore_stims/complex_06_A_b.gif","","","","",""
"","null","html-keyboard-response","74","310851","0.0-19.0-0.5","SS1619739156020","","","null","","","","","","<p><img src= images/blank.png width =""600"" height = ""600"" style=""position:fixed;top:50%; left:50%; transform: translate(-50%, -50%); border:5px solid black"">","","","","","","","",""
"","3753","sequential-stimulus-presentation-old","75","315107","0.0-19.0-1.5","SS1619739156020","trial","","40","500","4253","images/stimuli/spore_stims/complex_06_A_b.gif","images/stimuli/spore_stims/complex_07_A_a.gif","forced_short","","5","complex_dissimilar","images/stimuli/spore_stims/complex_06_A_b.gif","","","","",""
"","2403","survey-multi-choice","76","317511","0.0-20.0","SS1619739156020","math_question","","","","","","","","","","","","{""Q0"":""13""}","[0]","13","",""
"","null","html-keyboard-response","77","318532","0.0-21.0-0.0","SS1619739156020","","","null","","","","","","<p><img src= images/blank.png width =""600"" height = ""600"" style=""position:fixed;top:50%; left:50%; transform: translate(-50%, -50%); border:5px solid black"">","","","","","","","",""
"","3872","sequential-stimulus-presentation-old","78","322907","0.0-21.0-1.0","SS1619739156020","trial","","40","500","4372","images/stimuli/spore_stims/complex_02_A_b.gif","images/stimuli/spore_stims/complex_05_A_a.gif","self_paced","","6","complex_dissimilar","images/stimuli/spore_stims/complex_05_A_a.gif","","","","",""
"","null","html-keyboard-response","79","324131","0.0-21.0-0.1","SS1619739156020","","","null","","","","","","<p><img src= images/blank.png width =""600"" height = ""600"" style=""position:fixed;top:50%; left:50%; transform: translate(-50%, -50%); border:5px solid black"">","","","","","","","",""
"","2645","sequential-stimulus-presentation-old","80","327278","0.0-21.0-1.1","SS1619739156020","trial","","40","500","3145","images/stimuli/spore_stims/complex_02_A_b.gif","images/stimuli/spore_stims/complex_05_A_a.gif","self_paced","","6","complex_dissimilar","images/stimuli/spore_stims/complex_05_A_a.gif","","","","",""
"","null","html-keyboard-response","81","328223","0.0-21.0-0.2","SS1619739156020","","","null","","","","","","<p><img src= images/blank.png width =""600"" height = ""600"" style=""position:fixed;top:50%; left:50%; transform: translate(-50%, -50%); border:5px solid black"">","","","","","","","",""
"","2838","sequential-stimulus-presentation-old","82","331562","0.0-21.0-1.2","SS1619739156020","trial","","40","500","3338","images/stimuli/spore_stims/complex_02_A_b.gif","images/stimuli/spore_stims/complex_05_A_a.gif","self_paced","","6","complex_dissimilar","images/stimuli/spore_stims/complex_05_A_a.gif","","","","",""
"","null","html-keyboard-response","83","332644","0.0-21.0-0.3","SS1619739156020","","","null","","","","","","<p><img src= images/blank.png width =""600"" height = ""600"" style=""position:fixed;top:50%; left:50%; transform: translate(-50%, -50%); border:5px solid black"">","","","","","","","",""
"","5132","sequential-stimulus-presentation-old","84","338279","0.0-21.0-1.3","SS1619739156020","trial","","40","500","5632","images/stimuli/spore_stims/complex_02_A_b.gif","images/stimuli/spore_stims/complex_05_A_a.gif","self_paced","","6","complex_dissimilar","images/stimuli/spore_stims/complex_05_A_a.gif","","","","",""
"","null","html-keyboard-response","85","339275","0.0-21.0-0.4","SS1619739156020","","","null","","","","","","<p><img src= images/blank.png width =""600"" height = ""600"" style=""position:fixed;top:50%; left:50%; transform: translate(-50%, -50%); border:5px solid black"">","","","","","","","",""
"","5795","sequential-stimulus-presentation-old","86","345571","0.0-21.0-1.4","SS1619739156020","trial","","40","500","6295","images/stimuli/spore_stims/complex_02_A_b.gif","images/stimuli/spore_stims/complex_05_A_a.gif","self_paced","","6","complex_dissimilar","images/stimuli/spore_stims/complex_02_A_b.gif","","","","",""
"","null","html-keyboard-response","87","346857","0.0-21.0-0.5","SS1619739156020","","","null","","","","","","<p><img src= images/blank.png width =""600"" height = ""600"" style=""position:fixed;top:50%; left:50%; transform: translate(-50%, -50%); border:5px solid black"">","","","","","","","",""
"","483","sequential-stimulus-presentation-old","88","347841","0.0-21.0-1.5","SS1619739156020","trial","","40","500","983","images/stimuli/spore_stims/complex_02_A_b.gif","images/stimuli/spore_stims/complex_05_A_a.gif","self_paced","","6","complex_dissimilar","images/stimuli/spore_stims/complex_02_A_b.gif","","","","",""
"","2847","survey-multi-choice","89","350689","0.0-22.0","SS1619739156020","math_question","","","","","","","","","","","","{""Q0"":""2""}","[0]","2","",""
"","null","html-keyboard-response","90","351719","0.0-23.0-0.0","SS1619739156020","","","null","","","","","","<p><img src= images/blank.png width =""600"" height = ""600"" style=""position:fixed;top:50%; left:50%; transform: translate(-50%, -50%); border:5px solid black"">","","","","","","","",""
"","1841","sequential-stimulus-presentation-old","91","354062","0.0-23.0-1.0","SS1619739156020","trial","","40","500","2341","images/stimuli/spore_stims/complex_05_A_b.gif","images/stimuli/spore_stims/complex_10_A_a.gif","self_paced","","7","complex_dissimilar","images/stimuli/spore_stims/complex_10_A_a.gif","","","","",""
"","null","html-keyboard-response","92","355332","0.0-23.0-0.1","SS1619739156020","","","null","","","","","","<p><img src= images/blank.png width =""600"" height = ""600"" style=""position:fixed;top:50%; left:50%; transform: translate(-50%, -50%); border:5px solid black"">","","","","","","","",""
"","2514","sequential-stimulus-presentation-old","93","358347","0.0-23.0-1.1","SS1619739156020","trial","","40","500","3014","images/stimuli/spore_stims/complex_05_A_b.gif","images/stimuli/spore_stims/complex_10_A_a.gif","self_paced","","7","complex_dissimilar","images/stimuli/spore_stims/complex_10_A_a.gif","","","","",""
"","null","html-keyboard-response","94","359279","0.0-23.0-0.2","SS1619739156020","","","null","","","","","","<p><img src= images/blank.png width =""600"" height = ""600"" style=""position:fixed;top:50%; left:50%; transform: translate(-50%, -50%); border:5px solid black"">","","","","","","","",""
"","3980","sequential-stimulus-presentation-old","95","363762","0.0-23.0-1.2","SS1619739156020","trial","","40","500","4480","images/stimuli/spore_stims/complex_05_A_b.gif","images/stimuli/spore_stims/complex_10_A_a.gif","self_paced","","7","complex_dissimilar","images/stimuli/spore_stims/complex_10_A_a.gif","","","","",""
"","null","html-keyboard-response","96","365024","0.0-23.0-0.3","SS1619739156020","","","null","","","","","","<p><img src= images/blank.png width =""600"" height = ""600"" style=""position:fixed;top:50%; left:50%; transform: translate(-50%, -50%); border:5px solid black"">","","","","","","","",""
"","2358","sequential-stimulus-presentation-old","97","367883","0.0-23.0-1.3","SS1619739156020","trial","","40","500","2858","images/stimuli/spore_stims/complex_05_A_b.gif","images/stimuli/spore_stims/complex_10_A_a.gif","self_paced","","7","complex_dissimilar","images/stimuli/spore_stims/complex_10_A_a.gif","","","","",""
"","null","html-keyboard-response","98","369049","0.0-23.0-0.4","SS1619739156020","","","null","","","","","","<p><img src= images/blank.png width =""600"" height = ""600"" style=""position:fixed;top:50%; left:50%; transform: translate(-50%, -50%); border:5px solid black"">","","","","","","","",""
"","1526","sequential-stimulus-presentation-old","99","371078","0.0-23.0-1.4","SS1619739156020","trial","","40","500","2026","images/stimuli/spore_stims/complex_05_A_b.gif","images/stimuli/spore_stims/complex_10_A_a.gif","self_paced","","7","complex_dissimilar","images/stimuli/spore_stims/complex_10_A_a.gif","","","","",""
"","2436","survey-multi-choice","100","373516","0.0-24.0","SS1619739156020","math_question","","","","","","","","","","","","{""Q0"":""10""}","[0]","10","",""
"","null","html-keyboard-response","101","374644","0.0-25.0-0.0","SS1619739156020","","","null","","","","","","<p><img src= images/blank.png width =""600"" height = ""600"" style=""position:fixed;top:50%; left:50%; transform: translate(-50%, -50%); border:5px solid black"">","","","","","","","",""
"","580","sequential-stimulus-presentation-old","102","390227","0.0-25.0-1.0","SS1619739156020","trial","","40","500","1080","images/stimuli/spore_stims/complex_13_A_a.gif","images/stimuli/spore_stims/complex_14_A_b.gif","forced_long","","8","complex_dissimilar","images/stimuli/spore_stims/complex_14_A_b.gif","","","","",""
"","null","html-keyboard-response","103","391188","0.0-25.0-0.1","SS1619739156020","","","null","","","","","","<p><img src= images/blank.png width =""600"" height = ""600"" style=""position:fixed;top:50%; left:50%; transform: translate(-50%, -50%); border:5px solid black"">","","","","","","","",""
"","3138","sequential-stimulus-presentation-old","104","394829","0.0-25.0-1.1","SS1619739156020","trial","","40","500","3638","images/stimuli/spore_stims/complex_13_A_a.gif","images/stimuli/spore_stims/complex_14_A_b.gif","forced_long","","8","complex_dissimilar","images/stimuli/spore_stims/complex_14_A_b.gif","","","","",""
"","null","html-keyboard-response","105","395637","0.0-25.0-0.2","SS1619739156020","","","null","","","","","","<p><img src= images/blank.png width =""600"" height = ""600"" style=""position:fixed;top:50%; left:50%; transform: translate(-50%, -50%); border:5px solid black"">","","","","","","","",""
"","4332","sequential-stimulus-presentation-old","106","400473","0.0-25.0-1.2","SS1619739156020","trial","","40","500","4832","images/stimuli/spore_stims/complex_13_A_a.gif","images/stimuli/spore_stims/complex_14_A_b.gif","forced_long","","8","complex_dissimilar","images/stimuli/spore_stims/complex_14_A_b.gif","","","","",""
"","null","html-keyboard-response","107","401514","0.0-25.0-0.3","SS1619739156020","","","null","","","","","","<p><img src= images/blank.png width =""600"" height = ""600"" style=""position:fixed;top:50%; left:50%; transform: translate(-50%, -50%); border:5px solid black"">","","","","","","","",""
"","3433","sequential-stimulus-presentation-old","108","405450","0.0-25.0-1.3","SS1619739156020","trial","","40","500","3933","images/stimuli/spore_stims/complex_13_A_a.gif","images/stimuli/spore_stims/complex_14_A_b.gif","forced_long","","8","complex_dissimilar","images/stimuli/spore_stims/complex_14_A_b.gif","","","","",""
"","null","html-keyboard-response","109","406511","0.0-25.0-0.4","SS1619739156020","","","null","","","","","","<p><img src= images/blank.png width =""600"" height = ""600"" style=""position:fixed;top:50%; left:50%; transform: translate(-50%, -50%); border:5px solid black"">","","","","","","","",""
"","6208","sequential-stimulus-presentation-old","110","413222","0.0-25.0-1.4","SS1619739156020","trial","","40","500","6708","images/stimuli/spore_stims/complex_13_A_a.gif","images/stimuli/spore_stims/complex_14_A_b.gif","forced_long","","8","complex_dissimilar","images/stimuli/spore_stims/complex_13_A_a.gif","","","","",""
"","2572","survey-multi-choice","111","415794","0.0-26.0","SS1619739156020","math_question","","","","","","","","","","","","{""Q0"":""9""}","[0]","9","",""
"","null","html-keyboard-response","112","416949","0.0-27.0-0.0","SS1619739156020","","","null","","","","","","<p><img src= images/blank.png width =""600"" height = ""600"" style=""position:fixed;top:50%; left:50%; transform: translate(-50%, -50%); border:5px solid black"">","","","","","","","",""
"","7947","sequential-stimulus-presentation-old","113","425398","0.0-27.0-1.0","SS1619739156020","trial","","40","500","8447","images/stimuli/spore_stims/simple_16_A_b.gif","images/stimuli/spore_stims/simple_20_A_a.gif","self_paced","","9","simple_dissimilar","images/stimuli/spore_stims/simple_20_A_a.gif","","","","",""
"","null","html-keyboard-response","114","426601","0.0-27.0-0.1","SS1619739156020","","","null","","","","","","<p><img src= images/blank.png width =""600"" height = ""600"" style=""position:fixed;top:50%; left:50%; transform: translate(-50%, -50%); border:5px solid black"">","","","","","","","",""
"","3648","sequential-stimulus-presentation-old","115","430753","0.0-27.0-1.1","SS1619739156020","trial","","40","500","4148","images/stimuli/spore_stims/simple_16_A_b.gif","images/stimuli/spore_stims/simple_20_A_a.gif","self_paced","","9","simple_dissimilar","images/stimuli/spore_stims/simple_20_A_a.gif","","","","",""
"","null","html-keyboard-response","116","431858","0.0-27.0-0.2","SS1619739156020","","","null","","","","","","<p><img src= images/blank.png width =""600"" height = ""600"" style=""position:fixed;top:50%; left:50%; transform: translate(-50%, -50%); border:5px solid black"">","","","","","","","",""
"","5794","sequential-stimulus-presentation-old","117","438155","0.0-27.0-1.2","SS1619739156020","trial","","40","500","6294","images/stimuli/spore_stims/simple_16_A_b.gif","images/stimuli/spore_stims/simple_20_A_a.gif","self_paced","","9","simple_dissimilar","images/stimuli/spore_stims/simple_20_A_a.gif","","","","",""
"","null","html-keyboard-response","118","439309","0.0-27.0-0.3","SS1619739156020","","","null","","","","","","<p><img src= images/blank.png width =""600"" height = ""600"" style=""position:fixed;top:50%; left:50%; transform: translate(-50%, -50%); border:5px solid black"">","","","","","","","",""
"","3503","sequential-stimulus-presentation-old","119","443312","0.0-27.0-1.3","SS1619739156020","trial","","40","500","4003","images/stimuli/spore_stims/simple_16_A_b.gif","images/stimuli/spore_stims/simple_20_A_a.gif","self_paced","","9","simple_dissimilar","images/stimuli/spore_stims/simple_20_A_a.gif","","","","",""
"","null","html-keyboard-response","120","444596","0.0-27.0-0.4","SS1619739156020","","","null","","","","","","<p><img src= images/blank.png width =""600"" height = ""600"" style=""position:fixed;top:50%; left:50%; transform: translate(-50%, -50%); border:5px solid black"">","","","","","","","",""
"","5439","sequential-stimulus-presentation-old","121","450538","0.0-27.0-1.4","SS1619739156020","trial","","40","500","5939","images/stimuli/spore_stims/simple_16_A_b.gif","images/stimuli/spore_stims/simple_20_A_a.gif","self_paced","","9","simple_dissimilar","images/stimuli/spore_stims/simple_20_A_a.gif","","","","",""
"","null","html-keyboard-response","122","451668","0.0-27.0-0.5","SS1619739156020","","","null","","","","","","<p><img src= images/blank.png width =""600"" height = ""600"" style=""position:fixed;top:50%; left:50%; transform: translate(-50%, -50%); border:5px solid black"">","","","","","","","",""
"","4002","sequential-stimulus-presentation-old","123","456173","0.0-27.0-1.5","SS1619739156020","trial","","40","500","4502","images/stimuli/spore_stims/simple_16_A_b.gif","images/stimuli/spore_stims/simple_20_A_a.gif","self_paced","","9","simple_dissimilar","images/stimuli/spore_stims/simple_20_A_a.gif","","","","",""
"","2783","survey-multi-choice","124","458960","0.0-28.0","SS1619739156020","math_question","","","","","","","","","","","","{""Q0"":""5""}","[0]","5","",""
"","null","html-keyboard-response","125","460008","0.0-29.0-0.0","SS1619739156020","","","null","","","","","","<p><img src= images/blank.png width =""600"" height = ""600"" style=""position:fixed;top:50%; left:50%; transform: translate(-50%, -50%); border:5px solid black"">","","","","","","","",""
"","5481","sequential-stimulus-presentation-old","126","480491","0.0-29.0-1.0","SS1619739156020","trial","","40","500","5981","images/stimuli/spore_stims/simple_06_A_a.gif","images/stimuli/spore_stims/simple_11_A_b.gif","forced_long","","10","simple_dissimilar","images/stimuli/spore_stims/simple_11_A_b.gif","","","","",""
"","null","html-keyboard-response","127","481717","0.0-29.0-0.1","SS1619739156020","","","null","","","","","","<p><img src= images/blank.png width =""600"" height = ""600"" style=""position:fixed;top:50%; left:50%; transform: translate(-50%, -50%); border:5px solid black"">","","","","","","","",""
"","11586","sequential-stimulus-presentation-old","128","493805","0.0-29.0-1.1","SS1619739156020","trial","","40","500","12086","images/stimuli/spore_stims/simple_06_A_a.gif","images/stimuli/spore_stims/simple_11_A_b.gif","forced_long","","10","simple_dissimilar","images/stimuli/spore_stims/simple_11_A_b.gif","","","","",""
"","null","html-keyboard-response","129","494717","0.0-29.0-0.2","SS1619739156020","","","null","","","","","","<p><img src= images/blank.png width =""600"" height = ""600"" style=""position:fixed;top:50%; left:50%; transform: translate(-50%, -50%); border:5px solid black"">","","","","","","","",""
"","5102","sequential-stimulus-presentation-old","130","500322","0.0-29.0-1.2","SS1619739156020","trial","","40","500","5602","images/stimuli/spore_stims/simple_06_A_a.gif","images/stimuli/spore_stims/simple_11_A_b.gif","forced_long","","10","simple_dissimilar","images/stimuli/spore_stims/simple_11_A_b.gif","","","","",""
"","null","html-keyboard-response","131","501281","0.0-29.0-0.3","SS1619739156020","","","null","","","","","","<p><img src= images/blank.png width =""600"" height = ""600"" style=""position:fixed;top:50%; left:50%; transform: translate(-50%, -50%); border:5px solid black"">","","","","","","","",""
"","1305","sequential-stimulus-presentation-old","132","503087","0.0-29.0-1.3","SS1619739156020","trial","","40","500","1805","images/stimuli/spore_stims/simple_06_A_a.gif","images/stimuli/spore_stims/simple_11_A_b.gif","forced_long","","10","simple_dissimilar","images/stimuli/spore_stims/simple_11_A_b.gif","","","","",""
"","null","html-keyboard-response","133","504198","0.0-29.0-0.4","SS1619739156020","","","null","","","","","","<p><img src= images/blank.png width =""600"" height = ""600"" style=""position:fixed;top:50%; left:50%; transform: translate(-50%, -50%); border:5px solid black"">","","","","","","","",""
"","3018","sequential-stimulus-presentation-old","134","507721","0.0-29.0-1.4","SS1619739156020","trial","","40","500","3518","images/stimuli/spore_stims/simple_06_A_a.gif","images/stimuli/spore_stims/simple_11_A_b.gif","forced_long","","10","simple_dissimilar","images/stimuli/spore_stims/simple_11_A_b.gif","","","","",""
"","2537","survey-multi-choice","135","510259","0.0-30.0","SS1619739156020","math_question","","","","","","","","","","","","{""Q0"":""9""}","[0]","9","",""
"","null","html-keyboard-response","136","511192","0.0-31.0-0.0","SS1619739156020","","","null","","","","","","<p><img src= images/blank.png width =""600"" height = ""600"" style=""position:fixed;top:50%; left:50%; transform: translate(-50%, -50%); border:5px solid black"">","","","","","","","",""
"","507","sequential-stimulus-presentation-old","137","526703","0.0-31.0-1.0","SS1619739156020","trial","","40","500","1007","images/stimuli/spore_stims/complex_10_A_b.gif","images/stimuli/spore_stims/complex_14_A_a.gif","forced_long","","11","complex_dissimilar","images/stimuli/spore_stims/complex_14_A_a.gif","","","","",""
"","null","html-keyboard-response","138","527701","0.0-31.0-0.1","SS1619739156020","","","null","","","","","","<p><img src= images/blank.png width =""600"" height = ""600"" style=""position:fixed;top:50%; left:50%; transform: translate(-50%, -50%); border:5px solid black"">","","","","","","","",""
"","1513","sequential-stimulus-presentation-old","139","529716","0.0-31.0-1.1","SS1619739156020","trial","","40","500","2013","images/stimuli/spore_stims/complex_10_A_b.gif","images/stimuli/spore_stims/complex_14_A_a.gif","forced_long","","11","complex_dissimilar","images/stimuli/spore_stims/complex_10_A_b.gif","","","","",""
"","null","html-keyboard-response","140","530634","0.0-31.0-0.2","SS1619739156020","","","null","","","","","","<p><img src= images/blank.png width =""600"" height = ""600"" style=""position:fixed;top:50%; left:50%; transform: translate(-50%, -50%); border:5px solid black"">","","","","","","","",""
"","2082","sequential-stimulus-presentation-old","141","533218","0.0-31.0-1.2","SS1619739156020","trial","","40","500","2582","images/stimuli/spore_stims/complex_10_A_b.gif","images/stimuli/spore_stims/complex_14_A_a.gif","forced_long","","11","complex_dissimilar","images/stimuli/spore_stims/complex_14_A_a.gif","","","","",""
"","null","html-keyboard-response","142","534518","0.0-31.0-0.3","SS1619739156020","","","null","","","","","","<p><img src= images/blank.png width =""600"" height = ""600"" style=""position:fixed;top:50%; left:50%; transform: translate(-50%, -50%); border:5px solid black"">","","","","","","","",""
"","4556","sequential-stimulus-presentation-old","143","539576","0.0-31.0-1.3","SS1619739156020","trial","","40","500","5056","images/stimuli/spore_stims/complex_10_A_b.gif","images/stimuli/spore_stims/complex_14_A_a.gif","forced_long","","11","complex_dissimilar","images/stimuli/spore_stims/complex_10_A_b.gif","","","","",""
"","null","html-keyboard-response","144","540701","0.0-31.0-0.4","SS1619739156020","","","null","","","","","","<p><img src= images/blank.png width =""600"" height = ""600"" style=""position:fixed;top:50%; left:50%; transform: translate(-50%, -50%); border:5px solid black"">","","","","","","","",""
"","3695","sequential-stimulus-presentation-old","145","544897","0.0-31.0-1.4","SS1619739156020","trial","","40","500","4195","images/stimuli/spore_stims/complex_10_A_b.gif","images/stimuli/spore_stims/complex_14_A_a.gif","forced_long","","11","complex_dissimilar","images/stimuli/spore_stims/complex_14_A_a.gif","","","","",""
"","null","html-keyboard-response","146","545760","0.0-31.0-0.5","SS1619739156020","","","null","","","","","","<p><img src= images/blank.png width =""600"" height = ""600"" style=""position:fixed;top:50%; left:50%; transform: translate(-50%, -50%); border:5px solid black"">","","","","","","","",""
"","3507","sequential-stimulus-presentation-old","147","549768","0.0-31.0-1.5","SS1619739156020","trial","","40","500","4007","images/stimuli/spore_stims/complex_10_A_b.gif","images/stimuli/spore_stims/complex_14_A_a.gif","forced_long","","11","complex_dissimilar","images/stimuli/spore_stims/complex_14_A_a.gif","","","","",""
"[{""page_index"":0,""viewing_time"":5146}]","5146","instructions","148","554918","0.0-32.0","SS1619739156020","instructions","","","","","","","","","","","","","","","",""
"","15546","survey-likert","149","570465","0.0-33.0","SS1619739156020","similarity_question","","","","","","","","","","","","{""Q0"":4}","[0]","","images/stimuli/spore_stims/simple_11_A_b.gif","images/stimuli/spore_stims/simple_06_A_a.gif"
"","6279","survey-likert","150","576747","0.0-34.0","SS1619739156020","similarity_question","","","","","","","","","","","","{""Q0"":3}","[0]","","images/stimuli/spore_stims/simple_04_A_b.gif","images/stimuli/spore_stims/simple_11_A_a.gif"
"","8563","survey-likert","151","585313","0.0-35.0","SS1619739156020","similarity_question","","","","","","","","","","","","{""Q0"":1}","[0]","","images/stimuli/spore_stims/complex_13_A_a.gif","images/stimuli/spore_stims/complex_14_A_b.gif"
"","3185","survey-likert","152","588499","0.0-36.0","SS1619739156020","similarity_question","","","","","","","","","","","","{""Q0"":5}","[0]","","images/stimuli/spore_stims/simple_10_A_b.gif","images/stimuli/spore_stims/simple_09_A_a.gif"
"","3660","survey-likert","153","592161","0.0-37.0","SS1619739156020","similarity_question","","","","","","","","","","","","{""Q0"":4}","[0]","","images/stimuli/spore_stims/simple_09_A_b.gif","images/stimuli/spore_stims/simple_07_A_a.gif"
"","7580","survey-likert","154","599744","0.0-38.0","SS1619739156020","similarity_question","","","","","","","","","","","","{""Q0"":6}","[0]","","images/stimuli/spore_stims/complex_14_A_a.gif","images/stimuli/spore_stims/complex_10_A_b.gif"
"","3276","survey-likert","155","603023","0.0-39.0","SS1619739156020","similarity_question","","","","","","","","","","","","{""Q0"":5}","[0]","","images/stimuli/spore_stims/simple_19_A_a.gif","images/stimuli/spore_stims/simple_08_A_b.gif"
"","6202","survey-likert","156","609227","0.0-40.0","SS1619739156020","similarity_question","","","","","","","","","","","","{""Q0"":4}","[0]","","images/stimuli/spore_stims/complex_10_A_a.gif","images/stimuli/spore_stims/complex_05_A_b.gif"
"","7046","survey-likert","157","616276","0.0-41.0","SS1619739156020","similarity_question","","","","","","","","","","","","{""Q0"":3}","[0]","","images/stimuli/spore_stims/complex_07_A_b.gif","images/stimuli/spore_stims/complex_03_A_a.gif"
"","5599","survey-likert","158","621877","0.0-42.0","SS1619739156020","similarity_question","","","","","","","","","","","","{""Q0"":5}","[0]","","images/stimuli/spore_stims/complex_05_A_a.gif","images/stimuli/spore_stims/complex_02_A_b.gif"
"","13546","survey-likert","159","635426","0.0-43.0","SS1619739156020","similarity_question","","","","","","","","","","","","{""Q0"":1}","[0]","","images/stimuli/spore_stims/complex_07_A_a.gif","images/stimuli/spore_stims/complex_06_A_b.gif"
"","5361","survey-likert","160","640789","0.0-44.0","SS1619739156020","similarity_question","","","","","","","","","","","","{""Q0"":3}","[0]","","images/stimuli/spore_stims/simple_20_A_a.gif","images/stimuli/spore_stims/simple_16_A_b.gif"
"[{""page_index"":0,""viewing_time"":4274}]","4274","instructions","161","645066","0.0-45.0","SS1619739156020","instructions","","","","","","","","","","","","","","","",""
"","7331","survey-likert","162","652399","0.0-46.0","SS1619739156020","","","","","","","","","images/stimuli/spore_stims/complex_05_A_a.gif","","","","{""Q0"":5}","[0]","","",""
"","4329","survey-likert","163","656732","0.0-47.0","SS1619739156020","","","","","","","","","images/stimuli/spore_stims/complex_05_A_b.gif","","","","{""Q0"":5}","[0]","","",""
"","2445","survey-likert","164","659180","0.0-48.0","SS1619739156020","","","","","","","","","images/stimuli/spore_stims/simple_09_A_b.gif","","","","{""Q0"":0}","[0]","","",""
"","1690","survey-likert","165","660872","0.0-49.0","SS1619739156020","","","","","","","","","images/stimuli/spore_stims/simple_08_A_b.gif","","","","{""Q0"":0}","[0]","","",""
"","1597","survey-likert","166","662471","0.0-50.0","SS1619739156020","","","","","","","","","images/stimuli/spore_stims/simple_09_A_a.gif","","","","{""Q0"":0}","[0]","","",""
"","2572","survey-likert","167","665044","0.0-51.0","SS1619739156020","","","","","","","","","images/stimuli/spore_stims/simple_20_A_a.gif","","","","{""Q0"":1}","[0]","","",""
"","1850","survey-likert","168","666897","0.0-52.0","SS1619739156020","","","","","","","","","images/stimuli/spore_stims/simple_11_A_a.gif","","","","{""Q0"":0}","[0]","","",""
"","4844","survey-likert","169","671743","0.0-53.0","SS1619739156020","","","","","","","","","images/stimuli/spore_stims/complex_14_A_b.gif","","","","{""Q0"":4}","[0]","","",""
"","2366","survey-likert","170","674112","0.0-54.0","SS1619739156020","","","","","","","","","images/stimuli/spore_stims/complex_07_A_b.gif","","","","{""Q0"":4}","[0]","","",""
"","2266","survey-likert","171","676379","0.0-55.0","SS1619739156020","","","","","","","","","images/stimuli/spore_stims/complex_07_A_a.gif","","","","{""Q0"":4}","[0]","","",""
"","3594","survey-likert","172","679976","0.0-56.0","SS1619739156020","","","","","","","","","images/stimuli/spore_stims/complex_14_A_a.gif","","","","{""Q0"":4}","[0]","","",""
"","3331","survey-likert","173","683309","0.0-57.0","SS1619739156020","","","","","","","","","images/stimuli/spore_stims/simple_06_A_a.gif","","","","{""Q0"":0}","[0]","","",""
"[{""page_index"":0,""viewing_time"":2854}]","2854","instructions","174","686165","0.0-58.0","SS1619739156020","instructions","","","","","","","","","","","","","","","",""
"","2170","demog-age","175","688338","0.0-59.0","SS1619739156020","","","","","","","","","","","","","{""age"":""22""}","","","",""
"","3576","demog-ethnic-US","176","691918","0.0-60.0","SS1619739156020","","","","","","","","","","","","","{""ethnicity"":[""White""]}","[0]","","",""
"","5675","demog-gender-and-education","177","697596","0.0-61.0","SS1619739156020","","","","","","","","","","","","","{""gender"":""Male"",""education"":""Bachelor's Degree""}","[0,1]","","",""
"","52695","survey-text","178","750294","0.0-62.0","SS1619739156020","feedback","","","","","","","","","","","","{""Q0"":""Were this creatures by any chance from the game called Spore? They looked identical to things you could make in that game.""}","","","",""
"[{""page_index"":0,""viewing_time"":1645}]","1645","instructions","179","751940","0.0-63.0","SS1619739156020","instructions","","","","","","","","","","","","","","","",""
