"view_history","rt","trial_type","trial_index","time_elapsed","internal_node_id","subject","stimulus_type","trial_stimulus","key_press","minimum_viewing_duration","trial_looking_time","block_deviant","block_background","exposure_type","stimulus","block_number","block_type","stimulus_displayed","responses","question_order","math_correct_answer","stimulus_left","stimulus_right"
"[{""page_index"":0,""viewing_time"":12345.46500000215}]","12346.03000000061","instructions","0","12351","0.0-0.0","SS1619740116547","","","","","","","","","","","","","","","","",""
"[{""page_index"":0,""viewing_time"":70564.28000000233},{""page_index"":1,""viewing_time"":5203.204999997979}]","75767.68500000253","instructions","1","90136","0.0-1.0","SS1619740116547","instructions","","","","","","","","","","","","","","","",""
"","6054.86000000019","sequential-stimulus-presentation-old","2","96694","0.0-2.0","SS1619740116547","","","40","500","6554.86000000019","null","null","self_paced","","","","","","","","",""
"","4531.640000001062","sequential-stimulus-presentation-old","3","101731","0.0-3.0","SS1619740116547","","","40","500","5031.640000001062","null","null","self_paced","","","","","","","","",""
"[{""page_index"":0,""viewing_time"":13363.209999999526}]","13363.41000000175","instructions","4","115095","0.0-4.0","SS1619740116547","instructions","","","","","","","","","","","","","","","",""
"","2361.525000000256","sequential-stimulus-presentation-old","5","132458","0.0-5.0","SS1619740116547","","","40","500","2861.525000000256","null","null","forced_long","","","","","","","","",""
"","3109.0150000018184","sequential-stimulus-presentation-old","6","136071","0.0-6.0","SS1619740116547","","","40","500","3609.0150000018184","null","null","forced_long","","","","","","","","",""
"[{""page_index"":0,""viewing_time"":3269.3450000006123}]","3269.544999999198","instructions","7","139341","0.0-7.0","SS1619740116547","instructions","","","","","","","","","","","","","","","",""
"[{""page_index"":0,""viewing_time"":6963.540000000648},{""page_index"":1,""viewing_time"":6446.410000000469},{""page_index"":2,""viewing_time"":4549.66499999864},{""page_index"":3,""viewing_time"":1156.1500000025262},{""page_index"":4,""viewing_time"":1850.3899999996065}]","20966.36000000217","instructions","8","160309","0.0-8.0","SS1619740116547","instructions","","","","","","","","","","","","","","","",""
"","null","html-keyboard-response","9","161370","0.0-9.0-0.0","SS1619740116547","","","null","","","","","","<p><img src= images/blank.png width =""600"" height = ""600"" style=""position:fixed;top:50%; left:50%; transform: translate(-50%, -50%); border:5px solid black"">","","","","","","","",""
"","115.09499999738182","sequential-stimulus-presentation-old","10","176488","0.0-9.0-1.0","SS1619740116547","trial","","40","500","615.0949999973818","images/stimuli/spore_stims/complex_17_A_b.gif","images/stimuli/spore_stims/complex_09_A_a.gif","forced_long","","0","complex_dissimilar","images/stimuli/spore_stims/complex_09_A_a.gif","","","","",""
"","null","html-keyboard-response","11","177707","0.0-9.0-0.1","SS1619740116547","","","null","","","","","","<p><img src= images/blank.png width =""600"" height = ""600"" style=""position:fixed;top:50%; left:50%; transform: translate(-50%, -50%); border:5px solid black"">","","","","","","","",""
"","229.14999999920838","sequential-stimulus-presentation-old","12","178439","0.0-9.0-1.1","SS1619740116547","trial","","40","500","729.1499999992084","images/stimuli/spore_stims/complex_17_A_b.gif","images/stimuli/spore_stims/complex_09_A_a.gif","forced_long","","0","complex_dissimilar","images/stimuli/spore_stims/complex_09_A_a.gif","","","","",""
"","null","html-keyboard-response","13","179300","0.0-9.0-0.2","SS1619740116547","","","null","","","","","","<p><img src= images/blank.png width =""600"" height = ""600"" style=""position:fixed;top:50%; left:50%; transform: translate(-50%, -50%); border:5px solid black"">","","","","","","","",""
"","10987.255000000005","sequential-stimulus-presentation-old","14","190789","0.0-9.0-1.2","SS1619740116547","trial","","40","500","11487.255000000005","images/stimuli/spore_stims/complex_17_A_b.gif","images/stimuli/spore_stims/complex_09_A_a.gif","forced_long","","0","complex_dissimilar","images/stimuli/spore_stims/complex_09_A_a.gif","","","","",""
"","null","html-keyboard-response","15","191837","0.0-9.0-0.3","SS1619740116547","","","null","","","","","","<p><img src= images/blank.png width =""600"" height = ""600"" style=""position:fixed;top:50%; left:50%; transform: translate(-50%, -50%); border:5px solid black"">","","","","","","","",""
"","797.1399999987625","sequential-stimulus-presentation-old","16","193139","0.0-9.0-1.3","SS1619740116547","trial","","40","500","1297.1399999987625","images/stimuli/spore_stims/complex_17_A_b.gif","images/stimuli/spore_stims/complex_09_A_a.gif","forced_long","","0","complex_dissimilar","images/stimuli/spore_stims/complex_09_A_a.gif","","","","",""
"","null","html-keyboard-response","17","194137","0.0-9.0-0.4","SS1619740116547","","","null","","","","","","<p><img src= images/blank.png width =""600"" height = ""600"" style=""position:fixed;top:50%; left:50%; transform: translate(-50%, -50%); border:5px solid black"">","","","","","","","",""
"","1550.0400000019","sequential-stimulus-presentation-old","18","196190","0.0-9.0-1.4","SS1619740116547","trial","","40","500","2050.0400000019","images/stimuli/spore_stims/complex_17_A_b.gif","images/stimuli/spore_stims/complex_09_A_a.gif","forced_long","","0","complex_dissimilar","images/stimuli/spore_stims/complex_09_A_a.gif","","","","",""
"","3009.4650000028196","survey-multi-choice","19","199207","0.0-10.0","SS1619740116547","math_question","","","","","","","","","","","","{""Q0"":""15""}","[0]","15","",""
"","null","html-keyboard-response","20","200166","0.0-11.0-0.0","SS1619740116547","","","null","","","","","","<p><img src= images/blank.png width =""600"" height = ""600"" style=""position:fixed;top:50%; left:50%; transform: translate(-50%, -50%); border:5px solid black"">","","","","","","","",""
"","3485.8750000021246","sequential-stimulus-presentation-old","21","218670","0.0-11.0-1.0","SS1619740116547","trial","","40","500","3985.8750000021246","images/stimuli/spore_stims/simple_11_A_b.gif","images/stimuli/spore_stims/simple_02_A_a.gif","forced_long","","1","simple_dissimilar","images/stimuli/spore_stims/simple_02_A_a.gif","","","","",""
"","null","html-keyboard-response","22","219621","0.0-11.0-0.1","SS1619740116547","","","null","","","","","","<p><img src= images/blank.png width =""600"" height = ""600"" style=""position:fixed;top:50%; left:50%; transform: translate(-50%, -50%); border:5px solid black"">","","","","","","","",""
"","6103.705000001355","sequential-stimulus-presentation-old","23","226229","0.0-11.0-1.1","SS1619740116547","trial","","40","500","6603.705000001355","images/stimuli/spore_stims/simple_11_A_b.gif","images/stimuli/spore_stims/simple_02_A_a.gif","forced_long","","1","simple_dissimilar","images/stimuli/spore_stims/simple_11_A_b.gif","","","","",""
"","null","html-keyboard-response","24","227044","0.0-11.0-0.2","SS1619740116547","","","null","","","","","","<p><img src= images/blank.png width =""600"" height = ""600"" style=""position:fixed;top:50%; left:50%; transform: translate(-50%, -50%); border:5px solid black"">","","","","","","","",""
"","4662.130000000616","sequential-stimulus-presentation-old","25","232209","0.0-11.0-1.2","SS1619740116547","trial","","40","500","5162.130000000616","images/stimuli/spore_stims/simple_11_A_b.gif","images/stimuli/spore_stims/simple_02_A_a.gif","forced_long","","1","simple_dissimilar","images/stimuli/spore_stims/simple_02_A_a.gif","","","","",""
"","null","html-keyboard-response","26","233321","0.0-11.0-0.3","SS1619740116547","","","null","","","","","","<p><img src= images/blank.png width =""600"" height = ""600"" style=""position:fixed;top:50%; left:50%; transform: translate(-50%, -50%); border:5px solid black"">","","","","","","","",""
"","1245.0799999969604","sequential-stimulus-presentation-old","27","235069","0.0-11.0-1.3","SS1619740116547","trial","","40","500","1745.0799999969604","images/stimuli/spore_stims/simple_11_A_b.gif","images/stimuli/spore_stims/simple_02_A_a.gif","forced_long","","1","simple_dissimilar","images/stimuli/spore_stims/simple_02_A_a.gif","","","","",""
"","null","html-keyboard-response","28","235893","0.0-11.0-0.4","SS1619740116547","","","null","","","","","","<p><img src= images/blank.png width =""600"" height = ""600"" style=""position:fixed;top:50%; left:50%; transform: translate(-50%, -50%); border:5px solid black"">","","","","","","","",""
"","54.03500000102213","sequential-stimulus-presentation-old","29","236449","0.0-11.0-1.4","SS1619740116547","trial","","40","500","554.0350000010221","images/stimuli/spore_stims/simple_11_A_b.gif","images/stimuli/spore_stims/simple_02_A_a.gif","forced_long","","1","simple_dissimilar","images/stimuli/spore_stims/simple_11_A_b.gif","","","","",""
"","2198.679999997694","survey-multi-choice","30","238649","0.0-12.0","SS1619740116547","math_question","","","","","","","","","","","","{""Q0"":""3""}","[0]","3","",""
"","null","html-keyboard-response","31","239625","0.0-13.0-0.0","SS1619740116547","","","null","","","","","","<p><img src= images/blank.png width =""600"" height = ""600"" style=""position:fixed;top:50%; left:50%; transform: translate(-50%, -50%); border:5px solid black"">","","","","","","","",""
"","5974.865000000165","sequential-stimulus-presentation-old","32","260830","0.0-13.0-1.0","SS1619740116547","trial","","40","500","6474.865000000165","images/stimuli/spore_stims/complex_13_A_a.gif","images/stimuli/spore_stims/complex_09_A_b.gif","forced_long","","2","complex_dissimilar","images/stimuli/spore_stims/complex_09_A_b.gif","","","","",""
"","null","html-keyboard-response","33","262016","0.0-13.0-0.1","SS1619740116547","","","null","","","","","","<p><img src= images/blank.png width =""600"" height = ""600"" style=""position:fixed;top:50%; left:50%; transform: translate(-50%, -50%); border:5px solid black"">","","","","","","","",""
"","3482.18999999878","sequential-stimulus-presentation-old","34","266001","0.0-13.0-1.1","SS1619740116547","trial","","40","500","3982.18999999878","images/stimuli/spore_stims/complex_13_A_a.gif","images/stimuli/spore_stims/complex_09_A_b.gif","forced_long","","2","complex_dissimilar","images/stimuli/spore_stims/complex_09_A_b.gif","","","","",""
"","null","html-keyboard-response","35","267194","0.0-13.0-0.2","SS1619740116547","","","null","","","","","","<p><img src= images/blank.png width =""600"" height = ""600"" style=""position:fixed;top:50%; left:50%; transform: translate(-50%, -50%); border:5px solid black"">","","","","","","","",""
"","4721.870000001276","sequential-stimulus-presentation-old","36","272421","0.0-13.0-1.2","SS1619740116547","trial","","40","500","5221.870000001276","images/stimuli/spore_stims/complex_13_A_a.gif","images/stimuli/spore_stims/complex_09_A_b.gif","forced_long","","2","complex_dissimilar","images/stimuli/spore_stims/complex_09_A_b.gif","","","","",""
"","null","html-keyboard-response","37","273697","0.0-13.0-0.3","SS1619740116547","","","null","","","","","","<p><img src= images/blank.png width =""600"" height = ""600"" style=""position:fixed;top:50%; left:50%; transform: translate(-50%, -50%); border:5px solid black"">","","","","","","","",""
"","3453.109999998531","sequential-stimulus-presentation-old","38","277654","0.0-13.0-1.3","SS1619740116547","trial","","40","500","3953.109999998531","images/stimuli/spore_stims/complex_13_A_a.gif","images/stimuli/spore_stims/complex_09_A_b.gif","forced_long","","2","complex_dissimilar","images/stimuli/spore_stims/complex_09_A_b.gif","","","","",""
"","null","html-keyboard-response","39","278698","0.0-13.0-0.4","SS1619740116547","","","null","","","","","","<p><img src= images/blank.png width =""600"" height = ""600"" style=""position:fixed;top:50%; left:50%; transform: translate(-50%, -50%); border:5px solid black"">","","","","","","","",""
"","649.6200000001118","sequential-stimulus-presentation-old","40","279851","0.0-13.0-1.4","SS1619740116547","trial","","40","500","1149.6200000001118","images/stimuli/spore_stims/complex_13_A_a.gif","images/stimuli/spore_stims/complex_09_A_b.gif","forced_long","","2","complex_dissimilar","images/stimuli/spore_stims/complex_09_A_b.gif","","","","",""
"","null","html-keyboard-response","41","280786","0.0-13.0-0.5","SS1619740116547","","","null","","","","","","<p><img src= images/blank.png width =""600"" height = ""600"" style=""position:fixed;top:50%; left:50%; transform: translate(-50%, -50%); border:5px solid black"">","","","","","","","",""
"","561.6049999989918","sequential-stimulus-presentation-old","42","281852","0.0-13.0-1.5","SS1619740116547","trial","","40","500","1061.6049999989918","images/stimuli/spore_stims/complex_13_A_a.gif","images/stimuli/spore_stims/complex_09_A_b.gif","forced_long","","2","complex_dissimilar","images/stimuli/spore_stims/complex_09_A_b.gif","","","","",""
"","2924.650000000838","survey-multi-choice","43","284782","0.0-14.0","SS1619740116547","math_question","","","","","","","","","","","","{""Q0"":""6""}","[0]","6","",""
"","null","html-keyboard-response","44","286105","0.0-15.0-0.0","SS1619740116547","","","null","","","","","","<p><img src= images/blank.png width =""600"" height = ""600"" style=""position:fixed;top:50%; left:50%; transform: translate(-50%, -50%); border:5px solid black"">","","","","","","","",""
"","3096.82000000251","sequential-stimulus-presentation-old","45","289705","0.0-15.0-1.0","SS1619740116547","trial","","40","500","3596.82000000251","images/stimuli/spore_stims/simple_06_A_b.gif","images/stimuli/spore_stims/simple_09_A_a.gif","forced_short","","3","simple_dissimilar","images/stimuli/spore_stims/simple_09_A_a.gif","","","","",""
"","null","html-keyboard-response","46","290798","0.0-15.0-0.1","SS1619740116547","","","null","","","","","","<p><img src= images/blank.png width =""600"" height = ""600"" style=""position:fixed;top:50%; left:50%; transform: translate(-50%, -50%); border:5px solid black"">","","","","","","","",""
"","242.93499999842606","sequential-stimulus-presentation-old","47","291550","0.0-15.0-1.1","SS1619740116547","trial","","40","500","742.9349999984261","images/stimuli/spore_stims/simple_06_A_b.gif","images/stimuli/spore_stims/simple_09_A_a.gif","forced_short","","3","simple_dissimilar","images/stimuli/spore_stims/simple_09_A_a.gif","","","","",""
"","null","html-keyboard-response","48","292580","0.0-15.0-0.2","SS1619740116547","","","null","","","","","","<p><img src= images/blank.png width =""600"" height = ""600"" style=""position:fixed;top:50%; left:50%; transform: translate(-50%, -50%); border:5px solid black"">","","","","","","","",""
"","3015.755000000354","sequential-stimulus-presentation-old","49","296100","0.0-15.0-1.2","SS1619740116547","trial","","40","500","3515.755000000354","images/stimuli/spore_stims/simple_06_A_b.gif","images/stimuli/spore_stims/simple_09_A_a.gif","forced_short","","3","simple_dissimilar","images/stimuli/spore_stims/simple_06_A_b.gif","","","","",""
"","null","html-keyboard-response","50","297076","0.0-15.0-0.3","SS1619740116547","","","null","","","","","","<p><img src= images/blank.png width =""600"" height = ""600"" style=""position:fixed;top:50%; left:50%; transform: translate(-50%, -50%); border:5px solid black"">","","","","","","","",""
"","519.6700000014971","sequential-stimulus-presentation-old","51","298102","0.0-15.0-1.3","SS1619740116547","trial","","40","500","1019.6700000014971","images/stimuli/spore_stims/simple_06_A_b.gif","images/stimuli/spore_stims/simple_09_A_a.gif","forced_short","","3","simple_dissimilar","images/stimuli/spore_stims/simple_09_A_a.gif","","","","",""
"","2143.289999999921","survey-multi-choice","52","300248","0.0-16.0","SS1619740116547","math_question","","","","","","","","","","","","{""Q0"":""9""}","[0]","9","",""
"","null","html-keyboard-response","53","301515","0.0-17.0-0.0","SS1619740116547","","","null","","","","","","<p><img src= images/blank.png width =""600"" height = ""600"" style=""position:fixed;top:50%; left:50%; transform: translate(-50%, -50%); border:5px solid black"">","","","","","","","",""
"","4962.499999997788","sequential-stimulus-presentation-old","54","306981","0.0-17.0-1.0","SS1619740116547","trial","","40","500","5462.499999997788","images/stimuli/spore_stims/complex_12_A_a.gif","images/stimuli/spore_stims/complex_03_A_b.gif","self_paced","","4","complex_dissimilar","images/stimuli/spore_stims/complex_03_A_b.gif","","","","",""
"","null","html-keyboard-response","55","308192","0.0-17.0-0.1","SS1619740116547","","","null","","","","","","<p><img src= images/blank.png width =""600"" height = ""600"" style=""position:fixed;top:50%; left:50%; transform: translate(-50%, -50%); border:5px solid black"">","","","","","","","",""
"","1534.7099999999627","sequential-stimulus-presentation-old","56","310233","0.0-17.0-1.1","SS1619740116547","trial","","40","500","2034.7099999999627","images/stimuli/spore_stims/complex_12_A_a.gif","images/stimuli/spore_stims/complex_03_A_b.gif","self_paced","","4","complex_dissimilar","images/stimuli/spore_stims/complex_03_A_b.gif","","","","",""
"","null","html-keyboard-response","57","311066","0.0-17.0-0.2","SS1619740116547","","","null","","","","","","<p><img src= images/blank.png width =""600"" height = ""600"" style=""position:fixed;top:50%; left:50%; transform: translate(-50%, -50%); border:5px solid black"">","","","","","","","",""
"","2369.059999997262","sequential-stimulus-presentation-old","58","313941","0.0-17.0-1.2","SS1619740116547","trial","","40","500","2869.059999997262","images/stimuli/spore_stims/complex_12_A_a.gif","images/stimuli/spore_stims/complex_03_A_b.gif","self_paced","","4","complex_dissimilar","images/stimuli/spore_stims/complex_12_A_a.gif","","","","",""
"","null","html-keyboard-response","59","315123","0.0-17.0-0.3","SS1619740116547","","","null","","","","","","<p><img src= images/blank.png width =""600"" height = ""600"" style=""position:fixed;top:50%; left:50%; transform: translate(-50%, -50%); border:5px solid black"">","","","","","","","",""
"","2096.1050000005052","sequential-stimulus-presentation-old","60","317722","0.0-17.0-1.3","SS1619740116547","trial","","40","500","2596.1050000005052","images/stimuli/spore_stims/complex_12_A_a.gif","images/stimuli/spore_stims/complex_03_A_b.gif","self_paced","","4","complex_dissimilar","images/stimuli/spore_stims/complex_03_A_b.gif","","","","",""
"","null","html-keyboard-response","61","318748","0.0-17.0-0.4","SS1619740116547","","","null","","","","","","<p><img src= images/blank.png width =""600"" height = ""600"" style=""position:fixed;top:50%; left:50%; transform: translate(-50%, -50%); border:5px solid black"">","","","","","","","",""
"","168.87499999941792","sequential-stimulus-presentation-old","62","319423","0.0-17.0-1.4","SS1619740116547","trial","","40","500","668.8749999994179","images/stimuli/spore_stims/complex_12_A_a.gif","images/stimuli/spore_stims/complex_03_A_b.gif","self_paced","","4","complex_dissimilar","images/stimuli/spore_stims/complex_03_A_b.gif","","","","",""
"","2310.5949999989825","survey-multi-choice","63","321738","0.0-18.0","SS1619740116547","math_question","","","","","","","","","","","","{""Q0"":""10""}","[0]","10","",""
"","null","html-keyboard-response","64","322742","0.0-19.0-0.0","SS1619740116547","","","null","","","","","","<p><img src= images/blank.png width =""600"" height = ""600"" style=""position:fixed;top:50%; left:50%; transform: translate(-50%, -50%); border:5px solid black"">","","","","","","","",""
"","7117.459999997634","sequential-stimulus-presentation-old","65","344864","0.0-19.0-1.0","SS1619740116547","trial","","40","500","7617.459999997634","images/stimuli/spore_stims/simple_15_A_a.gif","images/stimuli/spore_stims/simple_07_A_b.gif","forced_long","","5","simple_dissimilar","images/stimuli/spore_stims/simple_07_A_b.gif","","","","",""
"","null","html-keyboard-response","66","346127","0.0-19.0-0.1","SS1619740116547","","","null","","","","","","<p><img src= images/blank.png width =""600"" height = ""600"" style=""position:fixed;top:50%; left:50%; transform: translate(-50%, -50%); border:5px solid black"">","","","","","","","",""
"","698.3000000000466","sequential-stimulus-presentation-old","67","347332","0.0-19.0-1.1","SS1619740116547","trial","","40","500","1198.3000000000466","images/stimuli/spore_stims/simple_15_A_a.gif","images/stimuli/spore_stims/simple_07_A_b.gif","forced_long","","5","simple_dissimilar","images/stimuli/spore_stims/simple_07_A_b.gif","","","","",""
"","null","html-keyboard-response","68","348405","0.0-19.0-0.2","SS1619740116547","","","null","","","","","","<p><img src= images/blank.png width =""600"" height = ""600"" style=""position:fixed;top:50%; left:50%; transform: translate(-50%, -50%); border:5px solid black"">","","","","","","","",""
"","472.620000000461","sequential-stimulus-presentation-old","69","349383","0.0-19.0-1.2","SS1619740116547","trial","","40","500","972.620000000461","images/stimuli/spore_stims/simple_15_A_a.gif","images/stimuli/spore_stims/simple_07_A_b.gif","forced_long","","5","simple_dissimilar","images/stimuli/spore_stims/simple_15_A_a.gif","","","","",""
"","null","html-keyboard-response","70","350680","0.0-19.0-0.3","SS1619740116547","","","null","","","","","","<p><img src= images/blank.png width =""600"" height = ""600"" style=""position:fixed;top:50%; left:50%; transform: translate(-50%, -50%); border:5px solid black"">","","","","","","","",""
"","149.31999999680556","sequential-stimulus-presentation-old","71","351332","0.0-19.0-1.3","SS1619740116547","trial","","40","500","649.3199999968056","images/stimuli/spore_stims/simple_15_A_a.gif","images/stimuli/spore_stims/simple_07_A_b.gif","forced_long","","5","simple_dissimilar","images/stimuli/spore_stims/simple_07_A_b.gif","","","","",""
"","null","html-keyboard-response","72","352572","0.0-19.0-0.4","SS1619740116547","","","null","","","","","","<p><img src= images/blank.png width =""600"" height = ""600"" style=""position:fixed;top:50%; left:50%; transform: translate(-50%, -50%); border:5px solid black"">","","","","","","","",""
"","339.6649999995134","sequential-stimulus-presentation-old","73","353415","0.0-19.0-1.4","SS1619740116547","trial","","40","500","839.6649999995134","images/stimuli/spore_stims/simple_15_A_a.gif","images/stimuli/spore_stims/simple_07_A_b.gif","forced_long","","5","simple_dissimilar","images/stimuli/spore_stims/simple_07_A_b.gif","","","","",""
"","null","html-keyboard-response","74","354695","0.0-19.0-0.5","SS1619740116547","","","null","","","","","","<p><img src= images/blank.png width =""600"" height = ""600"" style=""position:fixed;top:50%; left:50%; transform: translate(-50%, -50%); border:5px solid black"">","","","","","","","",""
"","473.12999999849126","sequential-stimulus-presentation-old","75","355674","0.0-19.0-1.5","SS1619740116547","trial","","40","500","973.1299999984913","images/stimuli/spore_stims/simple_15_A_a.gif","images/stimuli/spore_stims/simple_07_A_b.gif","forced_long","","5","simple_dissimilar","images/stimuli/spore_stims/simple_15_A_a.gif","","","","",""
"","2390.690000000177","survey-multi-choice","76","358068","0.0-20.0","SS1619740116547","math_question","","","","","","","","","","","","{""Q0"":""11""}","[0]","11","",""
"","null","html-keyboard-response","77","359030","0.0-21.0-0.0","SS1619740116547","","","null","","","","","","<p><img src= images/blank.png width =""600"" height = ""600"" style=""position:fixed;top:50%; left:50%; transform: translate(-50%, -50%); border:5px solid black"">","","","","","","","",""
"","1317.5799999990268","sequential-stimulus-presentation-old","78","360852","0.0-21.0-1.0","SS1619740116547","trial","","40","500","1817.5799999990268","images/stimuli/spore_stims/complex_15_A_b.gif","images/stimuli/spore_stims/complex_16_A_a.gif","forced_short","","6","complex_dissimilar","images/stimuli/spore_stims/complex_16_A_a.gif","","","","",""
"","null","html-keyboard-response","79","361919","0.0-21.0-0.1","SS1619740116547","","","null","","","","","","<p><img src= images/blank.png width =""600"" height = ""600"" style=""position:fixed;top:50%; left:50%; transform: translate(-50%, -50%); border:5px solid black"">","","","","","","","",""
"","1570.9649999989779","sequential-stimulus-presentation-old","80","363996","0.0-21.0-1.1","SS1619740116547","trial","","40","500","2070.964999998978","images/stimuli/spore_stims/complex_15_A_b.gif","images/stimuli/spore_stims/complex_16_A_a.gif","forced_short","","6","complex_dissimilar","images/stimuli/spore_stims/complex_16_A_a.gif","","","","",""
"","null","html-keyboard-response","81","365265","0.0-21.0-0.2","SS1619740116547","","","null","","","","","","<p><img src= images/blank.png width =""600"" height = ""600"" style=""position:fixed;top:50%; left:50%; transform: translate(-50%, -50%); border:5px solid black"">","","","","","","","",""
"","460.24000000033993","sequential-stimulus-presentation-old","82","366233","0.0-21.0-1.2","SS1619740116547","trial","","40","500","960.2400000003399","images/stimuli/spore_stims/complex_15_A_b.gif","images/stimuli/spore_stims/complex_16_A_a.gif","forced_short","","6","complex_dissimilar","images/stimuli/spore_stims/complex_16_A_a.gif","","","","",""
"","null","html-keyboard-response","83","367077","0.0-21.0-0.3","SS1619740116547","","","null","","","","","","<p><img src= images/blank.png width =""600"" height = ""600"" style=""position:fixed;top:50%; left:50%; transform: translate(-50%, -50%); border:5px solid black"">","","","","","","","",""
"","711.6449999994365","sequential-stimulus-presentation-old","84","368292","0.0-21.0-1.3","SS1619740116547","trial","","40","500","1211.6449999994365","images/stimuli/spore_stims/complex_15_A_b.gif","images/stimuli/spore_stims/complex_16_A_a.gif","forced_short","","6","complex_dissimilar","images/stimuli/spore_stims/complex_15_A_b.gif","","","","",""
"","1874.9150000003283","survey-multi-choice","85","370168","0.0-22.0","SS1619740116547","math_question","","","","","","","","","","","","{""Q0"":""7""}","[0]","7","",""
"","null","html-keyboard-response","86","371421","0.0-23.0-0.0","SS1619740116547","","","null","","","","","","<p><img src= images/blank.png width =""600"" height = ""600"" style=""position:fixed;top:50%; left:50%; transform: translate(-50%, -50%); border:5px solid black"">","","","","","","","",""
"","2718.539999998058","sequential-stimulus-presentation-old","87","374642","0.0-23.0-1.0","SS1619740116547","trial","","40","500","3218.539999998058","images/stimuli/spore_stims/simple_15_A_b.gif","images/stimuli/spore_stims/simple_18_A_a.gif","self_paced","","7","simple_dissimilar","images/stimuli/spore_stims/simple_18_A_a.gif","","","","",""
"","null","html-keyboard-response","88","375651","0.0-23.0-0.1","SS1619740116547","","","null","","","","","","<p><img src= images/blank.png width =""600"" height = ""600"" style=""position:fixed;top:50%; left:50%; transform: translate(-50%, -50%); border:5px solid black"">","","","","","","","",""
"","809.064999997674","sequential-stimulus-presentation-old","89","376963","0.0-23.0-1.1","SS1619740116547","trial","","40","500","1309.064999997674","images/stimuli/spore_stims/simple_15_A_b.gif","images/stimuli/spore_stims/simple_18_A_a.gif","self_paced","","7","simple_dissimilar","images/stimuli/spore_stims/simple_18_A_a.gif","","","","",""
"","null","html-keyboard-response","90","377874","0.0-23.0-0.2","SS1619740116547","","","null","","","","","","<p><img src= images/blank.png width =""600"" height = ""600"" style=""position:fixed;top:50%; left:50%; transform: translate(-50%, -50%); border:5px solid black"">","","","","","","","",""
"","164.94999999855645","sequential-stimulus-presentation-old","91","378542","0.0-23.0-1.2","SS1619740116547","trial","","40","500","664.9499999985565","images/stimuli/spore_stims/simple_15_A_b.gif","images/stimuli/spore_stims/simple_18_A_a.gif","self_paced","","7","simple_dissimilar","images/stimuli/spore_stims/simple_18_A_a.gif","","","","",""
"","null","html-keyboard-response","92","379739","0.0-23.0-0.3","SS1619740116547","","","null","","","","","","<p><img src= images/blank.png width =""600"" height = ""600"" style=""position:fixed;top:50%; left:50%; transform: translate(-50%, -50%); border:5px solid black"">","","","","","","","",""
"","27.650000000023283","sequential-stimulus-presentation-old","93","380272","0.0-23.0-1.3","SS1619740116547","trial","","40","500","527.6500000000233","images/stimuli/spore_stims/simple_15_A_b.gif","images/stimuli/spore_stims/simple_18_A_a.gif","self_paced","","7","simple_dissimilar","images/stimuli/spore_stims/simple_18_A_a.gif","","","","",""
"","2440.9450000021607","survey-multi-choice","94","382715","0.0-24.0","SS1619740116547","math_question","","","","","","","","","","","","{""Q0"":""10""}","[0]","10","",""
"","null","html-keyboard-response","95","383696","0.0-25.0-0.0","SS1619740116547","","","null","","","","","","<p><img src= images/blank.png width =""600"" height = ""600"" style=""position:fixed;top:50%; left:50%; transform: translate(-50%, -50%); border:5px solid black"">","","","","","","","",""
"","2643.0550000004587","sequential-stimulus-presentation-old","96","386842","0.0-25.0-1.0","SS1619740116547","trial","","40","500","3143.0550000004587","images/stimuli/spore_stims/simple_16_A_a.gif","images/stimuli/spore_stims/simple_19_A_b.gif","self_paced","","8","simple_dissimilar","images/stimuli/spore_stims/simple_19_A_b.gif","","","","",""
"","null","html-keyboard-response","97","387857","0.0-25.0-0.1","SS1619740116547","","","null","","","","","","<p><img src= images/blank.png width =""600"" height = ""600"" style=""position:fixed;top:50%; left:50%; transform: translate(-50%, -50%); border:5px solid black"">","","","","","","","",""
"","112.38500000035856","sequential-stimulus-presentation-old","98","388473","0.0-25.0-1.1","SS1619740116547","trial","","40","500","612.3850000003586","images/stimuli/spore_stims/simple_16_A_a.gif","images/stimuli/spore_stims/simple_19_A_b.gif","self_paced","","8","simple_dissimilar","images/stimuli/spore_stims/simple_19_A_b.gif","","","","",""
"","null","html-keyboard-response","99","389483","0.0-25.0-0.2","SS1619740116547","","","null","","","","","","<p><img src= images/blank.png width =""600"" height = ""600"" style=""position:fixed;top:50%; left:50%; transform: translate(-50%, -50%); border:5px solid black"">","","","","","","","",""
"","425.99500000145053","sequential-stimulus-presentation-old","100","390416","0.0-25.0-1.2","SS1619740116547","trial","","40","500","925.9950000014505","images/stimuli/spore_stims/simple_16_A_a.gif","images/stimuli/spore_stims/simple_19_A_b.gif","self_paced","","8","simple_dissimilar","images/stimuli/spore_stims/simple_19_A_b.gif","","","","",""
"","null","html-keyboard-response","101","391492","0.0-25.0-0.3","SS1619740116547","","","null","","","","","","<p><img src= images/blank.png width =""600"" height = ""600"" style=""position:fixed;top:50%; left:50%; transform: translate(-50%, -50%); border:5px solid black"">","","","","","","","",""
"","208.46000000170898","sequential-stimulus-presentation-old","102","392203","0.0-25.0-1.3","SS1619740116547","trial","","40","500","708.460000001709","images/stimuli/spore_stims/simple_16_A_a.gif","images/stimuli/spore_stims/simple_19_A_b.gif","self_paced","","8","simple_dissimilar","images/stimuli/spore_stims/simple_19_A_b.gif","","","","",""
"","2595.8299999983283","survey-multi-choice","103","394801","0.0-26.0","SS1619740116547","math_question","","","","","","","","","","","","{""Q0"":""8""}","[0]","8","",""
"","null","html-keyboard-response","104","395901","0.0-27.0-0.0","SS1619740116547","","","null","","","","","","<p><img src= images/blank.png width =""600"" height = ""600"" style=""position:fixed;top:50%; left:50%; transform: translate(-50%, -50%); border:5px solid black"">","","","","","","","",""
"","4049.940000000759","sequential-stimulus-presentation-old","105","400454","0.0-27.0-1.0","SS1619740116547","trial","","40","500","4549.940000000759","images/stimuli/spore_stims/complex_14_A_a.gif","images/stimuli/spore_stims/complex_02_A_b.gif","forced_short","","9","complex_dissimilar","images/stimuli/spore_stims/complex_02_A_b.gif","","","","",""
"","null","html-keyboard-response","106","401552","0.0-27.0-0.1","SS1619740116547","","","null","","","","","","<p><img src= images/blank.png width =""600"" height = ""600"" style=""position:fixed;top:50%; left:50%; transform: translate(-50%, -50%); border:5px solid black"">","","","","","","","",""
"","1977.1699999982957","sequential-stimulus-presentation-old","107","404033","0.0-27.0-1.1","SS1619740116547","trial","","40","500","2477.1699999982957","images/stimuli/spore_stims/complex_14_A_a.gif","images/stimuli/spore_stims/complex_02_A_b.gif","forced_short","","9","complex_dissimilar","images/stimuli/spore_stims/complex_02_A_b.gif","","","","",""
"","null","html-keyboard-response","108","405177","0.0-27.0-0.2","SS1619740116547","","","null","","","","","","<p><img src= images/blank.png width =""600"" height = ""600"" style=""position:fixed;top:50%; left:50%; transform: translate(-50%, -50%); border:5px solid black"">","","","","","","","",""
"","450.67999999813037","sequential-stimulus-presentation-old","109","406133","0.0-27.0-1.2","SS1619740116547","trial","","40","500","950.6799999981304","images/stimuli/spore_stims/complex_14_A_a.gif","images/stimuli/spore_stims/complex_02_A_b.gif","forced_short","","9","complex_dissimilar","images/stimuli/spore_stims/complex_02_A_b.gif","","","","",""
"","null","html-keyboard-response","110","407257","0.0-27.0-0.3","SS1619740116547","","","null","","","","","","<p><img src= images/blank.png width =""600"" height = ""600"" style=""position:fixed;top:50%; left:50%; transform: translate(-50%, -50%); border:5px solid black"">","","","","","","","",""
"","745.6050000000978","sequential-stimulus-presentation-old","111","408506","0.0-27.0-1.3","SS1619740116547","trial","","40","500","1245.6050000000978","images/stimuli/spore_stims/complex_14_A_a.gif","images/stimuli/spore_stims/complex_02_A_b.gif","forced_short","","9","complex_dissimilar","images/stimuli/spore_stims/complex_02_A_b.gif","","","","",""
"","null","html-keyboard-response","112","409673","0.0-27.0-0.4","SS1619740116547","","","null","","","","","","<p><img src= images/blank.png width =""600"" height = ""600"" style=""position:fixed;top:50%; left:50%; transform: translate(-50%, -50%); border:5px solid black"">","","","","","","","",""
"","306.62999999907333","sequential-stimulus-presentation-old","113","410485","0.0-27.0-1.4","SS1619740116547","trial","","40","500","806.6299999990733","images/stimuli/spore_stims/complex_14_A_a.gif","images/stimuli/spore_stims/complex_02_A_b.gif","forced_short","","9","complex_dissimilar","images/stimuli/spore_stims/complex_02_A_b.gif","","","","",""
"","2202.870000001043","survey-multi-choice","114","412693","0.0-28.0","SS1619740116547","math_question","","","","","","","","","","","","{""Q0"":""4""}","[0]","4","",""
"","null","html-keyboard-response","115","413547","0.0-29.0-0.0","SS1619740116547","","","null","","","","","","<p><img src= images/blank.png width =""600"" height = ""600"" style=""position:fixed;top:50%; left:50%; transform: translate(-50%, -50%); border:5px solid black"">","","","","","","","",""
"","2582.859999998589","sequential-stimulus-presentation-old","116","416633","0.0-29.0-1.0","SS1619740116547","trial","","40","500","3082.859999998589","images/stimuli/spore_stims/simple_11_A_a.gif","images/stimuli/spore_stims/simple_01_A_b.gif","forced_short","","10","simple_dissimilar","images/stimuli/spore_stims/simple_01_A_b.gif","","","","",""
"","null","html-keyboard-response","117","417910","0.0-29.0-0.1","SS1619740116547","","","null","","","","","","<p><img src= images/blank.png width =""600"" height = ""600"" style=""position:fixed;top:50%; left:50%; transform: translate(-50%, -50%); border:5px solid black"">","","","","","","","",""
"","8184.839999998047","sequential-stimulus-presentation-old","118","426603","0.0-29.0-1.1","SS1619740116547","trial","","40","500","8684.839999998047","images/stimuli/spore_stims/simple_11_A_a.gif","images/stimuli/spore_stims/simple_01_A_b.gif","forced_short","","10","simple_dissimilar","images/stimuli/spore_stims/simple_01_A_b.gif","","","","",""
"","null","html-keyboard-response","119","427874","0.0-29.0-0.2","SS1619740116547","","","null","","","","","","<p><img src= images/blank.png width =""600"" height = ""600"" style=""position:fixed;top:50%; left:50%; transform: translate(-50%, -50%); border:5px solid black"">","","","","","","","",""
"","34346.04499999841","sequential-stimulus-presentation-old","120","462724","0.0-29.0-1.2","SS1619740116547","trial","","40","500","34846.04499999841","images/stimuli/spore_stims/simple_11_A_a.gif","images/stimuli/spore_stims/simple_01_A_b.gif","forced_short","","10","simple_dissimilar","images/stimuli/spore_stims/simple_01_A_b.gif","","","","",""
"","null","html-keyboard-response","121","463902","0.0-29.0-0.3","SS1619740116547","","","null","","","","","","<p><img src= images/blank.png width =""600"" height = ""600"" style=""position:fixed;top:50%; left:50%; transform: translate(-50%, -50%); border:5px solid black"">","","","","","","","",""
"","148.45999999670312","sequential-stimulus-presentation-old","122","464554","0.0-29.0-1.3","SS1619740116547","trial","","40","500","648.4599999967031","images/stimuli/spore_stims/simple_11_A_a.gif","images/stimuli/spore_stims/simple_01_A_b.gif","forced_short","","10","simple_dissimilar","images/stimuli/spore_stims/simple_01_A_b.gif","","","","",""
"","null","html-keyboard-response","123","465755","0.0-29.0-0.4","SS1619740116547","","","null","","","","","","<p><img src= images/blank.png width =""600"" height = ""600"" style=""position:fixed;top:50%; left:50%; transform: translate(-50%, -50%); border:5px solid black"">","","","","","","","",""
"","9185.335000001942","sequential-stimulus-presentation-old","124","475444","0.0-29.0-1.4","SS1619740116547","trial","","40","500","9685.335000001942","images/stimuli/spore_stims/simple_11_A_a.gif","images/stimuli/spore_stims/simple_01_A_b.gif","forced_short","","10","simple_dissimilar","images/stimuli/spore_stims/simple_01_A_b.gif","","","","",""
"","null","html-keyboard-response","125","476280","0.0-29.0-0.5","SS1619740116547","","","null","","","","","","<p><img src= images/blank.png width =""600"" height = ""600"" style=""position:fixed;top:50%; left:50%; transform: translate(-50%, -50%); border:5px solid black"">","","","","","","","",""
"","201.3699999988894","sequential-stimulus-presentation-old","126","476985","0.0-29.0-1.5","SS1619740116547","trial","","40","500","701.3699999988894","images/stimuli/spore_stims/simple_11_A_a.gif","images/stimuli/spore_stims/simple_01_A_b.gif","forced_short","","10","simple_dissimilar","images/stimuli/spore_stims/simple_01_A_b.gif","","","","",""
"","2458.0349999996834","survey-multi-choice","127","479450","0.0-30.0","SS1619740116547","math_question","","","","","","","","","","","","{""Q0"":""10""}","[0]","10","",""
"","null","html-keyboard-response","128","480855","0.0-31.0-0.0","SS1619740116547","","","null","","","","","","<p><img src= images/blank.png width =""600"" height = ""600"" style=""position:fixed;top:50%; left:50%; transform: translate(-50%, -50%); border:5px solid black"">","","","","","","","",""
"","4459.76999999769","sequential-stimulus-presentation-old","129","486315","0.0-31.0-1.0","SS1619740116547","trial","","40","500","4959.76999999769","images/stimuli/spore_stims/complex_13_A_b.gif","images/stimuli/spore_stims/complex_04_A_a.gif","self_paced","","11","complex_dissimilar","images/stimuli/spore_stims/complex_04_A_a.gif","","","","",""
"","null","html-keyboard-response","130","487319","0.0-31.0-0.1","SS1619740116547","","","null","","","","","","<p><img src= images/blank.png width =""600"" height = ""600"" style=""position:fixed;top:50%; left:50%; transform: translate(-50%, -50%); border:5px solid black"">","","","","","","","",""
"","239.3950000005425","sequential-stimulus-presentation-old","131","488065","0.0-31.0-1.1","SS1619740116547","trial","","40","500","739.3950000005425","images/stimuli/spore_stims/complex_13_A_b.gif","images/stimuli/spore_stims/complex_04_A_a.gif","self_paced","","11","complex_dissimilar","images/stimuli/spore_stims/complex_04_A_a.gif","","","","",""
"","null","html-keyboard-response","132","489043","0.0-31.0-0.2","SS1619740116547","","","null","","","","","","<p><img src= images/blank.png width =""600"" height = ""600"" style=""position:fixed;top:50%; left:50%; transform: translate(-50%, -50%); border:5px solid black"">","","","","","","","",""
"","547.2200000004377","sequential-stimulus-presentation-old","133","490095","0.0-31.0-1.2","SS1619740116547","trial","","40","500","1047.2200000004377","images/stimuli/spore_stims/complex_13_A_b.gif","images/stimuli/spore_stims/complex_04_A_a.gif","self_paced","","11","complex_dissimilar","images/stimuli/spore_stims/complex_04_A_a.gif","","","","",""
"","null","html-keyboard-response","134","491029","0.0-31.0-0.3","SS1619740116547","","","null","","","","","","<p><img src= images/blank.png width =""600"" height = ""600"" style=""position:fixed;top:50%; left:50%; transform: translate(-50%, -50%); border:5px solid black"">","","","","","","","",""
"","1549.9600000002538","sequential-stimulus-presentation-old","135","493085","0.0-31.0-1.3","SS1619740116547","trial","","40","500","2049.960000000254","images/stimuli/spore_stims/complex_13_A_b.gif","images/stimuli/spore_stims/complex_04_A_a.gif","self_paced","","11","complex_dissimilar","images/stimuli/spore_stims/complex_04_A_a.gif","","","","",""
"[{""page_index"":0,""viewing_time"":3819.7650000001886}]","3819.969999996829","instructions","136","496908","0.0-32.0","SS1619740116547","instructions","","","","","","","","","","","","","","","",""
"","5883.119999998598","survey-likert","137","502794","0.0-33.0","SS1619740116547","similarity_question","","","","","","","","","","","","{""Q0"":2}","[0]","","images/stimuli/spore_stims/complex_15_A_b.gif","images/stimuli/spore_stims/complex_16_A_a.gif"
"","5455.610000000917","survey-likert","138","508253","0.0-34.0","SS1619740116547","similarity_question","","","","","","","","","","","","{""Q0"":1}","[0]","","images/stimuli/spore_stims/complex_13_A_b.gif","images/stimuli/spore_stims/complex_04_A_a.gif"
"","4426.149999999325","survey-likert","139","512682","0.0-35.0","SS1619740116547","similarity_question","","","","","","","","","","","","{""Q0"":0}","[0]","","images/stimuli/spore_stims/simple_15_A_a.gif","images/stimuli/spore_stims/simple_07_A_b.gif"
"","3601.460000001709","survey-likert","140","516287","0.0-36.0","SS1619740116547","similarity_question","","","","","","","","","","","","{""Q0"":0}","[0]","","images/stimuli/spore_stims/complex_03_A_b.gif","images/stimuli/spore_stims/complex_12_A_a.gif"
"","4224.254999997327","survey-likert","141","520514","0.0-37.0","SS1619740116547","similarity_question","","","","","","","","","","","","{""Q0"":1}","[0]","","images/stimuli/spore_stims/complex_13_A_a.gif","images/stimuli/spore_stims/complex_09_A_b.gif"
"","3364.050000000163","survey-likert","142","523882","0.0-38.0","SS1619740116547","similarity_question","","","","","","","","","","","","{""Q0"":2}","[0]","","images/stimuli/spore_stims/simple_16_A_a.gif","images/stimuli/spore_stims/simple_19_A_b.gif"
"","2416.300000000745","survey-likert","143","526302","0.0-39.0","SS1619740116547","similarity_question","","","","","","","","","","","","{""Q0"":2}","[0]","","images/stimuli/spore_stims/simple_11_A_b.gif","images/stimuli/spore_stims/simple_02_A_a.gif"
"","2619.3200000015786","survey-likert","144","528924","0.0-40.0","SS1619740116547","similarity_question","","","","","","","","","","","","{""Q0"":4}","[0]","","images/stimuli/spore_stims/simple_09_A_a.gif","images/stimuli/spore_stims/simple_06_A_b.gif"
"","6260.800000000047","survey-likert","145","535188","0.0-41.0","SS1619740116547","similarity_question","","","","","","","","","","","","{""Q0"":2}","[0]","","images/stimuli/spore_stims/complex_17_A_b.gif","images/stimuli/spore_stims/complex_09_A_a.gif"
"","2657.6049999967217","survey-likert","146","537848","0.0-42.0","SS1619740116547","similarity_question","","","","","","","","","","","","{""Q0"":0}","[0]","","images/stimuli/spore_stims/simple_11_A_a.gif","images/stimuli/spore_stims/simple_01_A_b.gif"
"","2383.050000000396","survey-likert","147","540235","0.0-43.0","SS1619740116547","similarity_question","","","","","","","","","","","","{""Q0"":0}","[0]","","images/stimuli/spore_stims/simple_18_A_a.gif","images/stimuli/spore_stims/simple_15_A_b.gif"
"","5678.235000003013","survey-likert","148","545916","0.0-44.0","SS1619740116547","similarity_question","","","","","","","","","","","","{""Q0"":3}","[0]","","images/stimuli/spore_stims/complex_02_A_b.gif","images/stimuli/spore_stims/complex_14_A_a.gif"
"[{""page_index"":0,""viewing_time"":1527.985000000568}]","1528.2400000032503","instructions","149","547447","0.0-45.0","SS1619740116547","instructions","","","","","","","","","","","","","","","",""
"","5115.010000001406","survey-likert","150","552565","0.0-46.0","SS1619740116547","","","","","","","","","images/stimuli/spore_stims/complex_04_A_a.gif","","","","{""Q0"":3}","[0]","","",""
"","2687.22500000149","survey-likert","151","555255","0.0-47.0","SS1619740116547","","","","","","","","","images/stimuli/spore_stims/simple_09_A_a.gif","","","","{""Q0"":0}","[0]","","",""
"","3595.3349999981","survey-likert","152","558853","0.0-48.0","SS1619740116547","","","","","","","","","images/stimuli/spore_stims/simple_01_A_b.gif","","","","{""Q0"":1}","[0]","","",""
"","1804.3900000011781","survey-likert","153","560660","0.0-49.0","SS1619740116547","","","","","","","","","images/stimuli/spore_stims/simple_07_A_b.gif","","","","{""Q0"":0}","[0]","","",""
"","3122.6999999999534","survey-likert","154","563786","0.0-50.0","SS1619740116547","","","","","","","","","images/stimuli/spore_stims/complex_12_A_a.gif","","","","{""Q0"":6}","[0]","","",""
"","1476.9699999997392","survey-likert","155","565266","0.0-51.0","SS1619740116547","","","","","","","","","images/stimuli/spore_stims/complex_09_A_b.gif","","","","{""Q0"":4}","[0]","","",""
"","1624.9899999966146","survey-likert","156","566894","0.0-52.0","SS1619740116547","","","","","","","","","images/stimuli/spore_stims/simple_16_A_a.gif","","","","{""Q0"":1}","[0]","","",""
"","1579.460000000894","survey-likert","157","568476","0.0-53.0","SS1619740116547","","","","","","","","","images/stimuli/spore_stims/complex_02_A_b.gif","","","","{""Q0"":4}","[0]","","",""
"","1626.7600000028033","survey-likert","158","570106","0.0-54.0","SS1619740116547","","","","","","","","","images/stimuli/spore_stims/simple_11_A_b.gif","","","","{""Q0"":0}","[0]","","",""
"","2406.0949999984587","survey-likert","159","572515","0.0-55.0","SS1619740116547","","","","","","","","","images/stimuli/spore_stims/complex_09_A_a.gif","","","","{""Q0"":4}","[0]","","",""
"","1918.4549999991432","survey-likert","160","574436","0.0-56.0","SS1619740116547","","","","","","","","","images/stimuli/spore_stims/simple_18_A_a.gif","","","","{""Q0"":1}","[0]","","",""
"","4037.425000002142","survey-likert","161","578477","0.0-57.0","SS1619740116547","","","","","","","","","images/stimuli/spore_stims/complex_15_A_b.gif","","","","{""Q0"":3}","[0]","","",""
"[{""page_index"":0,""viewing_time"":2084.18499999959}]","2084.405000001425","instructions","162","580564","0.0-58.0","SS1619740116547","instructions","","","","","","","","","","","","","","","",""
"","2588.260000000475","demog-age","163","583157","0.0-59.0","SS1619740116547","","","","","","","","","","","","","{""age"":""25""}","","","",""
"","3784.3800000010524","demog-ethnic-US","164","586946","0.0-60.0","SS1619740116547","","","","","","","","","","","","","{""ethnicity"":[""Hispanic or Latino""]}","[0]","","",""
"","9944.85000000347","demog-gender-and-education","165","596894","0.0-61.0","SS1619740116547","","","","","","","","","","","","","{""gender"":""Male"",""education"":""Doctorate/Professional degree""}","[0,1]","","",""
"","12116.109999999055","survey-text","166","609015","0.0-62.0","SS1619740116547","feedback","","","","","","","","","","","","{""Q0"":""No, the animation was fluid""}","","","",""
"[{""page_index"":0,""viewing_time"":1088.8400000003166}]","1089.0699999982025","instructions","167","610106","0.0-63.0","SS1619740116547","instructions","","","","","","","","","","","","","","","",""
