"view_history","rt","trial_type","trial_index","time_elapsed","internal_node_id","subject","stimulus_type","trial_stimulus","key_press","minimum_viewing_duration","trial_looking_time","block_deviant","block_background","exposure_type","stimulus","block_number","block_type","stimulus_displayed","responses","question_order","math_correct_answer","stimulus_left","stimulus_right"
"[{""page_index"":0,""viewing_time"":12899.690000049304}]","12901.015000010375","instructions","0","12904","0.0-0.0","SS1619739897100","","","","","","","","","","","","","","","","",""
"[{""page_index"":0,""viewing_time"":10867.544999986421},{""page_index"":1,""viewing_time"":5362.909999967087}]","16230.804999999236","instructions","1","31139","0.0-1.0","SS1619739897100","instructions","","","","","","","","","","","","","","","",""
"","4231.900000013411","sequential-stimulus-presentation-old","2","35880","0.0-2.0","SS1619739897100","","","40","500","4731.900000013411","null","null","self_paced","","","","","","","","",""
"","2128.4649999579415","sequential-stimulus-presentation-old","3","38513","0.0-3.0","SS1619739897100","","","40","500","2628.4649999579415","null","null","self_paced","","","","","","","","",""
"[{""page_index"":0,""viewing_time"":12422.330000030342}]","12422.680000017863","instructions","4","50937","0.0-4.0","SS1619739897100","instructions","","","","","","","","","","","","","","","",""
"","1318.440000002738","sequential-stimulus-presentation-old","5","67260","0.0-5.0","SS1619739897100","","","40","500","1818.440000002738","null","null","forced_long","","","","","","","","",""
"","2761.7750000208616","sequential-stimulus-presentation-old","6","70526","0.0-6.0","SS1619739897100","","","40","500","3261.7750000208616","null","null","forced_long","","","","","","","","",""
"[{""page_index"":0,""viewing_time"":2805.8700000401586}]","2806.205000029877","instructions","7","73334","0.0-7.0","SS1619739897100","instructions","","","","","","","","","","","","","","","",""
"[{""page_index"":0,""viewing_time"":9329.630000051111},{""page_index"":1,""viewing_time"":8709.619999979623},{""page_index"":2,""viewing_time"":5843.729999964125},{""page_index"":3,""viewing_time"":1803.7650000187568},{""page_index"":4,""viewing_time"":1451.2600000016391}]","27138.42500001192","instructions","8","100475","0.0-8.0","SS1619739897100","instructions","","","","","","","","","","","","","","","",""
"","null","html-keyboard-response","9","101526","0.0-9.0-0.0","SS1619739897100","","","null","","","","","","<p><img src= images/blank.png width =""600"" height = ""600"" style=""position:fixed;top:50%; left:50%; transform: translate(-50%, -50%); border:5px solid black"">","","","","","","","",""
"","39096.0400000331","sequential-stimulus-presentation-old","10","141129","0.0-9.0-1.0","SS1619739897100","trial","","40","500","39596.0400000331","images/stimuli/spore_stims/simple_06_A_b.gif","images/stimuli/spore_stims/simple_03_A_a.gif","self_paced","","0","simple_dissimilar","images/stimuli/spore_stims/simple_03_A_a.gif","","","","",""
"","null","html-keyboard-response","11","142337","0.0-9.0-0.1","SS1619739897100","","","null","","","","","","<p><img src= images/blank.png width =""600"" height = ""600"" style=""position:fixed;top:50%; left:50%; transform: translate(-50%, -50%); border:5px solid black"">","","","","","","","",""
"","14033.055000007153","sequential-stimulus-presentation-old","12","156878","0.0-9.0-1.1","SS1619739897100","trial","","40","500","14533.055000007153","images/stimuli/spore_stims/simple_06_A_b.gif","images/stimuli/spore_stims/simple_03_A_a.gif","self_paced","","0","simple_dissimilar","images/stimuli/spore_stims/simple_03_A_a.gif","","","","",""
"","null","html-keyboard-response","13","157915","0.0-9.0-0.2","SS1619739897100","","","null","","","","","","<p><img src= images/blank.png width =""600"" height = ""600"" style=""position:fixed;top:50%; left:50%; transform: translate(-50%, -50%); border:5px solid black"">","","","","","","","",""
"","6948.5899999854155","sequential-stimulus-presentation-old","14","165373","0.0-9.0-1.2","SS1619739897100","trial","","40","500","7448.5899999854155","images/stimuli/spore_stims/simple_06_A_b.gif","images/stimuli/spore_stims/simple_03_A_a.gif","self_paced","","0","simple_dissimilar","images/stimuli/spore_stims/simple_03_A_a.gif","","","","",""
"","null","html-keyboard-response","15","166238","0.0-9.0-0.3","SS1619739897100","","","null","","","","","","<p><img src= images/blank.png width =""600"" height = ""600"" style=""position:fixed;top:50%; left:50%; transform: translate(-50%, -50%); border:5px solid black"">","","","","","","","",""
"","8405.4349999642","sequential-stimulus-presentation-old","16","175152","0.0-9.0-1.3","SS1619739897100","trial","","40","500","8905.4349999642","images/stimuli/spore_stims/simple_06_A_b.gif","images/stimuli/spore_stims/simple_03_A_a.gif","self_paced","","0","simple_dissimilar","images/stimuli/spore_stims/simple_03_A_a.gif","","","","",""
"","null","html-keyboard-response","17","175978","0.0-9.0-0.4","SS1619739897100","","","null","","","","","","<p><img src= images/blank.png width =""600"" height = ""600"" style=""position:fixed;top:50%; left:50%; transform: translate(-50%, -50%); border:5px solid black"">","","","","","","","",""
"","10534.595000033733","sequential-stimulus-presentation-old","18","187017","0.0-9.0-1.4","SS1619739897100","trial","","40","500","11034.595000033733","images/stimuli/spore_stims/simple_06_A_b.gif","images/stimuli/spore_stims/simple_03_A_a.gif","self_paced","","0","simple_dissimilar","images/stimuli/spore_stims/simple_06_A_b.gif","","","","",""
"","4413.984999991953","survey-multi-choice","19","191438","0.0-10.0","SS1619739897100","math_question","","","","","","","","","","","","{""Q0"":""14""}","[0]","14","",""
"","null","html-keyboard-response","20","192716","0.0-11.0-0.0","SS1619739897100","","","null","","","","","","<p><img src= images/blank.png width =""600"" height = ""600"" style=""position:fixed;top:50%; left:50%; transform: translate(-50%, -50%); border:5px solid black"">","","","","","","","",""
"","1563.6999999987893","sequential-stimulus-presentation-old","21","209284","0.0-11.0-1.0","SS1619739897100","trial","","40","500","2063.6999999987893","images/stimuli/spore_stims/simple_19_A_b.gif","images/stimuli/spore_stims/simple_10_A_a.gif","forced_long","","1","simple_dissimilar","images/stimuli/spore_stims/simple_10_A_a.gif","","","","",""
"","null","html-keyboard-response","22","210518","0.0-11.0-0.1","SS1619739897100","","","null","","","","","","<p><img src= images/blank.png width =""600"" height = ""600"" style=""position:fixed;top:50%; left:50%; transform: translate(-50%, -50%); border:5px solid black"">","","","","","","","",""
"","13236.800000013318","sequential-stimulus-presentation-old","23","224259","0.0-11.0-1.1","SS1619739897100","trial","","40","500","13736.800000013318","images/stimuli/spore_stims/simple_19_A_b.gif","images/stimuli/spore_stims/simple_10_A_a.gif","forced_long","","1","simple_dissimilar","images/stimuli/spore_stims/simple_10_A_a.gif","","","","",""
"","null","html-keyboard-response","24","225417","0.0-11.0-0.2","SS1619739897100","","","null","","","","","","<p><img src= images/blank.png width =""600"" height = ""600"" style=""position:fixed;top:50%; left:50%; transform: translate(-50%, -50%); border:5px solid black"">","","","","","","","",""
"","8972.720000019763","sequential-stimulus-presentation-old","25","234894","0.0-11.0-1.2","SS1619739897100","trial","","40","500","9472.720000019763","images/stimuli/spore_stims/simple_19_A_b.gif","images/stimuli/spore_stims/simple_10_A_a.gif","forced_long","","1","simple_dissimilar","images/stimuli/spore_stims/simple_10_A_a.gif","","","","",""
"","null","html-keyboard-response","26","236148","0.0-11.0-0.3","SS1619739897100","","","null","","","","","","<p><img src= images/blank.png width =""600"" height = ""600"" style=""position:fixed;top:50%; left:50%; transform: translate(-50%, -50%); border:5px solid black"">","","","","","","","",""
"","7326.40000001993","sequential-stimulus-presentation-old","27","243981","0.0-11.0-1.3","SS1619739897100","trial","","40","500","7826.40000001993","images/stimuli/spore_stims/simple_19_A_b.gif","images/stimuli/spore_stims/simple_10_A_a.gif","forced_long","","1","simple_dissimilar","images/stimuli/spore_stims/simple_19_A_b.gif","","","","",""
"","null","html-keyboard-response","28","244946","0.0-11.0-0.4","SS1619739897100","","","null","","","","","","<p><img src= images/blank.png width =""600"" height = ""600"" style=""position:fixed;top:50%; left:50%; transform: translate(-50%, -50%); border:5px solid black"">","","","","","","","",""
"","4578.700000012759","sequential-stimulus-presentation-old","29","250033","0.0-11.0-1.4","SS1619739897100","trial","","40","500","5078.700000012759","images/stimuli/spore_stims/simple_19_A_b.gif","images/stimuli/spore_stims/simple_10_A_a.gif","forced_long","","1","simple_dissimilar","images/stimuli/spore_stims/simple_10_A_a.gif","","","","",""
"","3052.4100000038743","survey-multi-choice","30","253088","0.0-12.0","SS1619739897100","math_question","","","","","","","","","","","","{""Q0"":""5""}","[0]","5","",""
"","null","html-keyboard-response","31","254213","0.0-13.0-0.0","SS1619739897100","","","null","","","","","","<p><img src= images/blank.png width =""600"" height = ""600"" style=""position:fixed;top:50%; left:50%; transform: translate(-50%, -50%); border:5px solid black"">","","","","","","","",""
"","2316.720000002533","sequential-stimulus-presentation-old","32","257039","0.0-13.0-1.0","SS1619739897100","trial","","40","500","2816.720000002533","images/stimuli/spore_stims/simple_08_A_b.gif","images/stimuli/spore_stims/simple_11_A_a.gif","forced_short","","2","simple_dissimilar","images/stimuli/spore_stims/simple_11_A_a.gif","","","","",""
"","null","html-keyboard-response","33","258341","0.0-13.0-0.1","SS1619739897100","","","null","","","","","","<p><img src= images/blank.png width =""600"" height = ""600"" style=""position:fixed;top:50%; left:50%; transform: translate(-50%, -50%); border:5px solid black"">","","","","","","","",""
"","4275.484999991022","sequential-stimulus-presentation-old","34","263121","0.0-13.0-1.1","SS1619739897100","trial","","40","500","4775.484999991022","images/stimuli/spore_stims/simple_08_A_b.gif","images/stimuli/spore_stims/simple_11_A_a.gif","forced_short","","2","simple_dissimilar","images/stimuli/spore_stims/simple_11_A_a.gif","","","","",""
"","null","html-keyboard-response","35","264370","0.0-13.0-0.2","SS1619739897100","","","null","","","","","","<p><img src= images/blank.png width =""600"" height = ""600"" style=""position:fixed;top:50%; left:50%; transform: translate(-50%, -50%); border:5px solid black"">","","","","","","","",""
"","7396.949999965727","sequential-stimulus-presentation-old","36","272273","0.0-13.0-1.2","SS1619739897100","trial","","40","500","7896.949999965727","images/stimuli/spore_stims/simple_08_A_b.gif","images/stimuli/spore_stims/simple_11_A_a.gif","forced_short","","2","simple_dissimilar","images/stimuli/spore_stims/simple_11_A_a.gif","","","","",""
"","null","html-keyboard-response","37","273442","0.0-13.0-0.3","SS1619739897100","","","null","","","","","","<p><img src= images/blank.png width =""600"" height = ""600"" style=""position:fixed;top:50%; left:50%; transform: translate(-50%, -50%); border:5px solid black"">","","","","","","","",""
"","5696.455000026617","sequential-stimulus-presentation-old","38","279644","0.0-13.0-1.3","SS1619739897100","trial","","40","500","6196.455000026617","images/stimuli/spore_stims/simple_08_A_b.gif","images/stimuli/spore_stims/simple_11_A_a.gif","forced_short","","2","simple_dissimilar","images/stimuli/spore_stims/simple_11_A_a.gif","","","","",""
"","null","html-keyboard-response","39","280724","0.0-13.0-0.4","SS1619739897100","","","null","","","","","","<p><img src= images/blank.png width =""600"" height = ""600"" style=""position:fixed;top:50%; left:50%; transform: translate(-50%, -50%); border:5px solid black"">","","","","","","","",""
"","8016.865000012331","sequential-stimulus-presentation-old","40","289245","0.0-13.0-1.4","SS1619739897100","trial","","40","500","8516.86500001233","images/stimuli/spore_stims/simple_08_A_b.gif","images/stimuli/spore_stims/simple_11_A_a.gif","forced_short","","2","simple_dissimilar","images/stimuli/spore_stims/simple_08_A_b.gif","","","","",""
"","3611.3050000276417","survey-multi-choice","41","292860","0.0-14.0","SS1619739897100","math_question","","","","","","","","","","","","{""Q0"":""7""}","[0]","7","",""
"","null","html-keyboard-response","42","294098","0.0-15.0-0.0","SS1619739897100","","","null","","","","","","<p><img src= images/blank.png width =""600"" height = ""600"" style=""position:fixed;top:50%; left:50%; transform: translate(-50%, -50%); border:5px solid black"">","","","","","","","",""
"","8257.834999996703","sequential-stimulus-presentation-old","43","302866","0.0-15.0-1.0","SS1619739897100","trial","","40","500","8757.834999996703","images/stimuli/spore_stims/complex_19_A_a.gif","images/stimuli/spore_stims/complex_17_A_b.gif","self_paced","","3","complex_dissimilar","images/stimuli/spore_stims/complex_17_A_b.gif","","","","",""
"","null","html-keyboard-response","44","304051","0.0-15.0-0.1","SS1619739897100","","","null","","","","","","<p><img src= images/blank.png width =""600"" height = ""600"" style=""position:fixed;top:50%; left:50%; transform: translate(-50%, -50%); border:5px solid black"">","","","","","","","",""
"","7839.640000020154","sequential-stimulus-presentation-old","45","312400","0.0-15.0-1.1","SS1619739897100","trial","","40","500","8339.640000020154","images/stimuli/spore_stims/complex_19_A_a.gif","images/stimuli/spore_stims/complex_17_A_b.gif","self_paced","","3","complex_dissimilar","images/stimuli/spore_stims/complex_19_A_a.gif","","","","",""
"","null","html-keyboard-response","46","313222","0.0-15.0-0.2","SS1619739897100","","","null","","","","","","<p><img src= images/blank.png width =""600"" height = ""600"" style=""position:fixed;top:50%; left:50%; transform: translate(-50%, -50%); border:5px solid black"">","","","","","","","",""
"","6518.24999996461","sequential-stimulus-presentation-old","47","320246","0.0-15.0-1.2","SS1619739897100","trial","","40","500","7018.24999996461","images/stimuli/spore_stims/complex_19_A_a.gif","images/stimuli/spore_stims/complex_17_A_b.gif","self_paced","","3","complex_dissimilar","images/stimuli/spore_stims/complex_17_A_b.gif","","","","",""
"","null","html-keyboard-response","48","321330","0.0-15.0-0.3","SS1619739897100","","","null","","","","","","<p><img src= images/blank.png width =""600"" height = ""600"" style=""position:fixed;top:50%; left:50%; transform: translate(-50%, -50%); border:5px solid black"">","","","","","","","",""
"","7146.76499995403","sequential-stimulus-presentation-old","49","328986","0.0-15.0-1.3","SS1619739897100","trial","","40","500","7646.76499995403","images/stimuli/spore_stims/complex_19_A_a.gif","images/stimuli/spore_stims/complex_17_A_b.gif","self_paced","","3","complex_dissimilar","images/stimuli/spore_stims/complex_17_A_b.gif","","","","",""
"","null","html-keyboard-response","50","330172","0.0-15.0-0.4","SS1619739897100","","","null","","","","","","<p><img src= images/blank.png width =""600"" height = ""600"" style=""position:fixed;top:50%; left:50%; transform: translate(-50%, -50%); border:5px solid black"">","","","","","","","",""
"","7561.854999978095","sequential-stimulus-presentation-old","51","338241","0.0-15.0-1.4","SS1619739897100","trial","","40","500","8061.854999978095","images/stimuli/spore_stims/complex_19_A_a.gif","images/stimuli/spore_stims/complex_17_A_b.gif","self_paced","","3","complex_dissimilar","images/stimuli/spore_stims/complex_17_A_b.gif","","","","",""
"","null","html-keyboard-response","52","339418","0.0-15.0-0.5","SS1619739897100","","","null","","","","","","<p><img src= images/blank.png width =""600"" height = ""600"" style=""position:fixed;top:50%; left:50%; transform: translate(-50%, -50%); border:5px solid black"">","","","","","","","",""
"","2929.134999983944","sequential-stimulus-presentation-old","53","342855","0.0-15.0-1.5","SS1619739897100","trial","","40","500","3429.134999983944","images/stimuli/spore_stims/complex_19_A_a.gif","images/stimuli/spore_stims/complex_17_A_b.gif","self_paced","","3","complex_dissimilar","images/stimuli/spore_stims/complex_17_A_b.gif","","","","",""
"","7891.854999994393","survey-multi-choice","54","350750","0.0-16.0","SS1619739897100","math_question","","","","","","","","","","","","{""Q0"":""12""}","[0]","12","",""
"","null","html-keyboard-response","55","352026","0.0-17.0-0.0","SS1619739897100","","","null","","","","","","<p><img src= images/blank.png width =""600"" height = ""600"" style=""position:fixed;top:50%; left:50%; transform: translate(-50%, -50%); border:5px solid black"">","","","","","","","",""
"","546.814999950584","sequential-stimulus-presentation-old","56","367580","0.0-17.0-1.0","SS1619739897100","trial","","40","500","1046.814999950584","images/stimuli/spore_stims/complex_04_A_a.gif","images/stimuli/spore_stims/complex_19_A_b.gif","forced_long","","4","complex_dissimilar","images/stimuli/spore_stims/complex_19_A_b.gif","","","","",""
"","null","html-keyboard-response","57","368629","0.0-17.0-0.1","SS1619739897100","","","null","","","","","","<p><img src= images/blank.png width =""600"" height = ""600"" style=""position:fixed;top:50%; left:50%; transform: translate(-50%, -50%); border:5px solid black"">","","","","","","","",""
"","3913.639999984298","sequential-stimulus-presentation-old","58","373047","0.0-17.0-1.1","SS1619739897100","trial","","40","500","4413.639999984298","images/stimuli/spore_stims/complex_04_A_a.gif","images/stimuli/spore_stims/complex_19_A_b.gif","forced_long","","4","complex_dissimilar","images/stimuli/spore_stims/complex_19_A_b.gif","","","","",""
"","null","html-keyboard-response","59","374048","0.0-17.0-0.2","SS1619739897100","","","null","","","","","","<p><img src= images/blank.png width =""600"" height = ""600"" style=""position:fixed;top:50%; left:50%; transform: translate(-50%, -50%); border:5px solid black"">","","","","","","","",""
"","3555.0799999618903","sequential-stimulus-presentation-old","60","378113","0.0-17.0-1.2","SS1619739897100","trial","","40","500","4055.0799999618903","images/stimuli/spore_stims/complex_04_A_a.gif","images/stimuli/spore_stims/complex_19_A_b.gif","forced_long","","4","complex_dissimilar","images/stimuli/spore_stims/complex_19_A_b.gif","","","","",""
"","null","html-keyboard-response","61","379262","0.0-17.0-0.3","SS1619739897100","","","null","","","","","","<p><img src= images/blank.png width =""600"" height = ""600"" style=""position:fixed;top:50%; left:50%; transform: translate(-50%, -50%); border:5px solid black"">","","","","","","","",""
"","4832.209999964107","sequential-stimulus-presentation-old","62","384601","0.0-17.0-1.3","SS1619739897100","trial","","40","500","5332.209999964107","images/stimuli/spore_stims/complex_04_A_a.gif","images/stimuli/spore_stims/complex_19_A_b.gif","forced_long","","4","complex_dissimilar","images/stimuli/spore_stims/complex_19_A_b.gif","","","","",""
"","4285.015000030398","survey-multi-choice","63","388890","0.0-18.0","SS1619739897100","math_question","","","","","","","","","","","","{""Q0"":""3""}","[0]","3","",""
"","null","html-keyboard-response","64","390121","0.0-19.0-0.0","SS1619739897100","","","null","","","","","","<p><img src= images/blank.png width =""600"" height = ""600"" style=""position:fixed;top:50%; left:50%; transform: translate(-50%, -50%); border:5px solid black"">","","","","","","","",""
"","6228.340000030585","sequential-stimulus-presentation-old","65","396854","0.0-19.0-1.0","SS1619739897100","trial","","40","500","6728.340000030585","images/stimuli/spore_stims/simple_19_A_a.gif","images/stimuli/spore_stims/simple_12_A_b.gif","self_paced","","5","simple_dissimilar","images/stimuli/spore_stims/simple_12_A_b.gif","","","","",""
"","null","html-keyboard-response","66","397831","0.0-19.0-0.1","SS1619739897100","","","null","","","","","","<p><img src= images/blank.png width =""600"" height = ""600"" style=""position:fixed;top:50%; left:50%; transform: translate(-50%, -50%); border:5px solid black"">","","","","","","","",""
"","6273.769999970682","sequential-stimulus-presentation-old","67","404609","0.0-19.0-1.1","SS1619739897100","trial","","40","500","6773.769999970682","images/stimuli/spore_stims/simple_19_A_a.gif","images/stimuli/spore_stims/simple_12_A_b.gif","self_paced","","5","simple_dissimilar","images/stimuli/spore_stims/simple_12_A_b.gif","","","","",""
"","null","html-keyboard-response","68","405513","0.0-19.0-0.2","SS1619739897100","","","null","","","","","","<p><img src= images/blank.png width =""600"" height = ""600"" style=""position:fixed;top:50%; left:50%; transform: translate(-50%, -50%); border:5px solid black"">","","","","","","","",""
"","5918.934999965131","sequential-stimulus-presentation-old","69","411939","0.0-19.0-1.2","SS1619739897100","trial","","40","500","6418.934999965131","images/stimuli/spore_stims/simple_19_A_a.gif","images/stimuli/spore_stims/simple_12_A_b.gif","self_paced","","5","simple_dissimilar","images/stimuli/spore_stims/simple_12_A_b.gif","","","","",""
"","null","html-keyboard-response","70","412875","0.0-19.0-0.3","SS1619739897100","","","null","","","","","","<p><img src= images/blank.png width =""600"" height = ""600"" style=""position:fixed;top:50%; left:50%; transform: translate(-50%, -50%); border:5px solid black"">","","","","","","","",""
"","4068.680000025779","sequential-stimulus-presentation-old","71","417453","0.0-19.0-1.3","SS1619739897100","trial","","40","500","4568.680000025779","images/stimuli/spore_stims/simple_19_A_a.gif","images/stimuli/spore_stims/simple_12_A_b.gif","self_paced","","5","simple_dissimilar","images/stimuli/spore_stims/simple_19_A_a.gif","","","","",""
"","null","html-keyboard-response","72","418748","0.0-19.0-0.4","SS1619739897100","","","null","","","","","","<p><img src= images/blank.png width =""600"" height = ""600"" style=""position:fixed;top:50%; left:50%; transform: translate(-50%, -50%); border:5px solid black"">","","","","","","","",""
"","4220.169999985956","sequential-stimulus-presentation-old","73","423476","0.0-19.0-1.4","SS1619739897100","trial","","40","500","4720.169999985956","images/stimuli/spore_stims/simple_19_A_a.gif","images/stimuli/spore_stims/simple_12_A_b.gif","self_paced","","5","simple_dissimilar","images/stimuli/spore_stims/simple_12_A_b.gif","","","","",""
"","3559.724999999162","survey-multi-choice","74","427039","0.0-20.0","SS1619739897100","math_question","","","","","","","","","","","","{""Q0"":""12""}","[0]","12","",""
"","null","html-keyboard-response","75","428169","0.0-21.0-0.0","SS1619739897100","","","null","","","","","","<p><img src= images/blank.png width =""600"" height = ""600"" style=""position:fixed;top:50%; left:50%; transform: translate(-50%, -50%); border:5px solid black"">","","","","","","","",""
"","1296.7700000153854","sequential-stimulus-presentation-old","76","429971","0.0-21.0-1.0","SS1619739897100","trial","","40","500","1796.7700000153854","images/stimuli/spore_stims/simple_13_A_b.gif","images/stimuli/spore_stims/simple_14_A_a.gif","forced_short","","6","simple_dissimilar","images/stimuli/spore_stims/simple_14_A_a.gif","","","","",""
"","null","html-keyboard-response","77","431002","0.0-21.0-0.1","SS1619739897100","","","null","","","","","","<p><img src= images/blank.png width =""600"" height = ""600"" style=""position:fixed;top:50%; left:50%; transform: translate(-50%, -50%); border:5px solid black"">","","","","","","","",""
"","1651.8299999879673","sequential-stimulus-presentation-old","78","433160","0.0-21.0-1.1","SS1619739897100","trial","","40","500","2151.8299999879673","images/stimuli/spore_stims/simple_13_A_b.gif","images/stimuli/spore_stims/simple_14_A_a.gif","forced_short","","6","simple_dissimilar","images/stimuli/spore_stims/simple_14_A_a.gif","","","","",""
"","null","html-keyboard-response","79","434143","0.0-21.0-0.2","SS1619739897100","","","null","","","","","","<p><img src= images/blank.png width =""600"" height = ""600"" style=""position:fixed;top:50%; left:50%; transform: translate(-50%, -50%); border:5px solid black"">","","","","","","","",""
"","4038.4399999747984","sequential-stimulus-presentation-old","80","438688","0.0-21.0-1.2","SS1619739897100","trial","","40","500","4538.439999974798","images/stimuli/spore_stims/simple_13_A_b.gif","images/stimuli/spore_stims/simple_14_A_a.gif","forced_short","","6","simple_dissimilar","images/stimuli/spore_stims/simple_14_A_a.gif","","","","",""
"","null","html-keyboard-response","81","439624","0.0-21.0-0.3","SS1619739897100","","","null","","","","","","<p><img src= images/blank.png width =""600"" height = ""600"" style=""position:fixed;top:50%; left:50%; transform: translate(-50%, -50%); border:5px solid black"">","","","","","","","",""
"","4950.575000024401","sequential-stimulus-presentation-old","82","445081","0.0-21.0-1.3","SS1619739897100","trial","","40","500","5450.575000024401","images/stimuli/spore_stims/simple_13_A_b.gif","images/stimuli/spore_stims/simple_14_A_a.gif","forced_short","","6","simple_dissimilar","images/stimuli/spore_stims/simple_13_A_b.gif","","","","",""
"","null","html-keyboard-response","83","445890","0.0-21.0-0.4","SS1619739897100","","","null","","","","","","<p><img src= images/blank.png width =""600"" height = ""600"" style=""position:fixed;top:50%; left:50%; transform: translate(-50%, -50%); border:5px solid black"">","","","","","","","",""
"","5691.140000009909","sequential-stimulus-presentation-old","84","452087","0.0-21.0-1.4","SS1619739897100","trial","","40","500","6191.140000009909","images/stimuli/spore_stims/simple_13_A_b.gif","images/stimuli/spore_stims/simple_14_A_a.gif","forced_short","","6","simple_dissimilar","images/stimuli/spore_stims/simple_13_A_b.gif","","","","",""
"","2986.7150000063702","survey-multi-choice","85","455078","0.0-22.0","SS1619739897100","math_question","","","","","","","","","","","","{""Q0"":""7""}","[0]","7","",""
"","null","html-keyboard-response","86","455988","0.0-23.0-0.0","SS1619739897100","","","null","","","","","","<p><img src= images/blank.png width =""600"" height = ""600"" style=""position:fixed;top:50%; left:50%; transform: translate(-50%, -50%); border:5px solid black"">","","","","","","","",""
"","944.0750000067055","sequential-stimulus-presentation-old","87","471939","0.0-23.0-1.0","SS1619739897100","trial","","40","500","1444.0750000067055","images/stimuli/spore_stims/simple_05_A_b.gif","images/stimuli/spore_stims/simple_16_A_a.gif","forced_long","","7","simple_dissimilar","images/stimuli/spore_stims/simple_16_A_a.gif","","","","",""
"","null","html-keyboard-response","88","472893","0.0-23.0-0.1","SS1619739897100","","","null","","","","","","<p><img src= images/blank.png width =""600"" height = ""600"" style=""position:fixed;top:50%; left:50%; transform: translate(-50%, -50%); border:5px solid black"">","","","","","","","",""
"","10902.120000042487","sequential-stimulus-presentation-old","89","484303","0.0-23.0-1.1","SS1619739897100","trial","","40","500","11402.120000042487","images/stimuli/spore_stims/simple_05_A_b.gif","images/stimuli/spore_stims/simple_16_A_a.gif","forced_long","","7","simple_dissimilar","images/stimuli/spore_stims/simple_05_A_b.gif","","","","",""
"","null","html-keyboard-response","90","485243","0.0-23.0-0.2","SS1619739897100","","","null","","","","","","<p><img src= images/blank.png width =""600"" height = ""600"" style=""position:fixed;top:50%; left:50%; transform: translate(-50%, -50%); border:5px solid black"">","","","","","","","",""
"","3948.6850000103004","sequential-stimulus-presentation-old","91","489697","0.0-23.0-1.2","SS1619739897100","trial","","40","500","4448.6850000103","images/stimuli/spore_stims/simple_05_A_b.gif","images/stimuli/spore_stims/simple_16_A_a.gif","forced_long","","7","simple_dissimilar","images/stimuli/spore_stims/simple_16_A_a.gif","","","","",""
"","null","html-keyboard-response","92","490915","0.0-23.0-0.3","SS1619739897100","","","null","","","","","","<p><img src= images/blank.png width =""600"" height = ""600"" style=""position:fixed;top:50%; left:50%; transform: translate(-50%, -50%); border:5px solid black"">","","","","","","","",""
"","6676.715000008699","sequential-stimulus-presentation-old","93","498098","0.0-23.0-1.3","SS1619739897100","trial","","40","500","7176.715000008699","images/stimuli/spore_stims/simple_05_A_b.gif","images/stimuli/spore_stims/simple_16_A_a.gif","forced_long","","7","simple_dissimilar","images/stimuli/spore_stims/simple_16_A_a.gif","","","","",""
"","null","html-keyboard-response","94","499224","0.0-23.0-0.4","SS1619739897100","","","null","","","","","","<p><img src= images/blank.png width =""600"" height = ""600"" style=""position:fixed;top:50%; left:50%; transform: translate(-50%, -50%); border:5px solid black"">","","","","","","","",""
"","3588.5550000239164","sequential-stimulus-presentation-old","95","503320","0.0-23.0-1.4","SS1619739897100","trial","","40","500","4088.5550000239164","images/stimuli/spore_stims/simple_05_A_b.gif","images/stimuli/spore_stims/simple_16_A_a.gif","forced_long","","7","simple_dissimilar","images/stimuli/spore_stims/simple_16_A_a.gif","","","","",""
"","5276.949999970384","survey-multi-choice","96","508601","0.0-24.0","SS1619739897100","math_question","","","","","","","","","","","","{""Q0"":""4""}","[0]","4","",""
"","null","html-keyboard-response","97","509560","0.0-25.0-0.0","SS1619739897100","","","null","","","","","","<p><img src= images/blank.png width =""600"" height = ""600"" style=""position:fixed;top:50%; left:50%; transform: translate(-50%, -50%); border:5px solid black"">","","","","","","","",""
"","6663.809999998193","sequential-stimulus-presentation-old","98","516730","0.0-25.0-1.0","SS1619739897100","trial","","40","500","7163.809999998193","images/stimuli/spore_stims/complex_12_A_b.gif","images/stimuli/spore_stims/complex_20_A_a.gif","self_paced","","8","complex_dissimilar","images/stimuli/spore_stims/complex_20_A_a.gif","","","","",""
"","null","html-keyboard-response","99","517929","0.0-25.0-0.1","SS1619739897100","","","null","","","","","","<p><img src= images/blank.png width =""600"" height = ""600"" style=""position:fixed;top:50%; left:50%; transform: translate(-50%, -50%); border:5px solid black"">","","","","","","","",""
"","5902.720000012778","sequential-stimulus-presentation-old","100","524339","0.0-25.0-1.1","SS1619739897100","trial","","40","500","6402.720000012778","images/stimuli/spore_stims/complex_12_A_b.gif","images/stimuli/spore_stims/complex_20_A_a.gif","self_paced","","8","complex_dissimilar","images/stimuli/spore_stims/complex_20_A_a.gif","","","","",""
"","null","html-keyboard-response","101","525553","0.0-25.0-0.2","SS1619739897100","","","null","","","","","","<p><img src= images/blank.png width =""600"" height = ""600"" style=""position:fixed;top:50%; left:50%; transform: translate(-50%, -50%); border:5px solid black"">","","","","","","","",""
"","6730.075000028592","sequential-stimulus-presentation-old","102","532792","0.0-25.0-1.2","SS1619739897100","trial","","40","500","7230.075000028592","images/stimuli/spore_stims/complex_12_A_b.gif","images/stimuli/spore_stims/complex_20_A_a.gif","self_paced","","8","complex_dissimilar","images/stimuli/spore_stims/complex_20_A_a.gif","","","","",""
"","null","html-keyboard-response","103","533712","0.0-25.0-0.3","SS1619739897100","","","null","","","","","","<p><img src= images/blank.png width =""600"" height = ""600"" style=""position:fixed;top:50%; left:50%; transform: translate(-50%, -50%); border:5px solid black"">","","","","","","","",""
"","7785.994999983814","sequential-stimulus-presentation-old","104","542005","0.0-25.0-1.3","SS1619739897100","trial","","40","500","8285.994999983814","images/stimuli/spore_stims/complex_12_A_b.gif","images/stimuli/spore_stims/complex_20_A_a.gif","self_paced","","8","complex_dissimilar","images/stimuli/spore_stims/complex_20_A_a.gif","","","","",""
"","3752.8199999942444","survey-multi-choice","105","545762","0.0-26.0","SS1619739897100","math_question","","","","","","","","","","","","{""Q0"":""9""}","[0]","9","",""
"","null","html-keyboard-response","106","546948","0.0-27.0-0.0","SS1619739897100","","","null","","","","","","<p><img src= images/blank.png width =""600"" height = ""600"" style=""position:fixed;top:50%; left:50%; transform: translate(-50%, -50%); border:5px solid black"">","","","","","","","",""
"","1556.2750000390224","sequential-stimulus-presentation-old","107","549012","0.0-27.0-1.0","SS1619739897100","trial","","40","500","2056.2750000390224","images/stimuli/spore_stims/complex_10_A_b.gif","images/stimuli/spore_stims/complex_17_A_a.gif","forced_short","","9","complex_dissimilar","images/stimuli/spore_stims/complex_17_A_a.gif","","","","",""
"","null","html-keyboard-response","108","549859","0.0-27.0-0.1","SS1619739897100","","","null","","","","","","<p><img src= images/blank.png width =""600"" height = ""600"" style=""position:fixed;top:50%; left:50%; transform: translate(-50%, -50%); border:5px solid black"">","","","","","","","",""
"","6362.034999998286","sequential-stimulus-presentation-old","109","556731","0.0-27.0-1.1","SS1619739897100","trial","","40","500","6862.034999998286","images/stimuli/spore_stims/complex_10_A_b.gif","images/stimuli/spore_stims/complex_17_A_a.gif","forced_short","","9","complex_dissimilar","images/stimuli/spore_stims/complex_17_A_a.gif","","","","",""
"","null","html-keyboard-response","110","557941","0.0-27.0-0.2","SS1619739897100","","","null","","","","","","<p><img src= images/blank.png width =""600"" height = ""600"" style=""position:fixed;top:50%; left:50%; transform: translate(-50%, -50%); border:5px solid black"">","","","","","","","",""
"","3342.9550000000745","sequential-stimulus-presentation-old","111","561795","0.0-27.0-1.2","SS1619739897100","trial","","40","500","3842.9550000000745","images/stimuli/spore_stims/complex_10_A_b.gif","images/stimuli/spore_stims/complex_17_A_a.gif","forced_short","","9","complex_dissimilar","images/stimuli/spore_stims/complex_17_A_a.gif","","","","",""
"","null","html-keyboard-response","112","562930","0.0-27.0-0.3","SS1619739897100","","","null","","","","","","<p><img src= images/blank.png width =""600"" height = ""600"" style=""position:fixed;top:50%; left:50%; transform: translate(-50%, -50%); border:5px solid black"">","","","","","","","",""
"","5936.810000042897","sequential-stimulus-presentation-old","113","569375","0.0-27.0-1.3","SS1619739897100","trial","","40","500","6436.810000042897","images/stimuli/spore_stims/complex_10_A_b.gif","images/stimuli/spore_stims/complex_17_A_a.gif","forced_short","","9","complex_dissimilar","images/stimuli/spore_stims/complex_17_A_a.gif","","","","",""
"","null","html-keyboard-response","114","570655","0.0-27.0-0.4","SS1619739897100","","","null","","","","","","<p><img src= images/blank.png width =""600"" height = ""600"" style=""position:fixed;top:50%; left:50%; transform: translate(-50%, -50%); border:5px solid black"">","","","","","","","",""
"","5499.199999962002","sequential-stimulus-presentation-old","115","576661","0.0-27.0-1.4","SS1619739897100","trial","","40","500","5999.199999962002","images/stimuli/spore_stims/complex_10_A_b.gif","images/stimuli/spore_stims/complex_17_A_a.gif","forced_short","","9","complex_dissimilar","images/stimuli/spore_stims/complex_17_A_a.gif","","","","",""
"","3393.465000030119","survey-multi-choice","116","580059","0.0-28.0","SS1619739897100","math_question","","","","","","","","","","","","{""Q0"":""4""}","[0]","4","",""
"","null","html-keyboard-response","117","580877","0.0-29.0-0.0","SS1619739897100","","","null","","","","","","<p><img src= images/blank.png width =""600"" height = ""600"" style=""position:fixed;top:50%; left:50%; transform: translate(-50%, -50%); border:5px solid black"">","","","","","","","",""
"","1185.0700000068173","sequential-stimulus-presentation-old","118","597073","0.0-29.0-1.0","SS1619739897100","trial","","40","500","1685.0700000068173","images/stimuli/spore_stims/complex_09_A_b.gif","images/stimuli/spore_stims/complex_16_A_a.gif","forced_long","","10","complex_dissimilar","images/stimuli/spore_stims/complex_16_A_a.gif","","","","",""
"","null","html-keyboard-response","119","598374","0.0-29.0-0.1","SS1619739897100","","","null","","","","","","<p><img src= images/blank.png width =""600"" height = ""600"" style=""position:fixed;top:50%; left:50%; transform: translate(-50%, -50%); border:5px solid black"">","","","","","","","",""
"","8923.210000037216","sequential-stimulus-presentation-old","120","607808","0.0-29.0-1.1","SS1619739897100","trial","","40","500","9423.210000037216","images/stimuli/spore_stims/complex_09_A_b.gif","images/stimuli/spore_stims/complex_16_A_a.gif","forced_long","","10","complex_dissimilar","images/stimuli/spore_stims/complex_16_A_a.gif","","","","",""
"","null","html-keyboard-response","121","608965","0.0-29.0-0.2","SS1619739897100","","","null","","","","","","<p><img src= images/blank.png width =""600"" height = ""600"" style=""position:fixed;top:50%; left:50%; transform: translate(-50%, -50%); border:5px solid black"">","","","","","","","",""
"","6359.854999987874","sequential-stimulus-presentation-old","122","615835","0.0-29.0-1.2","SS1619739897100","trial","","40","500","6859.854999987874","images/stimuli/spore_stims/complex_09_A_b.gif","images/stimuli/spore_stims/complex_16_A_a.gif","forced_long","","10","complex_dissimilar","images/stimuli/spore_stims/complex_16_A_a.gif","","","","",""
"","null","html-keyboard-response","123","616778","0.0-29.0-0.3","SS1619739897100","","","null","","","","","","<p><img src= images/blank.png width =""600"" height = ""600"" style=""position:fixed;top:50%; left:50%; transform: translate(-50%, -50%); border:5px solid black"">","","","","","","","",""
"","6856.404999969527","sequential-stimulus-presentation-old","124","624145","0.0-29.0-1.3","SS1619739897100","trial","","40","500","7356.404999969527","images/stimuli/spore_stims/complex_09_A_b.gif","images/stimuli/spore_stims/complex_16_A_a.gif","forced_long","","10","complex_dissimilar","images/stimuli/spore_stims/complex_16_A_a.gif","","","","",""
"","null","html-keyboard-response","125","625133","0.0-29.0-0.4","SS1619739897100","","","null","","","","","","<p><img src= images/blank.png width =""600"" height = ""600"" style=""position:fixed;top:50%; left:50%; transform: translate(-50%, -50%); border:5px solid black"">","","","","","","","",""
"","1532.4949999921955","sequential-stimulus-presentation-old","126","627176","0.0-29.0-1.4","SS1619739897100","trial","","40","500","2032.4949999921955","images/stimuli/spore_stims/complex_09_A_b.gif","images/stimuli/spore_stims/complex_16_A_a.gif","forced_long","","10","complex_dissimilar","images/stimuli/spore_stims/complex_16_A_a.gif","","","","",""
"","3033.1800000276417","survey-multi-choice","127","630214","0.0-30.0","SS1619739897100","math_question","","","","","","","","","","","","{""Q0"":""14""}","[0]","14","",""
"","null","html-keyboard-response","128","631244","0.0-31.0-0.0","SS1619739897100","","","null","","","","","","<p><img src= images/blank.png width =""600"" height = ""600"" style=""position:fixed;top:50%; left:50%; transform: translate(-50%, -50%); border:5px solid black"">","","","","","","","",""
"","971.9700000132434","sequential-stimulus-presentation-old","129","632724","0.0-31.0-1.0","SS1619739897100","trial","","40","500","1471.9700000132434","images/stimuli/spore_stims/complex_15_A_a.gif","images/stimuli/spore_stims/complex_11_A_b.gif","forced_short","","11","complex_dissimilar","images/stimuli/spore_stims/complex_11_A_b.gif","","","","",""
"","null","html-keyboard-response","130","633845","0.0-31.0-0.1","SS1619739897100","","","null","","","","","","<p><img src= images/blank.png width =""600"" height = ""600"" style=""position:fixed;top:50%; left:50%; transform: translate(-50%, -50%); border:5px solid black"">","","","","","","","",""
"","5410.0300000282","sequential-stimulus-presentation-old","131","639762","0.0-31.0-1.1","SS1619739897100","trial","","40","500","5910.0300000282","images/stimuli/spore_stims/complex_15_A_a.gif","images/stimuli/spore_stims/complex_11_A_b.gif","forced_short","","11","complex_dissimilar","images/stimuli/spore_stims/complex_11_A_b.gif","","","","",""
"","null","html-keyboard-response","132","640912","0.0-31.0-0.2","SS1619739897100","","","null","","","","","","<p><img src= images/blank.png width =""600"" height = ""600"" style=""position:fixed;top:50%; left:50%; transform: translate(-50%, -50%); border:5px solid black"">","","","","","","","",""
"","5614.334999991115","sequential-stimulus-presentation-old","133","647034","0.0-31.0-1.2","SS1619739897100","trial","","40","500","6114.334999991115","images/stimuli/spore_stims/complex_15_A_a.gif","images/stimuli/spore_stims/complex_11_A_b.gif","forced_short","","11","complex_dissimilar","images/stimuli/spore_stims/complex_15_A_a.gif","","","","",""
"","null","html-keyboard-response","134","647949","0.0-31.0-0.3","SS1619739897100","","","null","","","","","","<p><img src= images/blank.png width =""600"" height = ""600"" style=""position:fixed;top:50%; left:50%; transform: translate(-50%, -50%); border:5px solid black"">","","","","","","","",""
"","6285.649999976158","sequential-stimulus-presentation-old","135","654746","0.0-31.0-1.3","SS1619739897100","trial","","40","500","6785.649999976158","images/stimuli/spore_stims/complex_15_A_a.gif","images/stimuli/spore_stims/complex_11_A_b.gif","forced_short","","11","complex_dissimilar","images/stimuli/spore_stims/complex_11_A_b.gif","","","","",""
"","null","html-keyboard-response","136","655899","0.0-31.0-0.4","SS1619739897100","","","null","","","","","","<p><img src= images/blank.png width =""600"" height = ""600"" style=""position:fixed;top:50%; left:50%; transform: translate(-50%, -50%); border:5px solid black"">","","","","","","","",""
"","6201.665000000503","sequential-stimulus-presentation-old","137","662612","0.0-31.0-1.4","SS1619739897100","trial","","40","500","6701.665000000503","images/stimuli/spore_stims/complex_15_A_a.gif","images/stimuli/spore_stims/complex_11_A_b.gif","forced_short","","11","complex_dissimilar","images/stimuli/spore_stims/complex_11_A_b.gif","","","","",""
"[{""page_index"":0,""viewing_time"":4242.665000027046}]","4243.034999992233","instructions","138","666859","0.0-32.0","SS1619739897100","instructions","","","","","","","","","","","","","","","",""
"","10676.879999984521","survey-likert","139","677544","0.0-33.0","SS1619739897100","similarity_question","","","","","","","","","","","","{""Q0"":3}","[0]","","images/stimuli/spore_stims/simple_13_A_b.gif","images/stimuli/spore_stims/simple_14_A_a.gif"
"","7193.780000030529","survey-likert","140","684751","0.0-34.0","SS1619739897100","similarity_question","","","","","","","","","","","","{""Q0"":1}","[0]","","images/stimuli/spore_stims/complex_09_A_b.gif","images/stimuli/spore_stims/complex_16_A_a.gif"
"","3847.8999999933876","survey-likert","141","688614","0.0-35.0","SS1619739897100","similarity_question","","","","","","","","","","","","{""Q0"":2}","[0]","","images/stimuli/spore_stims/simple_05_A_b.gif","images/stimuli/spore_stims/simple_16_A_a.gif"
"","4104.795000050217","survey-likert","142","692730","0.0-36.0","SS1619739897100","similarity_question","","","","","","","","","","","","{""Q0"":2}","[0]","","images/stimuli/spore_stims/complex_04_A_a.gif","images/stimuli/spore_stims/complex_19_A_b.gif"
"","3952.534999989439","survey-likert","143","696695","0.0-37.0","SS1619739897100","similarity_question","","","","","","","","","","","","{""Q0"":4}","[0]","","images/stimuli/spore_stims/simple_06_A_b.gif","images/stimuli/spore_stims/simple_03_A_a.gif"
"","6238.119999994524","survey-likert","144","702947","0.0-38.0","SS1619739897100","similarity_question","","","","","","","","","","","","{""Q0"":3}","[0]","","images/stimuli/spore_stims/simple_11_A_a.gif","images/stimuli/spore_stims/simple_08_A_b.gif"
"","2938.0050000036135","survey-likert","145","705897","0.0-39.0","SS1619739897100","similarity_question","","","","","","","","","","","","{""Q0"":2}","[0]","","images/stimuli/spore_stims/simple_12_A_b.gif","images/stimuli/spore_stims/simple_19_A_a.gif"
"","2773.589999997057","survey-likert","146","708684","0.0-40.0","SS1619739897100","similarity_question","","","","","","","","","","","","{""Q0"":4}","[0]","","images/stimuli/spore_stims/simple_19_A_b.gif","images/stimuli/spore_stims/simple_10_A_a.gif"
"","8253.869999956805","survey-likert","147","716949","0.0-41.0","SS1619739897100","similarity_question","","","","","","","","","","","","{""Q0"":0}","[0]","","images/stimuli/spore_stims/complex_11_A_b.gif","images/stimuli/spore_stims/complex_15_A_a.gif"
"","14747.670000011567","survey-likert","148","731709","0.0-42.0","SS1619739897100","similarity_question","","","","","","","","","","","","{""Q0"":1}","[0]","","images/stimuli/spore_stims/complex_10_A_b.gif","images/stimuli/spore_stims/complex_17_A_a.gif"
"","12972.974999982398","survey-likert","149","744695","0.0-43.0","SS1619739897100","similarity_question","","","","","","","","","","","","{""Q0"":1}","[0]","","images/stimuli/spore_stims/complex_12_A_b.gif","images/stimuli/spore_stims/complex_20_A_a.gif"
"","3979.899999976624","survey-likert","150","748686","0.0-44.0","SS1619739897100","similarity_question","","","","","","","","","","","","{""Q0"":1}","[0]","","images/stimuli/spore_stims/complex_19_A_a.gif","images/stimuli/spore_stims/complex_17_A_b.gif"
"[{""page_index"":0,""viewing_time"":2990.460000000894}]","2990.875000017695","instructions","151","751688","0.0-45.0","SS1619739897100","instructions","","","","","","","","","","","","","","","",""
"","5717.464999994263","survey-likert","152","757412","0.0-46.0","SS1619739897100","","","","","","","","","images/stimuli/spore_stims/complex_19_A_b.gif","","","","{""Q0"":4}","[0]","","",""
"","3676.9050000002608","survey-likert","153","761100","0.0-47.0","SS1619739897100","","","","","","","","","images/stimuli/spore_stims/complex_16_A_a.gif","","","","{""Q0"":5}","[0]","","",""
"","3896.6200000140816","survey-likert","154","765009","0.0-48.0","SS1619739897100","","","","","","","","","images/stimuli/spore_stims/simple_11_A_a.gif","","","","{""Q0"":1}","[0]","","",""
"","3727.5299999746494","survey-likert","155","768748","0.0-49.0","SS1619739897100","","","","","","","","","images/stimuli/spore_stims/complex_17_A_b.gif","","","","{""Q0"":4}","[0]","","",""
"","3103.5549999796785","survey-likert","156","771864","0.0-50.0","SS1619739897100","","","","","","","","","images/stimuli/spore_stims/complex_15_A_a.gif","","","","{""Q0"":5}","[0]","","",""
"","3944.5399999967776","survey-likert","157","775820","0.0-51.0","SS1619739897100","","","","","","","","","images/stimuli/spore_stims/simple_10_A_a.gif","","","","{""Q0"":0}","[0]","","",""
"","2895.8550000097603","survey-likert","158","778730","0.0-52.0","SS1619739897100","","","","","","","","","images/stimuli/spore_stims/simple_12_A_b.gif","","","","{""Q0"":1}","[0]","","",""
"","4465.780000027735","survey-likert","159","783207","0.0-53.0","SS1619739897100","","","","","","","","","images/stimuli/spore_stims/complex_12_A_b.gif","","","","{""Q0"":5}","[0]","","",""
"","2654.3499999679625","survey-likert","160","785873","0.0-54.0","SS1619739897100","","","","","","","","","images/stimuli/spore_stims/simple_03_A_a.gif","","","","{""Q0"":1}","[0]","","",""
"","2468.1950000231154","survey-likert","161","788353","0.0-55.0","SS1619739897100","","","","","","","","","images/stimuli/spore_stims/simple_05_A_b.gif","","","","{""Q0"":0}","[0]","","",""
"","2561.5899999975227","survey-likert","162","790928","0.0-56.0","SS1619739897100","","","","","","","","","images/stimuli/spore_stims/complex_17_A_a.gif","","","","{""Q0"":5}","[0]","","",""
"","2900.309999997262","survey-likert","163","793841","0.0-57.0","SS1619739897100","","","","","","","","","images/stimuli/spore_stims/simple_13_A_b.gif","","","","{""Q0"":0}","[0]","","",""
"[{""page_index"":0,""viewing_time"":1916.9150000088848}]","1917.2700000344776","instructions","164","795772","0.0-58.0","SS1619739897100","instructions","","","","","","","","","","","","","","","",""
"","2455.7350000250153","demog-age","165","798238","0.0-59.0","SS1619739897100","","","","","","","","","","","","","{""age"":""22""}","","","",""
"","6075.349999999162","demog-ethnic-US","166","804324","0.0-60.0","SS1619739897100","","","","","","","","","","","","","{""ethnicity"":[""Hispanic or Latino"",""White""]}","[0]","","",""
"","14373.064999992494","demog-gender-and-education","167","818710","0.0-61.0","SS1619739897100","","","","","","","","","","","","","{""gender"":""Female"",""education"":""Associate Degree/Technical certification""}","[0,1]","","",""
"","46853.92999998294","survey-text","168","865579","0.0-62.0","SS1619739897100","feedback","","","","","","","","","","","","{""Q0"":""I didn't see all of the animations in the preview section, I saw some of them for the first time while rating how similar or dissimilar they are. ""}","","","",""
"[{""page_index"":0,""viewing_time"":2025.2500000060536}]","2025.614999991376","instructions","169","867611","0.0-63.0","SS1619739897100","instructions","","","","","","","","","","","","","","","",""
