success,trial_type,trial_index,time_elapsed,internal_node_id,subject,view_history,rt,stimulus_type,trial_stimulus,key_press,minimum_viewing_duration,trial_looking_time,block_deviant,block_background,exposure_type,forced_exposure_time,responses,question_order,memory_question_stimuli,memory_block_index,stimulus,block_number,block_type,stimulus_displayed,stimulus_left,stimulus_right
TRUE,fullscreen,0,4042,0.0-0.0,SS1627326478117,NA,NA,NA,NA,NA,NA,NA,NA,NA,NA,NA,NA,NA,NA,NA,NA,NA,NA,NA,NA,NA
NA,instructions,1,8210,0.0-1.0,SS1627326478117,"[{""page_index"":0,""viewing_time"":4163.065000029746}]",4164.310000021942,NA,NA,NA,NA,NA,NA,NA,NA,NA,NA,NA,NA,NA,NA,NA,NA,NA,NA,NA
NA,instructions,2,15875,0.0-2.0,SS1627326478117,"[{""page_index"":0,""viewing_time"":3539.124999952037},{""page_index"":1,""viewing_time"":2113.2499999948777}]",5653.064999962226,instructions,NA,NA,NA,NA,NA,NA,NA,NA,NA,NA,NA,NA,NA,NA,NA,NA,NA,NA
NA,stimuli-presentation,3,19662,0.0-3.0,SS1627326478117,NA,3277.300000016112,NA,NA,40,500,3777.300000016112,null,null,self_paced,0,NA,NA,NA,NA,NA,NA,NA,NA,NA,NA
NA,instructions,4,23342,0.0-4.0,SS1627326478117,"[{""page_index"":0,""viewing_time"":3678.234999999404}]",3678.825000009965,instructions,NA,NA,NA,NA,NA,NA,NA,NA,NA,NA,NA,NA,NA,NA,NA,NA,NA,NA
NA,stimuli-presentation,5,25200,0.0-5.0,SS1627326478117,NA,1348.3949999790639,NA,NA,40,500,1848.3949999790639,null,null,forced_short,500,NA,NA,NA,NA,NA,NA,NA,NA,NA,NA
NA,stimuli-presentation,6,26729,0.0-6.0,SS1627326478117,NA,1011.4550000289455,NA,NA,40,500,1511.4550000289455,null,null,forced_short,500,NA,NA,NA,NA,NA,NA,NA,NA,NA,NA
NA,instructions,7,29934,0.0-7.0,SS1627326478117,"[{""page_index"":0,""viewing_time"":3202.3100000224076}]",3202.9550000443123,instructions,NA,NA,NA,NA,NA,NA,NA,NA,NA,NA,NA,NA,NA,NA,NA,NA,NA,NA
NA,survey-multi-choice,8,32808,0.0-8.0,SS1627326478117,NA,2867.675000044983,memory_test_practice,NA,NA,NA,NA,NA,NA,NA,NA,"{""Q0"":""Yes""}",[0],images/practice/instructions_example_spore2.gif,0,NA,NA,NA,NA,NA,NA
NA,survey-multi-choice,9,35479,0.0-9.0,SS1627326478117,NA,2660.990000003949,memory_test_practice,NA,NA,NA,NA,NA,NA,NA,NA,"{""Q0"":""No""}",[0],images/practice/instructions_example_spore0.gif,0,NA,NA,NA,NA,NA,NA
NA,instructions,10,41181,0.0-10.0,SS1627326478117,"[{""page_index"":0,""viewing_time"":4519.544999988284},{""page_index"":1,""viewing_time"":1173.4600000199862}]",5693.535000027623,instructions,NA,NA,NA,NA,NA,NA,NA,NA,NA,NA,NA,NA,NA,NA,NA,NA,NA,NA
NA,html-keyboard-response,11,42220,0.0-11.0-0.0,SS1627326478117,NA,null,NA,NA,null,NA,NA,NA,NA,NA,NA,NA,NA,NA,NA,"<p><img src= images/blank.png width =""600"" height = ""600"" style=""position:fixed;top:50%; left:50%; transform: translate(-50%, -50%); border:5px solid black"">",NA,NA,NA,NA,NA
NA,stimuli-presentation,12,43450,0.0-11.0-1.0,SS1627326478117,NA,619.1300000064075,trial,NA,40,500,1119.1300000064075,images/stimuli/complex_02_A_a.gif,images/stimuli/complex_10_A_b.gif,forced_short,600,NA,NA,NA,NA,NA,0,complex_dissimilar,images/stimuli/complex_10_A_b.gif,NA,NA
NA,html-keyboard-response,13,44529,0.0-11.0-0.1,SS1627326478117,NA,null,NA,NA,null,NA,NA,NA,NA,NA,NA,NA,NA,NA,NA,"<p><img src= images/blank.png width =""600"" height = ""600"" style=""position:fixed;top:50%; left:50%; transform: translate(-50%, -50%); border:5px solid black"">",NA,NA,NA,NA,NA
NA,stimuli-presentation,14,47670,0.0-11.0-1.1,SS1627326478117,NA,2633.3549999981187,trial,NA,40,500,3133.3549999981187,images/stimuli/complex_02_A_a.gif,images/stimuli/complex_10_A_b.gif,forced_short,600,NA,NA,NA,NA,NA,0,complex_dissimilar,images/stimuli/complex_02_A_a.gif,NA,NA
NA,html-keyboard-response,15,48534,0.0-11.0-0.2,SS1627326478117,NA,null,NA,NA,null,NA,NA,NA,NA,NA,NA,NA,NA,NA,NA,"<p><img src= images/blank.png width =""600"" height = ""600"" style=""position:fixed;top:50%; left:50%; transform: translate(-50%, -50%); border:5px solid black"">",NA,NA,NA,NA,NA
NA,stimuli-presentation,16,49280,0.0-11.0-1.2,SS1627326478117,NA,234.02999999234453,trial,NA,40,500,734.0299999923445,images/stimuli/complex_02_A_a.gif,images/stimuli/complex_10_A_b.gif,forced_short,600,NA,NA,NA,NA,NA,0,complex_dissimilar,images/stimuli/complex_10_A_b.gif,NA,NA
NA,html-keyboard-response,17,50394,0.0-11.0-0.3,SS1627326478117,NA,null,NA,NA,null,NA,NA,NA,NA,NA,NA,NA,NA,NA,NA,"<p><img src= images/blank.png width =""600"" height = ""600"" style=""position:fixed;top:50%; left:50%; transform: translate(-50%, -50%); border:5px solid black"">",NA,NA,NA,NA,NA
NA,stimuli-presentation,18,51880,0.0-11.0-1.3,SS1627326478117,NA,960.8700000098906,trial,NA,40,500,1460.8700000098906,images/stimuli/complex_02_A_a.gif,images/stimuli/complex_10_A_b.gif,forced_short,600,NA,NA,NA,NA,NA,0,complex_dissimilar,images/stimuli/complex_10_A_b.gif,NA,NA
NA,html-keyboard-response,19,52738,0.0-11.0-0.4,SS1627326478117,NA,null,NA,NA,null,NA,NA,NA,NA,NA,NA,NA,NA,NA,NA,"<p><img src= images/blank.png width =""600"" height = ""600"" style=""position:fixed;top:50%; left:50%; transform: translate(-50%, -50%); border:5px solid black"">",NA,NA,NA,NA,NA
NA,stimuli-presentation,20,53540,0.0-11.0-1.4,SS1627326478117,NA,294.0999999991618,trial,NA,40,500,794.0999999991618,images/stimuli/complex_02_A_a.gif,images/stimuli/complex_10_A_b.gif,forced_short,600,NA,NA,NA,NA,NA,0,complex_dissimilar,images/stimuli/complex_10_A_b.gif,NA,NA
NA,html-keyboard-response,21,54499,0.0-11.0-0.5,SS1627326478117,NA,null,NA,NA,null,NA,NA,NA,NA,NA,NA,NA,NA,NA,NA,"<p><img src= images/blank.png width =""600"" height = ""600"" style=""position:fixed;top:50%; left:50%; transform: translate(-50%, -50%); border:5px solid black"">",NA,NA,NA,NA,NA
NA,stimuli-presentation,22,56120,0.0-11.0-1.5,SS1627326478117,NA,1112.2700000414625,trial,NA,40,500,1612.2700000414625,images/stimuli/complex_02_A_a.gif,images/stimuli/complex_10_A_b.gif,forced_short,600,NA,NA,NA,NA,NA,0,complex_dissimilar,images/stimuli/complex_10_A_b.gif,NA,NA
NA,html-keyboard-response,23,57217,0.0-11.0-0.6,SS1627326478117,NA,null,NA,NA,null,NA,NA,NA,NA,NA,NA,NA,NA,NA,NA,"<p><img src= images/blank.png width =""600"" height = ""600"" style=""position:fixed;top:50%; left:50%; transform: translate(-50%, -50%); border:5px solid black"">",NA,NA,NA,NA,NA
NA,stimuli-presentation,24,57899,0.0-11.0-1.6,SS1627326478117,NA,173.575000022538,trial,NA,40,500,673.575000022538,images/stimuli/complex_02_A_a.gif,images/stimuli/complex_10_A_b.gif,forced_short,600,NA,NA,NA,NA,NA,0,complex_dissimilar,images/stimuli/complex_02_A_a.gif,NA,NA
NA,survey-multi-choice,25,60491,0.0-12.0,SS1627326478117,NA,2589.31999997003,memory_test,NA,NA,NA,NA,NA,NA,NA,NA,"{""Q0"":""No""}",[0],images/stimuli/complex_19_A_b.gif,0,NA,NA,NA,NA,NA,NA
NA,survey-multi-choice,26,62433,0.0-13.0,SS1627326478117,NA,1931.220000027679,memory_test,NA,NA,NA,NA,NA,NA,NA,NA,"{""Q0"":""Yes""}",[0],images/stimuli/complex_02_A_a.gif,0,NA,NA,NA,NA,NA,NA
NA,html-keyboard-response,27,63464,0.0-14.0-0.0,SS1627326478117,NA,null,NA,NA,null,NA,NA,NA,NA,NA,NA,NA,NA,NA,NA,"<p><img src= images/blank.png width =""600"" height = ""600"" style=""position:fixed;top:50%; left:50%; transform: translate(-50%, -50%); border:5px solid black"">",NA,NA,NA,NA,NA
NA,stimuli-presentation,28,64829,0.0-14.0-1.0,SS1627326478117,NA,514.3200000165962,trial,NA,40,500,1014.3200000165962,images/stimuli/complex_15_A_b.gif,images/stimuli/complex_24_A_a.gif,forced_short,840,NA,NA,NA,NA,NA,1,complex_dissimilar,images/stimuli/complex_24_A_a.gif,NA,NA
NA,html-keyboard-response,29,65676,0.0-14.0-0.1,SS1627326478117,NA,null,NA,NA,null,NA,NA,NA,NA,NA,NA,NA,NA,NA,NA,"<p><img src= images/blank.png width =""600"" height = ""600"" style=""position:fixed;top:50%; left:50%; transform: translate(-50%, -50%); border:5px solid black"">",NA,NA,NA,NA,NA
NA,stimuli-presentation,30,66929,0.0-14.0-1.1,SS1627326478117,NA,740.3100000228733,trial,NA,40,500,1240.3100000228733,images/stimuli/complex_15_A_b.gif,images/stimuli/complex_24_A_a.gif,forced_short,840,NA,NA,NA,NA,NA,1,complex_dissimilar,images/stimuli/complex_24_A_a.gif,NA,NA
NA,html-keyboard-response,31,67787,0.0-14.0-0.2,SS1627326478117,NA,null,NA,NA,null,NA,NA,NA,NA,NA,NA,NA,NA,NA,NA,"<p><img src= images/blank.png width =""600"" height = ""600"" style=""position:fixed;top:50%; left:50%; transform: translate(-50%, -50%); border:5px solid black"">",NA,NA,NA,NA,NA
NA,stimuli-presentation,32,68398,0.0-14.0-1.2,SS1627326478117,NA,103.91500004334375,trial,NA,40,500,603.9150000433438,images/stimuli/complex_15_A_b.gif,images/stimuli/complex_24_A_a.gif,forced_short,840,NA,NA,NA,NA,NA,1,complex_dissimilar,images/stimuli/complex_24_A_a.gif,NA,NA
NA,html-keyboard-response,33,69683,0.0-14.0-0.3,SS1627326478117,NA,null,NA,NA,null,NA,NA,NA,NA,NA,NA,NA,NA,NA,NA,"<p><img src= images/blank.png width =""600"" height = ""600"" style=""position:fixed;top:50%; left:50%; transform: translate(-50%, -50%); border:5px solid black"">",NA,NA,NA,NA,NA
NA,stimuli-presentation,34,70979,0.0-14.0-1.3,SS1627326478117,NA,791.1350000067614,trial,NA,40,500,1291.1350000067614,images/stimuli/complex_15_A_b.gif,images/stimuli/complex_24_A_a.gif,forced_short,840,NA,NA,NA,NA,NA,1,complex_dissimilar,images/stimuli/complex_24_A_a.gif,NA,NA
NA,html-keyboard-response,35,72060,0.0-14.0-0.4,SS1627326478117,NA,null,NA,NA,null,NA,NA,NA,NA,NA,NA,NA,NA,NA,NA,"<p><img src= images/blank.png width =""600"" height = ""600"" style=""position:fixed;top:50%; left:50%; transform: translate(-50%, -50%); border:5px solid black"">",NA,NA,NA,NA,NA
NA,stimuli-presentation,36,72619,0.0-14.0-1.4,SS1627326478117,NA,41.31000000052154,trial,NA,40,500,541.3100000005215,images/stimuli/complex_15_A_b.gif,images/stimuli/complex_24_A_a.gif,forced_short,840,NA,NA,NA,NA,NA,1,complex_dissimilar,images/stimuli/complex_24_A_a.gif,NA,NA
NA,html-keyboard-response,37,73660,0.0-14.0-0.5,SS1627326478117,NA,null,NA,NA,null,NA,NA,NA,NA,NA,NA,NA,NA,NA,NA,"<p><img src= images/blank.png width =""600"" height = ""600"" style=""position:fixed;top:50%; left:50%; transform: translate(-50%, -50%); border:5px solid black"">",NA,NA,NA,NA,NA
NA,stimuli-presentation,38,74199,0.0-14.0-1.5,SS1627326478117,NA,30.800000007729977,trial,NA,40,500,530.80000000773,images/stimuli/complex_15_A_b.gif,images/stimuli/complex_24_A_a.gif,forced_short,840,NA,NA,NA,NA,NA,1,complex_dissimilar,images/stimuli/complex_24_A_a.gif,NA,NA
NA,html-keyboard-response,39,75280,0.0-14.0-0.6,SS1627326478117,NA,null,NA,NA,null,NA,NA,NA,NA,NA,NA,NA,NA,NA,NA,"<p><img src= images/blank.png width =""600"" height = ""600"" style=""position:fixed;top:50%; left:50%; transform: translate(-50%, -50%); border:5px solid black"">",NA,NA,NA,NA,NA
NA,stimuli-presentation,40,76229,0.0-14.0-1.6,SS1627326478117,NA,440.3850000235252,trial,NA,40,500,940.3850000235252,images/stimuli/complex_15_A_b.gif,images/stimuli/complex_24_A_a.gif,forced_short,840,NA,NA,NA,NA,NA,1,complex_dissimilar,images/stimuli/complex_24_A_a.gif,NA,NA
NA,survey-multi-choice,41,78524,0.0-15.0,SS1627326478117,NA,2292.4699999857694,memory_test,NA,NA,NA,NA,NA,NA,NA,NA,"{""Q0"":""No""}",[0],images/stimuli/complex_17_A_b.gif,1,NA,NA,NA,NA,NA,NA
NA,survey-multi-choice,42,80159,0.0-16.0,SS1627326478117,NA,1623.45999997342,memory_test,NA,NA,NA,NA,NA,NA,NA,NA,"{""Q0"":""Yes""}",[0],images/stimuli/complex_24_A_a.gif,1,NA,NA,NA,NA,NA,NA
NA,html-keyboard-response,43,81128,0.0-17.0-0.0,SS1627326478117,NA,null,NA,NA,null,NA,NA,NA,NA,NA,NA,NA,NA,NA,NA,"<p><img src= images/blank.png width =""600"" height = ""600"" style=""position:fixed;top:50%; left:50%; transform: translate(-50%, -50%); border:5px solid black"">",NA,NA,NA,NA,NA
NA,stimuli-presentation,44,82429,0.0-17.0-1.0,SS1627326478117,NA,889.1350000048988,trial,NA,40,500,1389.1350000048988,images/stimuli/complex_04_A_a.gif,images/stimuli/complex_08_A_a.gif,forced_short,400,NA,NA,NA,NA,NA,2,complex_dissimilar,images/stimuli/complex_08_A_a.gif,NA,NA
NA,html-keyboard-response,45,83476,0.0-17.0-0.1,SS1627326478117,NA,null,NA,NA,null,NA,NA,NA,NA,NA,NA,NA,NA,NA,NA,"<p><img src= images/blank.png width =""600"" height = ""600"" style=""position:fixed;top:50%; left:50%; transform: translate(-50%, -50%); border:5px solid black"">",NA,NA,NA,NA,NA
NA,stimuli-presentation,46,84199,0.0-17.0-1.1,SS1627326478117,NA,212.17000001342967,trial,NA,40,500,712.1700000134297,images/stimuli/complex_04_A_a.gif,images/stimuli/complex_08_A_a.gif,forced_short,400,NA,NA,NA,NA,NA,2,complex_dissimilar,images/stimuli/complex_08_A_a.gif,NA,NA
NA,html-keyboard-response,47,85055,0.0-17.0-0.2,SS1627326478117,NA,null,NA,NA,null,NA,NA,NA,NA,NA,NA,NA,NA,NA,NA,"<p><img src= images/blank.png width =""600"" height = ""600"" style=""position:fixed;top:50%; left:50%; transform: translate(-50%, -50%); border:5px solid black"">",NA,NA,NA,NA,NA
NA,stimuli-presentation,48,86329,0.0-17.0-1.2,SS1627326478117,NA,761.7850000387989,trial,NA,40,500,1261.785000038799,images/stimuli/complex_04_A_a.gif,images/stimuli/complex_08_A_a.gif,forced_short,400,NA,NA,NA,NA,NA,2,complex_dissimilar,images/stimuli/complex_08_A_a.gif,NA,NA
NA,html-keyboard-response,49,87590,0.0-17.0-0.3,SS1627326478117,NA,null,NA,NA,null,NA,NA,NA,NA,NA,NA,NA,NA,NA,NA,"<p><img src= images/blank.png width =""600"" height = ""600"" style=""position:fixed;top:50%; left:50%; transform: translate(-50%, -50%); border:5px solid black"">",NA,NA,NA,NA,NA
NA,stimuli-presentation,50,88209,0.0-17.0-1.3,SS1627326478117,NA,111.32999998517334,trial,NA,40,500,611.3299999851733,images/stimuli/complex_04_A_a.gif,images/stimuli/complex_08_A_a.gif,forced_short,400,NA,NA,NA,NA,NA,2,complex_dissimilar,images/stimuli/complex_08_A_a.gif,NA,NA
NA,html-keyboard-response,51,89267,0.0-17.0-0.4,SS1627326478117,NA,null,NA,NA,null,NA,NA,NA,NA,NA,NA,NA,NA,NA,NA,"<p><img src= images/blank.png width =""600"" height = ""600"" style=""position:fixed;top:50%; left:50%; transform: translate(-50%, -50%); border:5px solid black"">",NA,NA,NA,NA,NA
NA,stimuli-presentation,52,91488,0.0-17.0-1.4,SS1627326478117,NA,1713.7549999752082,trial,NA,40,500,2213.754999975208,images/stimuli/complex_04_A_a.gif,images/stimuli/complex_08_A_a.gif,forced_short,400,NA,NA,NA,NA,NA,2,complex_dissimilar,images/stimuli/complex_04_A_a.gif,NA,NA
NA,html-keyboard-response,53,92785,0.0-17.0-0.5,SS1627326478117,NA,null,NA,NA,null,NA,NA,NA,NA,NA,NA,NA,NA,NA,NA,"<p><img src= images/blank.png width =""600"" height = ""600"" style=""position:fixed;top:50%; left:50%; transform: translate(-50%, -50%); border:5px solid black"">",NA,NA,NA,NA,NA
NA,stimuli-presentation,54,93359,0.0-17.0-1.5,SS1627326478117,NA,64.76000003749505,trial,NA,40,500,564.760000037495,images/stimuli/complex_04_A_a.gif,images/stimuli/complex_08_A_a.gif,forced_short,400,NA,NA,NA,NA,NA,2,complex_dissimilar,images/stimuli/complex_08_A_a.gif,NA,NA
NA,html-keyboard-response,55,94215,0.0-17.0-0.6,SS1627326478117,NA,null,NA,NA,null,NA,NA,NA,NA,NA,NA,NA,NA,NA,NA,"<p><img src= images/blank.png width =""600"" height = ""600"" style=""position:fixed;top:50%; left:50%; transform: translate(-50%, -50%); border:5px solid black"">",NA,NA,NA,NA,NA
NA,stimuli-presentation,56,95029,0.0-17.0-1.6,SS1627326478117,NA,305.07000000216067,trial,NA,40,500,805.0700000021607,images/stimuli/complex_04_A_a.gif,images/stimuli/complex_08_A_a.gif,forced_short,400,NA,NA,NA,NA,NA,2,complex_dissimilar,images/stimuli/complex_04_A_a.gif,NA,NA
NA,survey-multi-choice,57,97850,0.0-18.0,SS1627326478117,NA,2816.999999980908,memory_test,NA,NA,NA,NA,NA,NA,NA,NA,"{""Q0"":""No""}",[0],images/stimuli/complex_14_A_b.gif,2,NA,NA,NA,NA,NA,NA
NA,survey-multi-choice,58,100188,0.0-19.0,SS1627326478117,NA,2326.0299999965355,memory_test,NA,NA,NA,NA,NA,NA,NA,NA,"{""Q0"":""Yes""}",[0],images/stimuli/complex_08_A_a.gif,2,NA,NA,NA,NA,NA,NA
NA,html-keyboard-response,59,101049,0.0-20.0-0.0,SS1627326478117,NA,null,NA,NA,null,NA,NA,NA,NA,NA,NA,NA,NA,NA,NA,"<p><img src= images/blank.png width =""600"" height = ""600"" style=""position:fixed;top:50%; left:50%; transform: translate(-50%, -50%); border:5px solid black"">",NA,NA,NA,NA,NA
NA,stimuli-presentation,60,108500,0.0-20.0-1.0,SS1627326478117,NA,6671.040000044741,trial,NA,40,500,7171.040000044741,images/stimuli/complex_06_A_b.gif,images/stimuli/complex_20_A_b.gif,forced_short,770,NA,NA,NA,NA,NA,3,complex_dissimilar,images/stimuli/complex_20_A_b.gif,NA,NA
NA,html-keyboard-response,61,109763,0.0-20.0-0.1,SS1627326478117,NA,null,NA,NA,null,NA,NA,NA,NA,NA,NA,NA,NA,NA,NA,"<p><img src= images/blank.png width =""600"" height = ""600"" style=""position:fixed;top:50%; left:50%; transform: translate(-50%, -50%); border:5px solid black"">",NA,NA,NA,NA,NA
NA,stimuli-presentation,62,111029,0.0-20.0-1.1,SS1627326478117,NA,747.8949999785982,trial,NA,40,500,1247.8949999785982,images/stimuli/complex_06_A_b.gif,images/stimuli/complex_20_A_b.gif,forced_short,770,NA,NA,NA,NA,NA,3,complex_dissimilar,images/stimuli/complex_20_A_b.gif,NA,NA
NA,html-keyboard-response,63,112289,0.0-20.0-0.2,SS1627326478117,NA,null,NA,NA,null,NA,NA,NA,NA,NA,NA,NA,NA,NA,NA,"<p><img src= images/blank.png width =""600"" height = ""600"" style=""position:fixed;top:50%; left:50%; transform: translate(-50%, -50%); border:5px solid black"">",NA,NA,NA,NA,NA
NA,stimuli-presentation,64,113169,0.0-20.0-1.2,SS1627326478117,NA,362.7950000227429,trial,NA,40,500,862.7950000227429,images/stimuli/complex_06_A_b.gif,images/stimuli/complex_20_A_b.gif,forced_short,770,NA,NA,NA,NA,NA,3,complex_dissimilar,images/stimuli/complex_20_A_b.gif,NA,NA
NA,html-keyboard-response,65,114050,0.0-20.0-0.3,SS1627326478117,NA,null,NA,NA,null,NA,NA,NA,NA,NA,NA,NA,NA,NA,NA,"<p><img src= images/blank.png width =""600"" height = ""600"" style=""position:fixed;top:50%; left:50%; transform: translate(-50%, -50%); border:5px solid black"">",NA,NA,NA,NA,NA
NA,stimuli-presentation,66,114679,0.0-20.0-1.3,SS1627326478117,NA,120.0550000066869,trial,NA,40,500,620.0550000066869,images/stimuli/complex_06_A_b.gif,images/stimuli/complex_20_A_b.gif,forced_short,770,NA,NA,NA,NA,NA,3,complex_dissimilar,images/stimuli/complex_20_A_b.gif,NA,NA
NA,html-keyboard-response,67,115874,0.0-20.0-0.4,SS1627326478117,NA,null,NA,NA,null,NA,NA,NA,NA,NA,NA,NA,NA,NA,NA,"<p><img src= images/blank.png width =""600"" height = ""600"" style=""position:fixed;top:50%; left:50%; transform: translate(-50%, -50%); border:5px solid black"">",NA,NA,NA,NA,NA
NA,stimuli-presentation,68,116399,0.0-20.0-1.4,SS1627326478117,NA,15.669999993406236,trial,NA,40,500,515.6699999934062,images/stimuli/complex_06_A_b.gif,images/stimuli/complex_20_A_b.gif,forced_short,770,NA,NA,NA,NA,NA,3,complex_dissimilar,images/stimuli/complex_20_A_b.gif,NA,NA
NA,html-keyboard-response,69,117486,0.0-20.0-0.5,SS1627326478117,NA,null,NA,NA,null,NA,NA,NA,NA,NA,NA,NA,NA,NA,NA,"<p><img src= images/blank.png width =""600"" height = ""600"" style=""position:fixed;top:50%; left:50%; transform: translate(-50%, -50%); border:5px solid black"">",NA,NA,NA,NA,NA
NA,stimuli-presentation,70,118029,0.0-20.0-1.5,SS1627326478117,NA,33.1049999804236,trial,NA,40,500,533.1049999804236,images/stimuli/complex_06_A_b.gif,images/stimuli/complex_20_A_b.gif,forced_short,770,NA,NA,NA,NA,NA,3,complex_dissimilar,images/stimuli/complex_20_A_b.gif,NA,NA
NA,survey-multi-choice,71,120881,0.0-21.0,SS1627326478117,NA,2848.8950000028126,memory_test,NA,NA,NA,NA,NA,NA,NA,NA,"{""Q0"":""Yes""}",[0],images/stimuli/complex_20_A_b.gif,3,NA,NA,NA,NA,NA,NA
NA,survey-multi-choice,72,122871,0.0-22.0,SS1627326478117,NA,1979.0200000279583,memory_test,NA,NA,NA,NA,NA,NA,NA,NA,"{""Q0"":""No""}",[0],images/stimuli/complex_05_A_a.gif,3,NA,NA,NA,NA,NA,NA
NA,html-keyboard-response,73,124105,0.0-23.0-0.0,SS1627326478117,NA,null,NA,NA,null,NA,NA,NA,NA,NA,NA,NA,NA,NA,NA,"<p><img src= images/blank.png width =""600"" height = ""600"" style=""position:fixed;top:50%; left:50%; transform: translate(-50%, -50%); border:5px solid black"">",NA,NA,NA,NA,NA
NA,stimuli-presentation,74,129028,0.0-23.0-1.0,SS1627326478117,NA,4777.9650000156835,trial,NA,40,500,5277.9650000156835,images/stimuli/complex_12_A_a.gif,images/stimuli/complex_21_A_a.gif,forced_short,140,NA,NA,NA,NA,NA,4,complex_dissimilar,images/stimuli/complex_21_A_a.gif,NA,NA
NA,html-keyboard-response,75,130219,0.0-23.0-0.1,SS1627326478117,NA,null,NA,NA,null,NA,NA,NA,NA,NA,NA,NA,NA,NA,NA,"<p><img src= images/blank.png width =""600"" height = ""600"" style=""position:fixed;top:50%; left:50%; transform: translate(-50%, -50%); border:5px solid black"">",NA,NA,NA,NA,NA
NA,stimuli-presentation,76,131189,0.0-23.0-1.1,SS1627326478117,NA,463.2849999470636,trial,NA,40,500,963.2849999470636,images/stimuli/complex_12_A_a.gif,images/stimuli/complex_21_A_a.gif,forced_short,140,NA,NA,NA,NA,NA,4,complex_dissimilar,images/stimuli/complex_21_A_a.gif,NA,NA
NA,html-keyboard-response,77,132198,0.0-23.0-0.2,SS1627326478117,NA,null,NA,NA,null,NA,NA,NA,NA,NA,NA,NA,NA,NA,NA,"<p><img src= images/blank.png width =""600"" height = ""600"" style=""position:fixed;top:50%; left:50%; transform: translate(-50%, -50%); border:5px solid black"">",NA,NA,NA,NA,NA
NA,stimuli-presentation,78,133648,0.0-23.0-1.2,SS1627326478117,NA,943.970000022091,trial,NA,40,500,1443.970000022091,images/stimuli/complex_12_A_a.gif,images/stimuli/complex_21_A_a.gif,forced_short,140,NA,NA,NA,NA,NA,4,complex_dissimilar,images/stimuli/complex_21_A_a.gif,NA,NA
NA,html-keyboard-response,79,134535,0.0-23.0-0.3,SS1627326478117,NA,null,NA,NA,null,NA,NA,NA,NA,NA,NA,NA,NA,NA,NA,"<p><img src= images/blank.png width =""600"" height = ""600"" style=""position:fixed;top:50%; left:50%; transform: translate(-50%, -50%); border:5px solid black"">",NA,NA,NA,NA,NA
NA,stimuli-presentation,80,135068,0.0-23.0-1.3,SS1627326478117,NA,25.614999991375953,trial,NA,40,500,525.614999991376,images/stimuli/complex_12_A_a.gif,images/stimuli/complex_21_A_a.gif,forced_short,140,NA,NA,NA,NA,NA,4,complex_dissimilar,images/stimuli/complex_21_A_a.gif,NA,NA
NA,html-keyboard-response,81,136138,0.0-23.0-0.4,SS1627326478117,NA,null,NA,NA,null,NA,NA,NA,NA,NA,NA,NA,NA,NA,NA,"<p><img src= images/blank.png width =""600"" height = ""600"" style=""position:fixed;top:50%; left:50%; transform: translate(-50%, -50%); border:5px solid black"">",NA,NA,NA,NA,NA
NA,stimuli-presentation,82,137098,0.0-23.0-1.4,SS1627326478117,NA,441.5900000021793,trial,NA,40,500,941.5900000021793,images/stimuli/complex_12_A_a.gif,images/stimuli/complex_21_A_a.gif,forced_short,140,NA,NA,NA,NA,NA,4,complex_dissimilar,images/stimuli/complex_21_A_a.gif,NA,NA
NA,html-keyboard-response,83,138093,0.0-23.0-0.5,SS1627326478117,NA,null,NA,NA,null,NA,NA,NA,NA,NA,NA,NA,NA,NA,NA,"<p><img src= images/blank.png width =""600"" height = ""600"" style=""position:fixed;top:50%; left:50%; transform: translate(-50%, -50%); border:5px solid black"">",NA,NA,NA,NA,NA
NA,stimuli-presentation,84,138908,0.0-23.0-1.5,SS1627326478117,NA,309.8599999793805,trial,NA,40,500,809.8599999793805,images/stimuli/complex_12_A_a.gif,images/stimuli/complex_21_A_a.gif,forced_short,140,NA,NA,NA,NA,NA,4,complex_dissimilar,images/stimuli/complex_21_A_a.gif,NA,NA
NA,survey-multi-choice,85,141460,0.0-24.0,SS1627326478117,NA,2546.375000034459,memory_test,NA,NA,NA,NA,NA,NA,NA,NA,"{""Q0"":""Yes""}",[0],images/stimuli/complex_21_A_a.gif,4,NA,NA,NA,NA,NA,NA
NA,survey-multi-choice,86,143355,0.0-25.0,SS1627326478117,NA,1879.5700000482611,memory_test,NA,NA,NA,NA,NA,NA,NA,NA,"{""Q0"":""No""}",[0],images/stimuli/complex_07_A_a.gif,4,NA,NA,NA,NA,NA,NA
NA,html-keyboard-response,87,144403,0.0-26.0-0.0,SS1627326478117,NA,null,NA,NA,null,NA,NA,NA,NA,NA,NA,NA,NA,NA,NA,"<p><img src= images/blank.png width =""600"" height = ""600"" style=""position:fixed;top:50%; left:50%; transform: translate(-50%, -50%); border:5px solid black"">",NA,NA,NA,NA,NA
NA,stimuli-presentation,88,145449,0.0-26.0-1.0,SS1627326478117,NA,529.404999979306,trial,NA,40,500,1029.404999979306,images/stimuli/complex_13_A_b.gif,images/stimuli/complex_16_A_b.gif,forced_short,510,NA,NA,NA,NA,NA,5,complex_dissimilar,images/stimuli/complex_16_A_b.gif,NA,NA
NA,html-keyboard-response,89,146448,0.0-26.0-0.1,SS1627326478117,NA,null,NA,NA,null,NA,NA,NA,NA,NA,NA,NA,NA,NA,NA,"<p><img src= images/blank.png width =""600"" height = ""600"" style=""position:fixed;top:50%; left:50%; transform: translate(-50%, -50%); border:5px solid black"">",NA,NA,NA,NA,NA
NA,stimuli-presentation,90,147568,0.0-26.0-1.1,SS1627326478117,NA,601.0900000110269,trial,NA,40,500,1101.0900000110269,images/stimuli/complex_13_A_b.gif,images/stimuli/complex_16_A_b.gif,forced_short,510,NA,NA,NA,NA,NA,5,complex_dissimilar,images/stimuli/complex_16_A_b.gif,NA,NA
NA,html-keyboard-response,91,148774,0.0-26.0-0.2,SS1627326478117,NA,null,NA,NA,null,NA,NA,NA,NA,NA,NA,NA,NA,NA,NA,"<p><img src= images/blank.png width =""600"" height = ""600"" style=""position:fixed;top:50%; left:50%; transform: translate(-50%, -50%); border:5px solid black"">",NA,NA,NA,NA,NA
NA,stimuli-presentation,92,149688,0.0-26.0-1.2,SS1627326478117,NA,395.4249999951571,trial,NA,40,500,895.4249999951571,images/stimuli/complex_13_A_b.gif,images/stimuli/complex_16_A_b.gif,forced_short,510,NA,NA,NA,NA,NA,5,complex_dissimilar,images/stimuli/complex_16_A_b.gif,NA,NA
NA,html-keyboard-response,93,150792,0.0-26.0-0.3,SS1627326478117,NA,null,NA,NA,null,NA,NA,NA,NA,NA,NA,NA,NA,NA,NA,"<p><img src= images/blank.png width =""600"" height = ""600"" style=""position:fixed;top:50%; left:50%; transform: translate(-50%, -50%); border:5px solid black"">",NA,NA,NA,NA,NA
NA,stimuli-presentation,94,151619,0.0-26.0-1.3,SS1627326478117,NA,318.41000000713393,trial,NA,40,500,818.4100000071339,images/stimuli/complex_13_A_b.gif,images/stimuli/complex_16_A_b.gif,forced_short,510,NA,NA,NA,NA,NA,5,complex_dissimilar,images/stimuli/complex_16_A_b.gif,NA,NA
NA,html-keyboard-response,95,152848,0.0-26.0-0.4,SS1627326478117,NA,null,NA,NA,null,NA,NA,NA,NA,NA,NA,NA,NA,NA,NA,"<p><img src= images/blank.png width =""600"" height = ""600"" style=""position:fixed;top:50%; left:50%; transform: translate(-50%, -50%); border:5px solid black"">",NA,NA,NA,NA,NA
NA,stimuli-presentation,96,153489,0.0-26.0-1.4,SS1627326478117,NA,130.1400000229478,trial,NA,40,500,630.1400000229478,images/stimuli/complex_13_A_b.gif,images/stimuli/complex_16_A_b.gif,forced_short,510,NA,NA,NA,NA,NA,5,complex_dissimilar,images/stimuli/complex_16_A_b.gif,NA,NA
NA,html-keyboard-response,97,154652,0.0-26.0-0.5,SS1627326478117,NA,null,NA,NA,null,NA,NA,NA,NA,NA,NA,NA,NA,NA,NA,"<p><img src= images/blank.png width =""600"" height = ""600"" style=""position:fixed;top:50%; left:50%; transform: translate(-50%, -50%); border:5px solid black"">",NA,NA,NA,NA,NA
NA,stimuli-presentation,98,155279,0.0-26.0-1.5,SS1627326478117,NA,118.5399999958463,trial,NA,40,500,618.5399999958463,images/stimuli/complex_13_A_b.gif,images/stimuli/complex_16_A_b.gif,forced_short,510,NA,NA,NA,NA,NA,5,complex_dissimilar,images/stimuli/complex_16_A_b.gif,NA,NA
NA,html-keyboard-response,99,156548,0.0-26.0-0.6,SS1627326478117,NA,null,NA,NA,null,NA,NA,NA,NA,NA,NA,NA,NA,NA,NA,"<p><img src= images/blank.png width =""600"" height = ""600"" style=""position:fixed;top:50%; left:50%; transform: translate(-50%, -50%); border:5px solid black"">",NA,NA,NA,NA,NA
NA,stimuli-presentation,100,157749,0.0-26.0-1.6,SS1627326478117,NA,691.9549999875017,trial,NA,40,500,1191.9549999875017,images/stimuli/complex_13_A_b.gif,images/stimuli/complex_16_A_b.gif,forced_short,510,NA,NA,NA,NA,NA,5,complex_dissimilar,images/stimuli/complex_16_A_b.gif,NA,NA
NA,survey-multi-choice,101,160281,0.0-27.0,SS1627326478117,NA,2527.0999999484047,memory_test,NA,NA,NA,NA,NA,NA,NA,NA,"{""Q0"":""Yes""}",[0],images/stimuli/complex_16_A_b.gif,5,NA,NA,NA,NA,NA,NA
NA,survey-multi-choice,102,162271,0.0-28.0,SS1627326478117,NA,1977.4500000057742,memory_test,NA,NA,NA,NA,NA,NA,NA,NA,"{""Q0"":""No""}",[0],images/stimuli/complex_22_A_b.gif,5,NA,NA,NA,NA,NA,NA
NA,html-keyboard-response,103,163261,0.0-29.0-0.0,SS1627326478117,NA,null,NA,NA,null,NA,NA,NA,NA,NA,NA,NA,NA,NA,NA,"<p><img src= images/blank.png width =""600"" height = ""600"" style=""position:fixed;top:50%; left:50%; transform: translate(-50%, -50%); border:5px solid black"">",NA,NA,NA,NA,NA
NA,stimuli-presentation,104,164469,0.0-29.0-1.0,SS1627326478117,NA,888.6150000034831,trial,NA,40,500,1388.6150000034831,images/stimuli/complex_09_A_b.gif,images/stimuli/complex_01_A_b.gif,forced_short,310,NA,NA,NA,NA,NA,6,complex_dissimilar,images/stimuli/complex_01_A_b.gif,NA,NA
NA,html-keyboard-response,105,165462,0.0-29.0-0.1,SS1627326478117,NA,null,NA,NA,null,NA,NA,NA,NA,NA,NA,NA,NA,NA,NA,"<p><img src= images/blank.png width =""600"" height = ""600"" style=""position:fixed;top:50%; left:50%; transform: translate(-50%, -50%); border:5px solid black"">",NA,NA,NA,NA,NA
NA,stimuli-presentation,106,166029,0.0-29.0-1.1,SS1627326478117,NA,60.31499995151535,trial,NA,40,500,560.3149999515153,images/stimuli/complex_09_A_b.gif,images/stimuli/complex_01_A_b.gif,forced_short,310,NA,NA,NA,NA,NA,6,complex_dissimilar,images/stimuli/complex_01_A_b.gif,NA,NA
NA,html-keyboard-response,107,166923,0.0-29.0-0.2,SS1627326478117,NA,null,NA,NA,null,NA,NA,NA,NA,NA,NA,NA,NA,NA,NA,"<p><img src= images/blank.png width =""600"" height = ""600"" style=""position:fixed;top:50%; left:50%; transform: translate(-50%, -50%); border:5px solid black"">",NA,NA,NA,NA,NA
NA,stimuli-presentation,108,167789,0.0-29.0-1.2,SS1627326478117,NA,357.6649999595247,trial,NA,40,500,857.6649999595247,images/stimuli/complex_09_A_b.gif,images/stimuli/complex_01_A_b.gif,forced_short,310,NA,NA,NA,NA,NA,6,complex_dissimilar,images/stimuli/complex_01_A_b.gif,NA,NA
NA,html-keyboard-response,109,168960,0.0-29.0-0.3,SS1627326478117,NA,null,NA,NA,null,NA,NA,NA,NA,NA,NA,NA,NA,NA,NA,"<p><img src= images/blank.png width =""600"" height = ""600"" style=""position:fixed;top:50%; left:50%; transform: translate(-50%, -50%); border:5px solid black"">",NA,NA,NA,NA,NA
NA,stimuli-presentation,110,169998,0.0-29.0-1.3,SS1627326478117,NA,529.8750000074506,trial,NA,40,500,1029.8750000074506,images/stimuli/complex_09_A_b.gif,images/stimuli/complex_01_A_b.gif,forced_short,310,NA,NA,NA,NA,NA,6,complex_dissimilar,images/stimuli/complex_01_A_b.gif,NA,NA
NA,html-keyboard-response,111,170832,0.0-29.0-0.4,SS1627326478117,NA,null,NA,NA,null,NA,NA,NA,NA,NA,NA,NA,NA,NA,NA,"<p><img src= images/blank.png width =""600"" height = ""600"" style=""position:fixed;top:50%; left:50%; transform: translate(-50%, -50%); border:5px solid black"">",NA,NA,NA,NA,NA
NA,stimuli-presentation,112,172259,0.0-29.0-1.4,SS1627326478117,NA,908.1199999782257,trial,NA,40,500,1408.1199999782257,images/stimuli/complex_09_A_b.gif,images/stimuli/complex_01_A_b.gif,forced_short,310,NA,NA,NA,NA,NA,6,complex_dissimilar,images/stimuli/complex_01_A_b.gif,NA,NA
NA,html-keyboard-response,113,173244,0.0-29.0-0.5,SS1627326478117,NA,null,NA,NA,null,NA,NA,NA,NA,NA,NA,NA,NA,NA,NA,"<p><img src= images/blank.png width =""600"" height = ""600"" style=""position:fixed;top:50%; left:50%; transform: translate(-50%, -50%); border:5px solid black"">",NA,NA,NA,NA,NA
NA,stimuli-presentation,114,175469,0.0-29.0-1.5,SS1627326478117,NA,1715.7950000255369,trial,NA,40,500,2215.795000025537,images/stimuli/complex_09_A_b.gif,images/stimuli/complex_01_A_b.gif,forced_short,310,NA,NA,NA,NA,NA,6,complex_dissimilar,images/stimuli/complex_01_A_b.gif,NA,NA
NA,html-keyboard-response,115,176545,0.0-29.0-0.6,SS1627326478117,NA,null,NA,NA,null,NA,NA,NA,NA,NA,NA,NA,NA,NA,NA,"<p><img src= images/blank.png width =""600"" height = ""600"" style=""position:fixed;top:50%; left:50%; transform: translate(-50%, -50%); border:5px solid black"">",NA,NA,NA,NA,NA
NA,stimuli-presentation,116,177109,0.0-29.0-1.6,SS1627326478117,NA,53.804999974090606,trial,NA,40,500,553.8049999740906,images/stimuli/complex_09_A_b.gif,images/stimuli/complex_01_A_b.gif,forced_short,310,NA,NA,NA,NA,NA,6,complex_dissimilar,images/stimuli/complex_01_A_b.gif,NA,NA
NA,html-keyboard-response,117,178299,0.0-29.0-0.7,SS1627326478117,NA,null,NA,NA,null,NA,NA,NA,NA,NA,NA,NA,NA,NA,NA,"<p><img src= images/blank.png width =""600"" height = ""600"" style=""position:fixed;top:50%; left:50%; transform: translate(-50%, -50%); border:5px solid black"">",NA,NA,NA,NA,NA
NA,stimuli-presentation,118,178977,0.0-29.0-1.7,SS1627326478117,NA,163.40499999932945,trial,NA,40,500,663.4049999993294,images/stimuli/complex_09_A_b.gif,images/stimuli/complex_01_A_b.gif,forced_short,310,NA,NA,NA,NA,NA,6,complex_dissimilar,images/stimuli/complex_01_A_b.gif,NA,NA
NA,survey-multi-choice,119,182178,0.0-30.0,SS1627326478117,NA,3196.319999988191,memory_test,NA,NA,NA,NA,NA,NA,NA,NA,"{""Q0"":""No""}",[0],images/stimuli/complex_18_A_a.gif,6,NA,NA,NA,NA,NA,NA
NA,survey-multi-choice,120,183792,0.0-31.0,SS1627326478117,NA,1600.5200000363402,memory_test,NA,NA,NA,NA,NA,NA,NA,NA,"{""Q0"":""Yes""}",[0],images/stimuli/complex_01_A_b.gif,6,NA,NA,NA,NA,NA,NA
NA,html-keyboard-response,121,184629,0.0-32.0-0.0,SS1627326478117,NA,null,NA,NA,null,NA,NA,NA,NA,NA,NA,NA,NA,NA,NA,"<p><img src= images/blank.png width =""600"" height = ""600"" style=""position:fixed;top:50%; left:50%; transform: translate(-50%, -50%); border:5px solid black"">",NA,NA,NA,NA,NA
NA,stimuli-presentation,122,190537,0.0-32.0-1.0,SS1627326478117,NA,5315.969999996014,trial,NA,40,500,5815.969999996014,images/stimuli/complex_03_A_a.gif,images/stimuli/complex_23_A_a.gif,forced_short,580,NA,NA,NA,NA,NA,7,complex_dissimilar,images/stimuli/complex_23_A_a.gif,NA,NA
NA,html-keyboard-response,123,191708,0.0-32.0-0.1,SS1627326478117,NA,null,NA,NA,null,NA,NA,NA,NA,NA,NA,NA,NA,NA,NA,"<p><img src= images/blank.png width =""600"" height = ""600"" style=""position:fixed;top:50%; left:50%; transform: translate(-50%, -50%); border:5px solid black"">",NA,NA,NA,NA,NA
NA,stimuli-presentation,124,199297,0.0-32.0-1.1,SS1627326478117,NA,7080.539999995381,trial,NA,40,500,7580.539999995381,images/stimuli/complex_03_A_a.gif,images/stimuli/complex_23_A_a.gif,forced_short,580,NA,NA,NA,NA,NA,7,complex_dissimilar,images/stimuli/complex_23_A_a.gif,NA,NA
NA,html-keyboard-response,125,200384,0.0-32.0-0.2,SS1627326478117,NA,null,NA,NA,null,NA,NA,NA,NA,NA,NA,NA,NA,NA,NA,"<p><img src= images/blank.png width =""600"" height = ""600"" style=""position:fixed;top:50%; left:50%; transform: translate(-50%, -50%); border:5px solid black"">",NA,NA,NA,NA,NA
NA,stimuli-presentation,126,201228,0.0-32.0-1.2,SS1627326478117,NA,333.2649999647401,trial,NA,40,500,833.2649999647401,images/stimuli/complex_03_A_a.gif,images/stimuli/complex_23_A_a.gif,forced_short,580,NA,NA,NA,NA,NA,7,complex_dissimilar,images/stimuli/complex_23_A_a.gif,NA,NA
NA,html-keyboard-response,127,202480,0.0-32.0-0.3,SS1627326478117,NA,null,NA,NA,null,NA,NA,NA,NA,NA,NA,NA,NA,NA,NA,"<p><img src= images/blank.png width =""600"" height = ""600"" style=""position:fixed;top:50%; left:50%; transform: translate(-50%, -50%); border:5px solid black"">",NA,NA,NA,NA,NA
NA,stimuli-presentation,128,203928,0.0-32.0-1.3,SS1627326478117,NA,934.1049999929965,trial,NA,40,500,1434.1049999929965,images/stimuli/complex_03_A_a.gif,images/stimuli/complex_23_A_a.gif,forced_short,580,NA,NA,NA,NA,NA,7,complex_dissimilar,images/stimuli/complex_23_A_a.gif,NA,NA
NA,html-keyboard-response,129,205105,0.0-32.0-0.4,SS1627326478117,NA,null,NA,NA,null,NA,NA,NA,NA,NA,NA,NA,NA,NA,NA,"<p><img src= images/blank.png width =""600"" height = ""600"" style=""position:fixed;top:50%; left:50%; transform: translate(-50%, -50%); border:5px solid black"">",NA,NA,NA,NA,NA
NA,stimuli-presentation,130,205958,0.0-32.0-1.4,SS1627326478117,NA,335.0699999718927,trial,NA,40,500,835.0699999718927,images/stimuli/complex_03_A_a.gif,images/stimuli/complex_23_A_a.gif,forced_short,580,NA,NA,NA,NA,NA,7,complex_dissimilar,images/stimuli/complex_23_A_a.gif,NA,NA
NA,html-keyboard-response,131,207024,0.0-32.0-0.5,SS1627326478117,NA,null,NA,NA,null,NA,NA,NA,NA,NA,NA,NA,NA,NA,NA,"<p><img src= images/blank.png width =""600"" height = ""600"" style=""position:fixed;top:50%; left:50%; transform: translate(-50%, -50%); border:5px solid black"">",NA,NA,NA,NA,NA
NA,stimuli-presentation,132,207868,0.0-32.0-1.5,SS1627326478117,NA,334.03999998699874,trial,NA,40,500,834.0399999869987,images/stimuli/complex_03_A_a.gif,images/stimuli/complex_23_A_a.gif,forced_short,580,NA,NA,NA,NA,NA,7,complex_dissimilar,images/stimuli/complex_23_A_a.gif,NA,NA
NA,survey-multi-choice,133,210691,0.0-33.0,SS1627326478117,NA,2818.28000000678,memory_test,NA,NA,NA,NA,NA,NA,NA,NA,"{""Q0"":""No""}",[0],images/stimuli/complex_11_A_a.gif,7,NA,NA,NA,NA,NA,NA
NA,survey-multi-choice,134,212361,0.0-34.0,SS1627326478117,NA,1656.734999967739,memory_test,NA,NA,NA,NA,NA,NA,NA,NA,"{""Q0"":""Yes""}",[0],images/stimuli/complex_23_A_a.gif,7,NA,NA,NA,NA,NA,NA
NA,instructions,135,214924,0.0-35.0,SS1627326478117,"[{""page_index"":0,""viewing_time"":2551.7849999596365}]",2552.395000006072,instructions,NA,NA,NA,NA,NA,NA,NA,NA,NA,NA,NA,NA,NA,NA,NA,NA,NA,NA
NA,survey-likert,136,220814,0.0-36.0,SS1627326478117,NA,5881.110000016633,similarity_question,NA,NA,NA,NA,NA,NA,NA,NA,"{""Q0"":4}",[0],NA,NA,NA,NA,NA,NA,images/stimuli/complex_21_A_a.gif,images/stimuli/complex_12_A_a.gif
NA,survey-likert,137,226161,0.0-37.0,SS1627326478117,NA,5332.9150000354275,similarity_question,NA,NA,NA,NA,NA,NA,NA,NA,"{""Q0"":4}",[0],NA,NA,NA,NA,NA,NA,images/stimuli/complex_24_A_a.gif,images/stimuli/complex_15_A_b.gif
NA,survey-likert,138,232234,0.0-38.0,SS1627326478117,NA,6058.929999999236,similarity_question,NA,NA,NA,NA,NA,NA,NA,NA,"{""Q0"":4}",[0],NA,NA,NA,NA,NA,NA,images/stimuli/complex_10_A_b.gif,images/stimuli/complex_02_A_a.gif
NA,survey-likert,139,236664,0.0-39.0,SS1627326478117,NA,4415.504999982659,similarity_question,NA,NA,NA,NA,NA,NA,NA,NA,"{""Q0"":2}",[0],NA,NA,NA,NA,NA,NA,images/stimuli/complex_03_A_a.gif,images/stimuli/complex_23_A_a.gif
NA,survey-likert,140,240381,0.0-40.0,SS1627326478117,NA,3701.3349999906495,similarity_question,NA,NA,NA,NA,NA,NA,NA,NA,"{""Q0"":5}",[0],NA,NA,NA,NA,NA,NA,images/stimuli/complex_06_A_b.gif,images/stimuli/complex_20_A_b.gif
NA,survey-likert,141,243306,0.0-41.0,SS1627326478117,NA,2911.034999997355,similarity_question,NA,NA,NA,NA,NA,NA,NA,NA,"{""Q0"":4}",[0],NA,NA,NA,NA,NA,NA,images/stimuli/complex_09_A_b.gif,images/stimuli/complex_01_A_b.gif
NA,survey-likert,142,246199,0.0-42.0,SS1627326478117,NA,2880.9149999869987,similarity_question,NA,NA,NA,NA,NA,NA,NA,NA,"{""Q0"":4}",[0],NA,NA,NA,NA,NA,NA,images/stimuli/complex_08_A_a.gif,images/stimuli/complex_04_A_a.gif
NA,survey-likert,143,249605,0.0-43.0,SS1627326478117,NA,3390.595000004396,similarity_question,NA,NA,NA,NA,NA,NA,NA,NA,"{""Q0"":4}",[0],NA,NA,NA,NA,NA,NA,images/stimuli/complex_16_A_b.gif,images/stimuli/complex_13_A_b.gif
NA,instructions,144,252838,0.0-44.0,SS1627326478117,"[{""page_index"":0,""viewing_time"":3221.160000015516}]",3221.6800000169314,instructions,NA,NA,NA,NA,NA,NA,NA,NA,NA,NA,NA,NA,NA,NA,NA,NA,NA,NA
NA,survey-likert,145,257187,0.0-45.0,SS1627326478117,NA,4342.930000042543,NA,NA,NA,NA,NA,NA,NA,NA,NA,"{""Q0"":2}",[0],NA,NA,images/stimuli/complex_03_A_a.gif,NA,NA,NA,NA,NA
NA,survey-likert,146,259573,0.0-46.0,SS1627326478117,NA,2372.6999999489635,NA,NA,NA,NA,NA,NA,NA,NA,NA,"{""Q0"":3}",[0],NA,NA,images/stimuli/complex_01_A_b.gif,NA,NA,NA,NA,NA
NA,survey-likert,147,262267,0.0-47.0,SS1627326478117,NA,2681.0049999621697,NA,NA,NA,NA,NA,NA,NA,NA,NA,"{""Q0"":4}",[0],NA,NA,images/stimuli/complex_10_A_b.gif,NA,NA,NA,NA,NA
NA,survey-likert,148,265947,0.0-48.0,SS1627326478117,NA,3666.289999964647,NA,NA,NA,NA,NA,NA,NA,NA,NA,"{""Q0"":6}",[0],NA,NA,images/stimuli/complex_12_A_a.gif,NA,NA,NA,NA,NA
NA,survey-likert,149,268421,0.0-49.0,SS1627326478117,NA,2461.4500000025146,NA,NA,NA,NA,NA,NA,NA,NA,NA,"{""Q0"":4}",[0],NA,NA,images/stimuli/complex_06_A_b.gif,NA,NA,NA,NA,NA
NA,survey-likert,150,271812,0.0-50.0,SS1627326478117,NA,3377.740000025369,NA,NA,NA,NA,NA,NA,NA,NA,NA,"{""Q0"":5}",[0],NA,NA,images/stimuli/complex_16_A_b.gif,NA,NA,NA,NA,NA
NA,survey-likert,151,275054,0.0-51.0,SS1627326478117,NA,3228.579999995418,NA,NA,NA,NA,NA,NA,NA,NA,NA,"{""Q0"":2}",[0],NA,NA,images/stimuli/complex_04_A_a.gif,NA,NA,NA,NA,NA
NA,survey-likert,152,277194,0.0-52.0,SS1627326478117,NA,2126.9999999785796,NA,NA,NA,NA,NA,NA,NA,NA,NA,"{""Q0"":4}",[0],NA,NA,images/stimuli/complex_24_A_a.gif,NA,NA,NA,NA,NA
TRUE,fullscreen,153,278222,0.0-53.0,SS1627326478117,NA,NA,NA,NA,NA,NA,NA,NA,NA,NA,NA,NA,NA,NA,NA,NA,NA,NA,NA,NA,NA
NA,instructions,154,279601,0.0-54.0,SS1627326478117,"[{""page_index"":0,""viewing_time"":1373.3299999730662}]",1373.90999996569,instructions,NA,NA,NA,NA,NA,NA,NA,NA,NA,NA,NA,NA,NA,NA,NA,NA,NA,NA
NA,demog-age,155,282408,0.0-55.0,SS1627326478117,NA,2792.2900000121444,NA,NA,NA,NA,NA,NA,NA,NA,NA,"{""age"":""18""}",NA,NA,NA,NA,NA,NA,NA,NA,NA
NA,demog-ethnic-US,156,285018,0.0-56.0,SS1627326478117,NA,2597.9350000270642,NA,NA,NA,NA,NA,NA,NA,NA,NA,"{""ethnicity"":[""Asian""]}",[0],NA,NA,NA,NA,NA,NA,NA,NA
NA,demog-gender-and-education,157,294591,0.0-57.0,SS1627326478117,NA,9558.714999991935,NA,NA,NA,NA,NA,NA,NA,NA,NA,"{""gender"":""Female"",""education"":""High school diploma""}","[0,1]",NA,NA,NA,NA,NA,NA,NA,NA
NA,survey-text,158,305649,0.0-58.0,SS1627326478117,NA,11041.359999973793,feedback,NA,NA,NA,NA,NA,NA,NA,NA,"{""Q0"":""No, it was all good!""}",NA,NA,NA,NA,NA,NA,NA,NA,NA
NA,instructions,159,307283,0.0-59.0,SS1627326478117,"[{""page_index"":0,""viewing_time"":1626.5600000042468}]",1627.0200000144541,instructions,NA,NA,NA,NA,NA,NA,NA,NA,NA,NA,NA,NA,NA,NA,NA,NA,NA,NA
TRUE,fullscreen,0,4568,0.0-0.0,SS1627326507755,NA,NA,NA,NA,NA,NA,NA,NA,NA,NA,NA,NA,NA,NA,NA,NA,NA,NA,NA,NA,NA
NA,instructions,1,33013,0.0-1.0,SS1627326507755,"[{""page_index"":0,""viewing_time"":28443.300000190735}]",28444.099999904633,NA,NA,NA,NA,NA,NA,NA,NA,NA,NA,NA,NA,NA,NA,NA,NA,NA,NA,NA
NA,instructions,2,65855,0.0-2.0,SS1627326507755,"[{""page_index"":0,""viewing_time"":21688.900000095367},{""page_index"":1,""viewing_time"":9149.800000190735}]",30838.900000095367,instructions,NA,NA,NA,NA,NA,NA,NA,NA,NA,NA,NA,NA,NA,NA,NA,NA,NA,NA
NA,stimuli-presentation,3,94737,0.0-3.0,SS1627326507755,NA,28369.400000095367,NA,NA,40,500,28869.400000095367,null,null,self_paced,0,NA,NA,NA,NA,NA,NA,NA,NA,NA,NA
NA,instructions,4,107634,0.0-4.0,SS1627326507755,"[{""page_index"":0,""viewing_time"":12896.5}]",12896.700000286102,instructions,NA,NA,NA,NA,NA,NA,NA,NA,NA,NA,NA,NA,NA,NA,NA,NA,NA,NA
NA,stimuli-presentation,5,122517,0.0-5.0,SS1627326507755,NA,14377.199999809265,NA,NA,40,500,14877.199999809265,null,null,forced_short,500,NA,NA,NA,NA,NA,NA,NA,NA,NA,NA
NA,stimuli-presentation,6,127747,0.0-6.0,SS1627326507755,NA,4726.800000190735,NA,NA,40,500,5226.800000190735,null,null,forced_short,500,NA,NA,NA,NA,NA,NA,NA,NA,NA,NA
NA,instructions,7,147778,0.0-7.0,SS1627326507755,"[{""page_index"":0,""viewing_time"":20030.5}]",20030.699999809265,instructions,NA,NA,NA,NA,NA,NA,NA,NA,NA,NA,NA,NA,NA,NA,NA,NA,NA,NA
NA,survey-multi-choice,8,152577,0.0-8.0,SS1627326507755,NA,4795.89999961853,memory_test_practice,NA,NA,NA,NA,NA,NA,NA,NA,"{""Q0"":""Yes""}",[0],images/practice/instructions_example_spore2.gif,0,NA,NA,NA,NA,NA,NA
NA,survey-multi-choice,9,162423,0.0-9.0,SS1627326507755,NA,9841.89999961853,memory_test_practice,NA,NA,NA,NA,NA,NA,NA,NA,"{""Q0"":""No""}",[0],images/practice/instructions_example_spore0.gif,0,NA,NA,NA,NA,NA,NA
NA,instructions,10,186462,0.0-10.0,SS1627326507755,"[{""page_index"":0,""viewing_time"":21676.400000095367},{""page_index"":1,""viewing_time"":2357.9000000953674}]",24034.5,instructions,NA,NA,NA,NA,NA,NA,NA,NA,NA,NA,NA,NA,NA,NA,NA,NA,NA,NA
NA,html-keyboard-response,11,187644,0.0-11.0-0.0,SS1627326507755,NA,null,NA,NA,null,NA,NA,NA,NA,NA,NA,NA,NA,NA,NA,"<p><img src= images/blank.png width =""600"" height = ""600"" style=""position:fixed;top:50%; left:50%; transform: translate(-50%, -50%); border:5px solid black"">",NA,NA,NA,NA,NA
NA,stimuli-presentation,12,197556,0.0-11.0-1.0,SS1627326507755,NA,9325.10000038147,trial,NA,40,500,9825.10000038147,images/stimuli/complex_14_A_a.gif,images/stimuli/complex_12_A_a.gif,forced_short,570,NA,NA,NA,NA,NA,0,complex_dissimilar,images/stimuli/complex_12_A_a.gif,NA,NA
NA,html-keyboard-response,13,198520,0.0-11.0-0.1,SS1627326507755,NA,null,NA,NA,null,NA,NA,NA,NA,NA,NA,NA,NA,NA,NA,"<p><img src= images/blank.png width =""600"" height = ""600"" style=""position:fixed;top:50%; left:50%; transform: translate(-50%, -50%); border:5px solid black"">",NA,NA,NA,NA,NA
NA,stimuli-presentation,14,210307,0.0-11.0-1.1,SS1627326507755,NA,11283,trial,NA,40,500,11783,images/stimuli/complex_14_A_a.gif,images/stimuli/complex_12_A_a.gif,forced_short,570,NA,NA,NA,NA,NA,0,complex_dissimilar,images/stimuli/complex_12_A_a.gif,NA,NA
NA,html-keyboard-response,15,211554,0.0-11.0-0.2,SS1627326507755,NA,null,NA,NA,null,NA,NA,NA,NA,NA,NA,NA,NA,NA,NA,"<p><img src= images/blank.png width =""600"" height = ""600"" style=""position:fixed;top:50%; left:50%; transform: translate(-50%, -50%); border:5px solid black"">",NA,NA,NA,NA,NA
NA,stimuli-presentation,16,222027,0.0-11.0-1.2,SS1627326507755,NA,9969.700000286102,trial,NA,40,500,10469.700000286102,images/stimuli/complex_14_A_a.gif,images/stimuli/complex_12_A_a.gif,forced_short,570,NA,NA,NA,NA,NA,0,complex_dissimilar,images/stimuli/complex_12_A_a.gif,NA,NA
NA,html-keyboard-response,17,223315,0.0-11.0-0.3,SS1627326507755,NA,null,NA,NA,null,NA,NA,NA,NA,NA,NA,NA,NA,NA,NA,"<p><img src= images/blank.png width =""600"" height = ""600"" style=""position:fixed;top:50%; left:50%; transform: translate(-50%, -50%); border:5px solid black"">",NA,NA,NA,NA,NA
NA,stimuli-presentation,18,233136,0.0-11.0-1.3,SS1627326507755,NA,9318.599999904633,trial,NA,40,500,9818.599999904633,images/stimuli/complex_14_A_a.gif,images/stimuli/complex_12_A_a.gif,forced_short,570,NA,NA,NA,NA,NA,0,complex_dissimilar,images/stimuli/complex_12_A_a.gif,NA,NA
NA,html-keyboard-response,19,233989,0.0-11.0-0.4,SS1627326507755,NA,null,NA,NA,null,NA,NA,NA,NA,NA,NA,NA,NA,NA,NA,"<p><img src= images/blank.png width =""600"" height = ""600"" style=""position:fixed;top:50%; left:50%; transform: translate(-50%, -50%); border:5px solid black"">",NA,NA,NA,NA,NA
NA,stimuli-presentation,20,238847,0.0-11.0-1.4,SS1627326507755,NA,4338.200000286102,trial,NA,40,500,4838.200000286102,images/stimuli/complex_14_A_a.gif,images/stimuli/complex_12_A_a.gif,forced_short,570,NA,NA,NA,NA,NA,0,complex_dissimilar,images/stimuli/complex_12_A_a.gif,NA,NA
NA,html-keyboard-response,21,239925,0.0-11.0-0.5,SS1627326507755,NA,null,NA,NA,null,NA,NA,NA,NA,NA,NA,NA,NA,NA,NA,"<p><img src= images/blank.png width =""600"" height = ""600"" style=""position:fixed;top:50%; left:50%; transform: translate(-50%, -50%); border:5px solid black"">",NA,NA,NA,NA,NA
NA,stimuli-presentation,22,246041,0.0-11.0-1.5,SS1627326507755,NA,5613.200000286102,trial,NA,40,500,6113.200000286102,images/stimuli/complex_14_A_a.gif,images/stimuli/complex_12_A_a.gif,forced_short,570,NA,NA,NA,NA,NA,0,complex_dissimilar,images/stimuli/complex_12_A_a.gif,NA,NA
NA,html-keyboard-response,23,247241,0.0-11.0-0.6,SS1627326507755,NA,null,NA,NA,null,NA,NA,NA,NA,NA,NA,NA,NA,NA,NA,"<p><img src= images/blank.png width =""600"" height = ""600"" style=""position:fixed;top:50%; left:50%; transform: translate(-50%, -50%); border:5px solid black"">",NA,NA,NA,NA,NA
NA,stimuli-presentation,24,260277,0.0-11.0-1.6,SS1627326507755,NA,12534.700000286102,trial,NA,40,500,13034.700000286102,images/stimuli/complex_14_A_a.gif,images/stimuli/complex_12_A_a.gif,forced_short,570,NA,NA,NA,NA,NA,0,complex_dissimilar,images/stimuli/complex_12_A_a.gif,NA,NA
NA,html-keyboard-response,25,261486,0.0-11.0-0.7,SS1627326507755,NA,null,NA,NA,null,NA,NA,NA,NA,NA,NA,NA,NA,NA,NA,"<p><img src= images/blank.png width =""600"" height = ""600"" style=""position:fixed;top:50%; left:50%; transform: translate(-50%, -50%); border:5px solid black"">",NA,NA,NA,NA,NA
NA,stimuli-presentation,26,267002,0.0-11.0-1.7,SS1627326507755,NA,5013,trial,NA,40,500,5513,images/stimuli/complex_14_A_a.gif,images/stimuli/complex_12_A_a.gif,forced_short,570,NA,NA,NA,NA,NA,0,complex_dissimilar,images/stimuli/complex_12_A_a.gif,NA,NA
NA,survey-multi-choice,27,272365,0.0-12.0,SS1627326507755,NA,5361.099999904633,memory_test,NA,NA,NA,NA,NA,NA,NA,NA,"{""Q0"":""No""}",[0],images/stimuli/complex_21_A_b.gif,0,NA,NA,NA,NA,NA,NA
NA,survey-multi-choice,28,275656,0.0-13.0,SS1627326507755,NA,3287,memory_test,NA,NA,NA,NA,NA,NA,NA,NA,"{""Q0"":""Yes""}",[0],images/stimuli/complex_12_A_a.gif,0,NA,NA,NA,NA,NA,NA
NA,html-keyboard-response,29,276527,0.0-14.0-0.0,SS1627326507755,NA,null,NA,NA,null,NA,NA,NA,NA,NA,NA,NA,NA,NA,NA,"<p><img src= images/blank.png width =""600"" height = ""600"" style=""position:fixed;top:50%; left:50%; transform: translate(-50%, -50%); border:5px solid black"">",NA,NA,NA,NA,NA
NA,stimuli-presentation,30,283054,0.0-14.0-1.0,SS1627326507755,NA,5774.199999809265,trial,NA,40,500,6274.199999809265,images/stimuli/complex_03_A_b.gif,images/stimuli/complex_17_A_b.gif,forced_short,750,NA,NA,NA,NA,NA,1,complex_dissimilar,images/stimuli/complex_17_A_b.gif,NA,NA
NA,html-keyboard-response,31,284343,0.0-14.0-0.1,SS1627326507755,NA,null,NA,NA,null,NA,NA,NA,NA,NA,NA,NA,NA,NA,NA,"<p><img src= images/blank.png width =""600"" height = ""600"" style=""position:fixed;top:50%; left:50%; transform: translate(-50%, -50%); border:5px solid black"">",NA,NA,NA,NA,NA
NA,stimuli-presentation,32,297534,0.0-14.0-1.1,SS1627326507755,NA,12687.700000286102,trial,NA,40,500,13187.700000286102,images/stimuli/complex_03_A_b.gif,images/stimuli/complex_17_A_b.gif,forced_short,750,NA,NA,NA,NA,NA,1,complex_dissimilar,images/stimuli/complex_17_A_b.gif,NA,NA
NA,html-keyboard-response,33,298592,0.0-14.0-0.2,SS1627326507755,NA,null,NA,NA,null,NA,NA,NA,NA,NA,NA,NA,NA,NA,NA,"<p><img src= images/blank.png width =""600"" height = ""600"" style=""position:fixed;top:50%; left:50%; transform: translate(-50%, -50%); border:5px solid black"">",NA,NA,NA,NA,NA
NA,stimuli-presentation,34,306167,0.0-14.0-1.2,SS1627326507755,NA,7066.800000190735,trial,NA,40,500,7566.800000190735,images/stimuli/complex_03_A_b.gif,images/stimuli/complex_17_A_b.gif,forced_short,750,NA,NA,NA,NA,NA,1,complex_dissimilar,images/stimuli/complex_17_A_b.gif,NA,NA
NA,html-keyboard-response,35,307461,0.0-14.0-0.3,SS1627326507755,NA,null,NA,NA,null,NA,NA,NA,NA,NA,NA,NA,NA,NA,NA,"<p><img src= images/blank.png width =""600"" height = ""600"" style=""position:fixed;top:50%; left:50%; transform: translate(-50%, -50%); border:5px solid black"">",NA,NA,NA,NA,NA
NA,stimuli-presentation,36,310737,0.0-14.0-1.3,SS1627326507755,NA,2773.4000000953674,trial,NA,40,500,3273.4000000953674,images/stimuli/complex_03_A_b.gif,images/stimuli/complex_17_A_b.gif,forced_short,750,NA,NA,NA,NA,NA,1,complex_dissimilar,images/stimuli/complex_17_A_b.gif,NA,NA
NA,html-keyboard-response,37,311828,0.0-14.0-0.4,SS1627326507755,NA,null,NA,NA,null,NA,NA,NA,NA,NA,NA,NA,NA,NA,NA,"<p><img src= images/blank.png width =""600"" height = ""600"" style=""position:fixed;top:50%; left:50%; transform: translate(-50%, -50%); border:5px solid black"">",NA,NA,NA,NA,NA
NA,stimuli-presentation,38,318772,0.0-14.0-1.4,SS1627326507755,NA,6441.700000286102,trial,NA,40,500,6941.700000286102,images/stimuli/complex_03_A_b.gif,images/stimuli/complex_17_A_b.gif,forced_short,750,NA,NA,NA,NA,NA,1,complex_dissimilar,images/stimuli/complex_03_A_b.gif,NA,NA
NA,html-keyboard-response,39,319798,0.0-14.0-0.5,SS1627326507755,NA,null,NA,NA,null,NA,NA,NA,NA,NA,NA,NA,NA,NA,NA,"<p><img src= images/blank.png width =""600"" height = ""600"" style=""position:fixed;top:50%; left:50%; transform: translate(-50%, -50%); border:5px solid black"">",NA,NA,NA,NA,NA
NA,stimuli-presentation,40,323421,0.0-14.0-1.5,SS1627326507755,NA,3120.4000000953674,trial,NA,40,500,3620.4000000953674,images/stimuli/complex_03_A_b.gif,images/stimuli/complex_17_A_b.gif,forced_short,750,NA,NA,NA,NA,NA,1,complex_dissimilar,images/stimuli/complex_17_A_b.gif,NA,NA
NA,html-keyboard-response,41,324666,0.0-14.0-0.6,SS1627326507755,NA,null,NA,NA,null,NA,NA,NA,NA,NA,NA,NA,NA,NA,NA,"<p><img src= images/blank.png width =""600"" height = ""600"" style=""position:fixed;top:50%; left:50%; transform: translate(-50%, -50%); border:5px solid black"">",NA,NA,NA,NA,NA
NA,stimuli-presentation,42,327830,0.0-14.0-1.6,SS1627326507755,NA,2662,trial,NA,40,500,3162,images/stimuli/complex_03_A_b.gif,images/stimuli/complex_17_A_b.gif,forced_short,750,NA,NA,NA,NA,NA,1,complex_dissimilar,images/stimuli/complex_17_A_b.gif,NA,NA
NA,html-keyboard-response,43,328974,0.0-14.0-0.7,SS1627326507755,NA,null,NA,NA,null,NA,NA,NA,NA,NA,NA,NA,NA,NA,NA,"<p><img src= images/blank.png width =""600"" height = ""600"" style=""position:fixed;top:50%; left:50%; transform: translate(-50%, -50%); border:5px solid black"">",NA,NA,NA,NA,NA
NA,stimuli-presentation,44,335713,0.0-14.0-1.7,SS1627326507755,NA,6235,trial,NA,40,500,6735,images/stimuli/complex_03_A_b.gif,images/stimuli/complex_17_A_b.gif,forced_short,750,NA,NA,NA,NA,NA,1,complex_dissimilar,images/stimuli/complex_03_A_b.gif,NA,NA
NA,survey-multi-choice,45,339169,0.0-15.0,SS1627326507755,NA,3454.7000002861023,memory_test,NA,NA,NA,NA,NA,NA,NA,NA,"{""Q0"":""Yes""}",[0],images/stimuli/complex_17_A_b.gif,1,NA,NA,NA,NA,NA,NA
NA,survey-multi-choice,46,343496,0.0-16.0,SS1627326507755,NA,4323.10000038147,memory_test,NA,NA,NA,NA,NA,NA,NA,NA,"{""Q0"":""No""}",[0],images/stimuli/complex_08_A_b.gif,1,NA,NA,NA,NA,NA,NA
NA,html-keyboard-response,47,344606,0.0-17.0-0.0,SS1627326507755,NA,null,NA,NA,null,NA,NA,NA,NA,NA,NA,NA,NA,NA,NA,"<p><img src= images/blank.png width =""600"" height = ""600"" style=""position:fixed;top:50%; left:50%; transform: translate(-50%, -50%); border:5px solid black"">",NA,NA,NA,NA,NA
NA,stimuli-presentation,48,349170,0.0-17.0-1.0,SS1627326507755,NA,4372.699999809265,trial,NA,40,500,4872.699999809265,images/stimuli/complex_05_A_a.gif,images/stimuli/complex_24_A_a.gif,forced_short,180,NA,NA,NA,NA,NA,2,complex_dissimilar,images/stimuli/complex_24_A_a.gif,NA,NA
NA,html-keyboard-response,49,350036,0.0-17.0-0.1,SS1627326507755,NA,null,NA,NA,null,NA,NA,NA,NA,NA,NA,NA,NA,NA,NA,"<p><img src= images/blank.png width =""600"" height = ""600"" style=""position:fixed;top:50%; left:50%; transform: translate(-50%, -50%); border:5px solid black"">",NA,NA,NA,NA,NA
NA,stimuli-presentation,50,356325,0.0-17.0-1.1,SS1627326507755,NA,5786.400000095367,trial,NA,40,500,6286.400000095367,images/stimuli/complex_05_A_a.gif,images/stimuli/complex_24_A_a.gif,forced_short,180,NA,NA,NA,NA,NA,2,complex_dissimilar,images/stimuli/complex_24_A_a.gif,NA,NA
NA,html-keyboard-response,51,357404,0.0-17.0-0.2,SS1627326507755,NA,null,NA,NA,null,NA,NA,NA,NA,NA,NA,NA,NA,NA,NA,"<p><img src= images/blank.png width =""600"" height = ""600"" style=""position:fixed;top:50%; left:50%; transform: translate(-50%, -50%); border:5px solid black"">",NA,NA,NA,NA,NA
NA,stimuli-presentation,52,360640,0.0-17.0-1.2,SS1627326507755,NA,2720.6000003814697,trial,NA,40,500,3220.6000003814697,images/stimuli/complex_05_A_a.gif,images/stimuli/complex_24_A_a.gif,forced_short,180,NA,NA,NA,NA,NA,2,complex_dissimilar,images/stimuli/complex_24_A_a.gif,NA,NA
NA,html-keyboard-response,53,361914,0.0-17.0-0.3,SS1627326507755,NA,null,NA,NA,null,NA,NA,NA,NA,NA,NA,NA,NA,NA,NA,"<p><img src= images/blank.png width =""600"" height = ""600"" style=""position:fixed;top:50%; left:50%; transform: translate(-50%, -50%); border:5px solid black"">",NA,NA,NA,NA,NA
NA,stimuli-presentation,54,364543,0.0-17.0-1.3,SS1627326507755,NA,2113.199999809265,trial,NA,40,500,2613.199999809265,images/stimuli/complex_05_A_a.gif,images/stimuli/complex_24_A_a.gif,forced_short,180,NA,NA,NA,NA,NA,2,complex_dissimilar,images/stimuli/complex_24_A_a.gif,NA,NA
NA,html-keyboard-response,55,365529,0.0-17.0-0.4,SS1627326507755,NA,null,NA,NA,null,NA,NA,NA,NA,NA,NA,NA,NA,NA,NA,"<p><img src= images/blank.png width =""600"" height = ""600"" style=""position:fixed;top:50%; left:50%; transform: translate(-50%, -50%); border:5px solid black"">",NA,NA,NA,NA,NA
NA,stimuli-presentation,56,368498,0.0-17.0-1.4,SS1627326507755,NA,2465.800000190735,trial,NA,40,500,2965.800000190735,images/stimuli/complex_05_A_a.gif,images/stimuli/complex_24_A_a.gif,forced_short,180,NA,NA,NA,NA,NA,2,complex_dissimilar,images/stimuli/complex_24_A_a.gif,NA,NA
NA,html-keyboard-response,57,369735,0.0-17.0-0.5,SS1627326507755,NA,null,NA,NA,null,NA,NA,NA,NA,NA,NA,NA,NA,NA,NA,"<p><img src= images/blank.png width =""600"" height = ""600"" style=""position:fixed;top:50%; left:50%; transform: translate(-50%, -50%); border:5px solid black"">",NA,NA,NA,NA,NA
NA,stimuli-presentation,58,379096,0.0-17.0-1.5,SS1627326507755,NA,8858.599999904633,trial,NA,40,500,9358.599999904633,images/stimuli/complex_05_A_a.gif,images/stimuli/complex_24_A_a.gif,forced_short,180,NA,NA,NA,NA,NA,2,complex_dissimilar,images/stimuli/complex_24_A_a.gif,NA,NA
NA,html-keyboard-response,59,380135,0.0-17.0-0.6,SS1627326507755,NA,null,NA,NA,null,NA,NA,NA,NA,NA,NA,NA,NA,NA,NA,"<p><img src= images/blank.png width =""600"" height = ""600"" style=""position:fixed;top:50%; left:50%; transform: translate(-50%, -50%); border:5px solid black"">",NA,NA,NA,NA,NA
NA,stimuli-presentation,60,387043,0.0-17.0-1.6,SS1627326507755,NA,6405.199999809265,trial,NA,40,500,6905.199999809265,images/stimuli/complex_05_A_a.gif,images/stimuli/complex_24_A_a.gif,forced_short,180,NA,NA,NA,NA,NA,2,complex_dissimilar,images/stimuli/complex_05_A_a.gif,NA,NA
NA,html-keyboard-response,61,388141,0.0-17.0-0.7,SS1627326507755,NA,null,NA,NA,null,NA,NA,NA,NA,NA,NA,NA,NA,NA,NA,"<p><img src= images/blank.png width =""600"" height = ""600"" style=""position:fixed;top:50%; left:50%; transform: translate(-50%, -50%); border:5px solid black"">",NA,NA,NA,NA,NA
NA,stimuli-presentation,62,390855,0.0-17.0-1.7,SS1627326507755,NA,2210.3999996185303,trial,NA,40,500,2710.3999996185303,images/stimuli/complex_05_A_a.gif,images/stimuli/complex_24_A_a.gif,forced_short,180,NA,NA,NA,NA,NA,2,complex_dissimilar,images/stimuli/complex_24_A_a.gif,NA,NA
NA,survey-multi-choice,63,395471,0.0-18.0,SS1627326507755,NA,4614.799999713898,memory_test,NA,NA,NA,NA,NA,NA,NA,NA,"{""Q0"":""No""}",[0],images/stimuli/complex_02_A_b.gif,2,NA,NA,NA,NA,NA,NA
NA,survey-multi-choice,64,397867,0.0-19.0,SS1627326507755,NA,2390.7999997138977,memory_test,NA,NA,NA,NA,NA,NA,NA,NA,"{""Q0"":""Yes""}",[0],images/stimuli/complex_24_A_a.gif,2,NA,NA,NA,NA,NA,NA
NA,html-keyboard-response,65,398793,0.0-20.0-0.0,SS1627326507755,NA,null,NA,NA,null,NA,NA,NA,NA,NA,NA,NA,NA,NA,NA,"<p><img src= images/blank.png width =""600"" height = ""600"" style=""position:fixed;top:50%; left:50%; transform: translate(-50%, -50%); border:5px solid black"">",NA,NA,NA,NA,NA
NA,stimuli-presentation,66,401719,0.0-20.0-1.0,SS1627326507755,NA,2823.2999997138977,trial,NA,40,500,3323.2999997138977,images/stimuli/complex_04_A_a.gif,images/stimuli/complex_07_A_b.gif,forced_short,100,NA,NA,NA,NA,NA,3,complex_dissimilar,images/stimuli/complex_07_A_b.gif,NA,NA
NA,html-keyboard-response,67,402894,0.0-20.0-0.1,SS1627326507755,NA,null,NA,NA,null,NA,NA,NA,NA,NA,NA,NA,NA,NA,NA,"<p><img src= images/blank.png width =""600"" height = ""600"" style=""position:fixed;top:50%; left:50%; transform: translate(-50%, -50%); border:5px solid black"">",NA,NA,NA,NA,NA
NA,stimuli-presentation,68,407681,0.0-20.0-1.1,SS1627326507755,NA,4284.700000286102,trial,NA,40,500,4784.700000286102,images/stimuli/complex_04_A_a.gif,images/stimuli/complex_07_A_b.gif,forced_short,100,NA,NA,NA,NA,NA,3,complex_dissimilar,images/stimuli/complex_07_A_b.gif,NA,NA
NA,html-keyboard-response,69,408692,0.0-20.0-0.2,SS1627326507755,NA,null,NA,NA,null,NA,NA,NA,NA,NA,NA,NA,NA,NA,NA,"<p><img src= images/blank.png width =""600"" height = ""600"" style=""position:fixed;top:50%; left:50%; transform: translate(-50%, -50%); border:5px solid black"">",NA,NA,NA,NA,NA
NA,stimuli-presentation,70,413516,0.0-20.0-1.2,SS1627326507755,NA,4321.5,trial,NA,40,500,4821.5,images/stimuli/complex_04_A_a.gif,images/stimuli/complex_07_A_b.gif,forced_short,100,NA,NA,NA,NA,NA,3,complex_dissimilar,images/stimuli/complex_04_A_a.gif,NA,NA
NA,html-keyboard-response,71,414702,0.0-20.0-0.3,SS1627326507755,NA,null,NA,NA,null,NA,NA,NA,NA,NA,NA,NA,NA,NA,NA,"<p><img src= images/blank.png width =""600"" height = ""600"" style=""position:fixed;top:50%; left:50%; transform: translate(-50%, -50%); border:5px solid black"">",NA,NA,NA,NA,NA
NA,stimuli-presentation,72,424090,0.0-20.0-1.3,SS1627326507755,NA,8880.800000190735,trial,NA,40,500,9380.800000190735,images/stimuli/complex_04_A_a.gif,images/stimuli/complex_07_A_b.gif,forced_short,100,NA,NA,NA,NA,NA,3,complex_dissimilar,images/stimuli/complex_07_A_b.gif,NA,NA
NA,html-keyboard-response,73,425247,0.0-20.0-0.4,SS1627326507755,NA,null,NA,NA,null,NA,NA,NA,NA,NA,NA,NA,NA,NA,NA,"<p><img src= images/blank.png width =""600"" height = ""600"" style=""position:fixed;top:50%; left:50%; transform: translate(-50%, -50%); border:5px solid black"">",NA,NA,NA,NA,NA
NA,stimuli-presentation,74,427477,0.0-20.0-1.4,SS1627326507755,NA,1726.4000000953674,trial,NA,40,500,2226.4000000953674,images/stimuli/complex_04_A_a.gif,images/stimuli/complex_07_A_b.gif,forced_short,100,NA,NA,NA,NA,NA,3,complex_dissimilar,images/stimuli/complex_07_A_b.gif,NA,NA
NA,html-keyboard-response,75,428313,0.0-20.0-0.5,SS1627326507755,NA,null,NA,NA,null,NA,NA,NA,NA,NA,NA,NA,NA,NA,NA,"<p><img src= images/blank.png width =""600"" height = ""600"" style=""position:fixed;top:50%; left:50%; transform: translate(-50%, -50%); border:5px solid black"">",NA,NA,NA,NA,NA
NA,stimuli-presentation,76,431655,0.0-20.0-1.5,SS1627326507755,NA,2825.0999999046326,trial,NA,40,500,3325.0999999046326,images/stimuli/complex_04_A_a.gif,images/stimuli/complex_07_A_b.gif,forced_short,100,NA,NA,NA,NA,NA,3,complex_dissimilar,images/stimuli/complex_07_A_b.gif,NA,NA
NA,html-keyboard-response,77,432595,0.0-20.0-0.6,SS1627326507755,NA,null,NA,NA,null,NA,NA,NA,NA,NA,NA,NA,NA,NA,NA,"<p><img src= images/blank.png width =""600"" height = ""600"" style=""position:fixed;top:50%; left:50%; transform: translate(-50%, -50%); border:5px solid black"">",NA,NA,NA,NA,NA
NA,stimuli-presentation,78,434658,0.0-20.0-1.6,SS1627326507755,NA,1559.5999999046326,trial,NA,40,500,2059.5999999046326,images/stimuli/complex_04_A_a.gif,images/stimuli/complex_07_A_b.gif,forced_short,100,NA,NA,NA,NA,NA,3,complex_dissimilar,images/stimuli/complex_07_A_b.gif,NA,NA
NA,survey-multi-choice,79,438752,0.0-21.0,SS1627326507755,NA,4092.1000003814697,memory_test,NA,NA,NA,NA,NA,NA,NA,NA,"{""Q0"":""Yes""}",[0],images/stimuli/complex_04_A_a.gif,3,NA,NA,NA,NA,NA,NA
NA,survey-multi-choice,80,442114,0.0-22.0,SS1627326507755,NA,3357.0999999046326,memory_test,NA,NA,NA,NA,NA,NA,NA,NA,"{""Q0"":""No""}",[0],images/stimuli/complex_11_A_b.gif,3,NA,NA,NA,NA,NA,NA
NA,html-keyboard-response,81,443150,0.0-23.0-0.0,SS1627326507755,NA,null,NA,NA,null,NA,NA,NA,NA,NA,NA,NA,NA,NA,NA,"<p><img src= images/blank.png width =""600"" height = ""600"" style=""position:fixed;top:50%; left:50%; transform: translate(-50%, -50%); border:5px solid black"">",NA,NA,NA,NA,NA
NA,stimuli-presentation,82,448552,0.0-23.0-1.0,SS1627326507755,NA,4929.900000095367,trial,NA,40,500,5429.900000095367,images/stimuli/complex_18_A_a.gif,images/stimuli/complex_19_A_b.gif,forced_short,460,NA,NA,NA,NA,NA,4,complex_dissimilar,images/stimuli/complex_19_A_b.gif,NA,NA
NA,html-keyboard-response,83,449801,0.0-23.0-0.1,SS1627326507755,NA,null,NA,NA,null,NA,NA,NA,NA,NA,NA,NA,NA,NA,NA,"<p><img src= images/blank.png width =""600"" height = ""600"" style=""position:fixed;top:50%; left:50%; transform: translate(-50%, -50%); border:5px solid black"">",NA,NA,NA,NA,NA
NA,stimuli-presentation,84,453126,0.0-23.0-1.1,SS1627326507755,NA,2807.300000190735,trial,NA,40,500,3307.300000190735,images/stimuli/complex_18_A_a.gif,images/stimuli/complex_19_A_b.gif,forced_short,460,NA,NA,NA,NA,NA,4,complex_dissimilar,images/stimuli/complex_19_A_b.gif,NA,NA
NA,html-keyboard-response,85,454122,0.0-23.0-0.2,SS1627326507755,NA,null,NA,NA,null,NA,NA,NA,NA,NA,NA,NA,NA,NA,NA,"<p><img src= images/blank.png width =""600"" height = ""600"" style=""position:fixed;top:50%; left:50%; transform: translate(-50%, -50%); border:5px solid black"">",NA,NA,NA,NA,NA
NA,stimuli-presentation,86,457486,0.0-23.0-1.2,SS1627326507755,NA,2862.300000190735,trial,NA,40,500,3362.300000190735,images/stimuli/complex_18_A_a.gif,images/stimuli/complex_19_A_b.gif,forced_short,460,NA,NA,NA,NA,NA,4,complex_dissimilar,images/stimuli/complex_18_A_a.gif,NA,NA
NA,html-keyboard-response,87,458719,0.0-23.0-0.3,SS1627326507755,NA,null,NA,NA,null,NA,NA,NA,NA,NA,NA,NA,NA,NA,NA,"<p><img src= images/blank.png width =""600"" height = ""600"" style=""position:fixed;top:50%; left:50%; transform: translate(-50%, -50%); border:5px solid black"">",NA,NA,NA,NA,NA
NA,stimuli-presentation,88,461552,0.0-23.0-1.3,SS1627326507755,NA,2329.7000002861023,trial,NA,40,500,2829.7000002861023,images/stimuli/complex_18_A_a.gif,images/stimuli/complex_19_A_b.gif,forced_short,460,NA,NA,NA,NA,NA,4,complex_dissimilar,images/stimuli/complex_19_A_b.gif,NA,NA
NA,html-keyboard-response,89,462577,0.0-23.0-0.4,SS1627326507755,NA,null,NA,NA,null,NA,NA,NA,NA,NA,NA,NA,NA,NA,NA,"<p><img src= images/blank.png width =""600"" height = ""600"" style=""position:fixed;top:50%; left:50%; transform: translate(-50%, -50%); border:5px solid black"">",NA,NA,NA,NA,NA
NA,stimuli-presentation,90,466191,0.0-23.0-1.4,SS1627326507755,NA,3110.5999999046326,trial,NA,40,500,3610.5999999046326,images/stimuli/complex_18_A_a.gif,images/stimuli/complex_19_A_b.gif,forced_short,460,NA,NA,NA,NA,NA,4,complex_dissimilar,images/stimuli/complex_18_A_a.gif,NA,NA
NA,html-keyboard-response,91,467414,0.0-23.0-0.5,SS1627326507755,NA,null,NA,NA,null,NA,NA,NA,NA,NA,NA,NA,NA,NA,NA,"<p><img src= images/blank.png width =""600"" height = ""600"" style=""position:fixed;top:50%; left:50%; transform: translate(-50%, -50%); border:5px solid black"">",NA,NA,NA,NA,NA
NA,stimuli-presentation,92,469439,0.0-23.0-1.5,SS1627326507755,NA,1521.3999996185303,trial,NA,40,500,2021.3999996185303,images/stimuli/complex_18_A_a.gif,images/stimuli/complex_19_A_b.gif,forced_short,460,NA,NA,NA,NA,NA,4,complex_dissimilar,images/stimuli/complex_19_A_b.gif,NA,NA
NA,html-keyboard-response,93,470711,0.0-23.0-0.6,SS1627326507755,NA,null,NA,NA,null,NA,NA,NA,NA,NA,NA,NA,NA,NA,NA,"<p><img src= images/blank.png width =""600"" height = ""600"" style=""position:fixed;top:50%; left:50%; transform: translate(-50%, -50%); border:5px solid black"">",NA,NA,NA,NA,NA
NA,stimuli-presentation,94,472145,0.0-23.0-1.6,SS1627326507755,NA,930.1999998092651,trial,NA,40,500,1430.1999998092651,images/stimuli/complex_18_A_a.gif,images/stimuli/complex_19_A_b.gif,forced_short,460,NA,NA,NA,NA,NA,4,complex_dissimilar,images/stimuli/complex_19_A_b.gif,NA,NA
NA,survey-multi-choice,95,475582,0.0-24.0,SS1627326507755,NA,3434.2999997138977,memory_test,NA,NA,NA,NA,NA,NA,NA,NA,"{""Q0"":""Yes""}",[0],images/stimuli/complex_19_A_b.gif,4,NA,NA,NA,NA,NA,NA
NA,survey-multi-choice,96,481908,0.0-25.0,SS1627326507755,NA,6320.400000095367,memory_test,NA,NA,NA,NA,NA,NA,NA,NA,"{""Q0"":""No""}",[0],images/stimuli/complex_06_A_b.gif,4,NA,NA,NA,NA,NA,NA
NA,html-keyboard-response,97,483204,0.0-26.0-0.0,SS1627326507755,NA,null,NA,NA,null,NA,NA,NA,NA,NA,NA,NA,NA,NA,NA,"<p><img src= images/blank.png width =""600"" height = ""600"" style=""position:fixed;top:50%; left:50%; transform: translate(-50%, -50%); border:5px solid black"">",NA,NA,NA,NA,NA
NA,stimuli-presentation,98,486102,0.0-26.0-1.0,SS1627326507755,NA,2314.5999999046326,trial,NA,40,500,2814.5999999046326,images/stimuli/complex_01_A_b.gif,images/stimuli/complex_22_A_b.gif,forced_short,580,NA,NA,NA,NA,NA,5,complex_dissimilar,images/stimuli/complex_22_A_b.gif,NA,NA
NA,html-keyboard-response,99,487254,0.0-26.0-0.1,SS1627326507755,NA,null,NA,NA,null,NA,NA,NA,NA,NA,NA,NA,NA,NA,NA,"<p><img src= images/blank.png width =""600"" height = ""600"" style=""position:fixed;top:50%; left:50%; transform: translate(-50%, -50%); border:5px solid black"">",NA,NA,NA,NA,NA
NA,stimuli-presentation,100,490850,0.0-26.0-1.1,SS1627326507755,NA,3093,trial,NA,40,500,3593,images/stimuli/complex_01_A_b.gif,images/stimuli/complex_22_A_b.gif,forced_short,580,NA,NA,NA,NA,NA,5,complex_dissimilar,images/stimuli/complex_01_A_b.gif,NA,NA
NA,html-keyboard-response,101,491843,0.0-26.0-0.2,SS1627326507755,NA,null,NA,NA,null,NA,NA,NA,NA,NA,NA,NA,NA,NA,NA,"<p><img src= images/blank.png width =""600"" height = ""600"" style=""position:fixed;top:50%; left:50%; transform: translate(-50%, -50%); border:5px solid black"">",NA,NA,NA,NA,NA
NA,stimuli-presentation,102,496075,0.0-26.0-1.2,SS1627326507755,NA,3729.4000000953674,trial,NA,40,500,4229.400000095367,images/stimuli/complex_01_A_b.gif,images/stimuli/complex_22_A_b.gif,forced_short,580,NA,NA,NA,NA,NA,5,complex_dissimilar,images/stimuli/complex_22_A_b.gif,NA,NA
NA,html-keyboard-response,103,497222,0.0-26.0-0.3,SS1627326507755,NA,null,NA,NA,null,NA,NA,NA,NA,NA,NA,NA,NA,NA,NA,"<p><img src= images/blank.png width =""600"" height = ""600"" style=""position:fixed;top:50%; left:50%; transform: translate(-50%, -50%); border:5px solid black"">",NA,NA,NA,NA,NA
NA,stimuli-presentation,104,498093,0.0-26.0-1.3,SS1627326507755,NA,368.5,trial,NA,40,500,868.5,images/stimuli/complex_01_A_b.gif,images/stimuli/complex_22_A_b.gif,forced_short,580,NA,NA,NA,NA,NA,5,complex_dissimilar,images/stimuli/complex_22_A_b.gif,NA,NA
NA,html-keyboard-response,105,498992,0.0-26.0-0.4,SS1627326507755,NA,null,NA,NA,null,NA,NA,NA,NA,NA,NA,NA,NA,NA,NA,"<p><img src= images/blank.png width =""600"" height = ""600"" style=""position:fixed;top:50%; left:50%; transform: translate(-50%, -50%); border:5px solid black"">",NA,NA,NA,NA,NA
NA,stimuli-presentation,106,501091,0.0-26.0-1.4,SS1627326507755,NA,1596.9000000953674,trial,NA,40,500,2096.9000000953674,images/stimuli/complex_01_A_b.gif,images/stimuli/complex_22_A_b.gif,forced_short,580,NA,NA,NA,NA,NA,5,complex_dissimilar,images/stimuli/complex_22_A_b.gif,NA,NA
NA,html-keyboard-response,107,502235,0.0-26.0-0.5,SS1627326507755,NA,null,NA,NA,null,NA,NA,NA,NA,NA,NA,NA,NA,NA,NA,"<p><img src= images/blank.png width =""600"" height = ""600"" style=""position:fixed;top:50%; left:50%; transform: translate(-50%, -50%); border:5px solid black"">",NA,NA,NA,NA,NA
NA,stimuli-presentation,108,503384,0.0-26.0-1.5,SS1627326507755,NA,644.5999999046326,trial,NA,40,500,1144.5999999046326,images/stimuli/complex_01_A_b.gif,images/stimuli/complex_22_A_b.gif,forced_short,580,NA,NA,NA,NA,NA,5,complex_dissimilar,images/stimuli/complex_22_A_b.gif,NA,NA
NA,survey-multi-choice,109,506473,0.0-27.0,SS1627326507755,NA,3087.1000003814697,memory_test,NA,NA,NA,NA,NA,NA,NA,NA,"{""Q0"":""Yes""}",[0],images/stimuli/complex_22_A_b.gif,5,NA,NA,NA,NA,NA,NA
NA,survey-multi-choice,110,509352,0.0-28.0,SS1627326507755,NA,2873.300000190735,memory_test,NA,NA,NA,NA,NA,NA,NA,NA,"{""Q0"":""No""}",[0],images/stimuli/complex_13_A_a.gif,5,NA,NA,NA,NA,NA,NA
NA,html-keyboard-response,111,510608,0.0-29.0-0.0,SS1627326507755,NA,null,NA,NA,null,NA,NA,NA,NA,NA,NA,NA,NA,NA,NA,"<p><img src= images/blank.png width =""600"" height = ""600"" style=""position:fixed;top:50%; left:50%; transform: translate(-50%, -50%); border:5px solid black"">",NA,NA,NA,NA,NA
NA,stimuli-presentation,112,515535,0.0-29.0-1.0,SS1627326507755,NA,4093.6000003814697,trial,NA,40,500,4593.60000038147,images/stimuli/complex_09_A_b.gif,images/stimuli/complex_15_A_a.gif,forced_short,820,NA,NA,NA,NA,NA,6,complex_dissimilar,images/stimuli/complex_15_A_a.gif,NA,NA
NA,html-keyboard-response,113,516593,0.0-29.0-0.1,SS1627326507755,NA,null,NA,NA,null,NA,NA,NA,NA,NA,NA,NA,NA,NA,NA,"<p><img src= images/blank.png width =""600"" height = ""600"" style=""position:fixed;top:50%; left:50%; transform: translate(-50%, -50%); border:5px solid black"">",NA,NA,NA,NA,NA
NA,stimuli-presentation,114,522537,0.0-29.0-1.1,SS1627326507755,NA,5440.099999904633,trial,NA,40,500,5940.099999904633,images/stimuli/complex_09_A_b.gif,images/stimuli/complex_15_A_a.gif,forced_short,820,NA,NA,NA,NA,NA,6,complex_dissimilar,images/stimuli/complex_15_A_a.gif,NA,NA
NA,html-keyboard-response,115,523530,0.0-29.0-0.2,SS1627326507755,NA,null,NA,NA,null,NA,NA,NA,NA,NA,NA,NA,NA,NA,NA,"<p><img src= images/blank.png width =""600"" height = ""600"" style=""position:fixed;top:50%; left:50%; transform: translate(-50%, -50%); border:5px solid black"">",NA,NA,NA,NA,NA
NA,stimuli-presentation,116,529238,0.0-29.0-1.2,SS1627326507755,NA,5204.200000286102,trial,NA,40,500,5704.200000286102,images/stimuli/complex_09_A_b.gif,images/stimuli/complex_15_A_a.gif,forced_short,820,NA,NA,NA,NA,NA,6,complex_dissimilar,images/stimuli/complex_09_A_b.gif,NA,NA
NA,html-keyboard-response,117,530442,0.0-29.0-0.3,SS1627326507755,NA,null,NA,NA,null,NA,NA,NA,NA,NA,NA,NA,NA,NA,NA,"<p><img src= images/blank.png width =""600"" height = ""600"" style=""position:fixed;top:50%; left:50%; transform: translate(-50%, -50%); border:5px solid black"">",NA,NA,NA,NA,NA
NA,stimuli-presentation,118,533643,0.0-29.0-1.3,SS1627326507755,NA,2686.1000003814697,trial,NA,40,500,3186.1000003814697,images/stimuli/complex_09_A_b.gif,images/stimuli/complex_15_A_a.gif,forced_short,820,NA,NA,NA,NA,NA,6,complex_dissimilar,images/stimuli/complex_15_A_a.gif,NA,NA
NA,html-keyboard-response,119,534643,0.0-29.0-0.4,SS1627326507755,NA,null,NA,NA,null,NA,NA,NA,NA,NA,NA,NA,NA,NA,NA,"<p><img src= images/blank.png width =""600"" height = ""600"" style=""position:fixed;top:50%; left:50%; transform: translate(-50%, -50%); border:5px solid black"">",NA,NA,NA,NA,NA
NA,stimuli-presentation,120,538255,0.0-29.0-1.4,SS1627326507755,NA,3108.9000000953674,trial,NA,40,500,3608.9000000953674,images/stimuli/complex_09_A_b.gif,images/stimuli/complex_15_A_a.gif,forced_short,820,NA,NA,NA,NA,NA,6,complex_dissimilar,images/stimuli/complex_15_A_a.gif,NA,NA
NA,html-keyboard-response,121,539208,0.0-29.0-0.5,SS1627326507755,NA,null,NA,NA,null,NA,NA,NA,NA,NA,NA,NA,NA,NA,NA,"<p><img src= images/blank.png width =""600"" height = ""600"" style=""position:fixed;top:50%; left:50%; transform: translate(-50%, -50%); border:5px solid black"">",NA,NA,NA,NA,NA
NA,stimuli-presentation,122,543149,0.0-29.0-1.5,SS1627326507755,NA,3437.8999996185303,trial,NA,40,500,3937.8999996185303,images/stimuli/complex_09_A_b.gif,images/stimuli/complex_15_A_a.gif,forced_short,820,NA,NA,NA,NA,NA,6,complex_dissimilar,images/stimuli/complex_09_A_b.gif,NA,NA
NA,html-keyboard-response,123,544216,0.0-29.0-0.6,SS1627326507755,NA,null,NA,NA,null,NA,NA,NA,NA,NA,NA,NA,NA,NA,NA,"<p><img src= images/blank.png width =""600"" height = ""600"" style=""position:fixed;top:50%; left:50%; transform: translate(-50%, -50%); border:5px solid black"">",NA,NA,NA,NA,NA
NA,stimuli-presentation,124,547844,0.0-29.0-1.6,SS1627326507755,NA,3123.8999996185303,trial,NA,40,500,3623.8999996185303,images/stimuli/complex_09_A_b.gif,images/stimuli/complex_15_A_a.gif,forced_short,820,NA,NA,NA,NA,NA,6,complex_dissimilar,images/stimuli/complex_15_A_a.gif,NA,NA
NA,html-keyboard-response,125,548829,0.0-29.0-0.7,SS1627326507755,NA,null,NA,NA,null,NA,NA,NA,NA,NA,NA,NA,NA,NA,NA,"<p><img src= images/blank.png width =""600"" height = ""600"" style=""position:fixed;top:50%; left:50%; transform: translate(-50%, -50%); border:5px solid black"">",NA,NA,NA,NA,NA
NA,stimuli-presentation,126,551222,0.0-29.0-1.7,SS1627326507755,NA,1889.7999997138977,trial,NA,40,500,2389.7999997138977,images/stimuli/complex_09_A_b.gif,images/stimuli/complex_15_A_a.gif,forced_short,820,NA,NA,NA,NA,NA,6,complex_dissimilar,images/stimuli/complex_15_A_a.gif,NA,NA
NA,survey-multi-choice,127,555583,0.0-30.0,SS1627326507755,NA,4358,memory_test,NA,NA,NA,NA,NA,NA,NA,NA,"{""Q0"":""No""}",[0],images/stimuli/complex_20_A_a.gif,6,NA,NA,NA,NA,NA,NA
NA,survey-multi-choice,128,558158,0.0-31.0,SS1627326507755,NA,2569.5999999046326,memory_test,NA,NA,NA,NA,NA,NA,NA,NA,"{""Q0"":""Yes""}",[0],images/stimuli/complex_15_A_a.gif,6,NA,NA,NA,NA,NA,NA
NA,html-keyboard-response,129,559280,0.0-32.0-0.0,SS1627326507755,NA,null,NA,NA,null,NA,NA,NA,NA,NA,NA,NA,NA,NA,NA,"<p><img src= images/blank.png width =""600"" height = ""600"" style=""position:fixed;top:50%; left:50%; transform: translate(-50%, -50%); border:5px solid black"">",NA,NA,NA,NA,NA
NA,stimuli-presentation,130,564514,0.0-32.0-1.0,SS1627326507755,NA,4550,trial,NA,40,500,5050,images/stimuli/complex_23_A_a.gif,images/stimuli/complex_10_A_b.gif,forced_short,680,NA,NA,NA,NA,NA,7,complex_dissimilar,images/stimuli/complex_10_A_b.gif,NA,NA
NA,html-keyboard-response,131,565722,0.0-32.0-0.1,SS1627326507755,NA,null,NA,NA,null,NA,NA,NA,NA,NA,NA,NA,NA,NA,NA,"<p><img src= images/blank.png width =""600"" height = ""600"" style=""position:fixed;top:50%; left:50%; transform: translate(-50%, -50%); border:5px solid black"">",NA,NA,NA,NA,NA
NA,stimuli-presentation,132,569638,0.0-32.0-1.1,SS1627326507755,NA,3412.699999809265,trial,NA,40,500,3912.699999809265,images/stimuli/complex_23_A_a.gif,images/stimuli/complex_10_A_b.gif,forced_short,680,NA,NA,NA,NA,NA,7,complex_dissimilar,images/stimuli/complex_10_A_b.gif,NA,NA
NA,html-keyboard-response,133,570778,0.0-32.0-0.2,SS1627326507755,NA,null,NA,NA,null,NA,NA,NA,NA,NA,NA,NA,NA,NA,NA,"<p><img src= images/blank.png width =""600"" height = ""600"" style=""position:fixed;top:50%; left:50%; transform: translate(-50%, -50%); border:5px solid black"">",NA,NA,NA,NA,NA
NA,stimuli-presentation,134,571441,0.0-32.0-1.2,SS1627326507755,NA,158.5,trial,NA,40,500,658.5,images/stimuli/complex_23_A_a.gif,images/stimuli/complex_10_A_b.gif,forced_short,680,NA,NA,NA,NA,NA,7,complex_dissimilar,images/stimuli/complex_10_A_b.gif,NA,NA
NA,html-keyboard-response,135,572307,0.0-32.0-0.3,SS1627326507755,NA,null,NA,NA,null,NA,NA,NA,NA,NA,NA,NA,NA,NA,NA,"<p><img src= images/blank.png width =""600"" height = ""600"" style=""position:fixed;top:50%; left:50%; transform: translate(-50%, -50%); border:5px solid black"">",NA,NA,NA,NA,NA
NA,stimuli-presentation,136,574055,0.0-32.0-1.3,SS1627326507755,NA,1245.1999998092651,trial,NA,40,500,1745.1999998092651,images/stimuli/complex_23_A_a.gif,images/stimuli/complex_10_A_b.gif,forced_short,680,NA,NA,NA,NA,NA,7,complex_dissimilar,images/stimuli/complex_10_A_b.gif,NA,NA
NA,html-keyboard-response,137,575334,0.0-32.0-0.4,SS1627326507755,NA,null,NA,NA,null,NA,NA,NA,NA,NA,NA,NA,NA,NA,NA,"<p><img src= images/blank.png width =""600"" height = ""600"" style=""position:fixed;top:50%; left:50%; transform: translate(-50%, -50%); border:5px solid black"">",NA,NA,NA,NA,NA
NA,stimuli-presentation,138,579107,0.0-32.0-1.4,SS1627326507755,NA,3269.5,trial,NA,40,500,3769.5,images/stimuli/complex_23_A_a.gif,images/stimuli/complex_10_A_b.gif,forced_short,680,NA,NA,NA,NA,NA,7,complex_dissimilar,images/stimuli/complex_10_A_b.gif,NA,NA
NA,html-keyboard-response,139,580217,0.0-32.0-0.5,SS1627326507755,NA,null,NA,NA,null,NA,NA,NA,NA,NA,NA,NA,NA,NA,NA,"<p><img src= images/blank.png width =""600"" height = ""600"" style=""position:fixed;top:50%; left:50%; transform: translate(-50%, -50%); border:5px solid black"">",NA,NA,NA,NA,NA
NA,stimuli-presentation,140,584094,0.0-32.0-1.5,SS1627326507755,NA,3374.0999999046326,trial,NA,40,500,3874.0999999046326,images/stimuli/complex_23_A_a.gif,images/stimuli/complex_10_A_b.gif,forced_short,680,NA,NA,NA,NA,NA,7,complex_dissimilar,images/stimuli/complex_10_A_b.gif,NA,NA
NA,html-keyboard-response,141,585259,0.0-32.0-0.6,SS1627326507755,NA,null,NA,NA,null,NA,NA,NA,NA,NA,NA,NA,NA,NA,NA,"<p><img src= images/blank.png width =""600"" height = ""600"" style=""position:fixed;top:50%; left:50%; transform: translate(-50%, -50%); border:5px solid black"">",NA,NA,NA,NA,NA
NA,stimuli-presentation,142,587150,0.0-32.0-1.6,SS1627326507755,NA,1388,trial,NA,40,500,1888,images/stimuli/complex_23_A_a.gif,images/stimuli/complex_10_A_b.gif,forced_short,680,NA,NA,NA,NA,NA,7,complex_dissimilar,images/stimuli/complex_10_A_b.gif,NA,NA
NA,survey-multi-choice,143,591703,0.0-33.0,SS1627326507755,NA,4549.900000095367,memory_test,NA,NA,NA,NA,NA,NA,NA,NA,"{""Q0"":""No""}",[0],images/stimuli/complex_16_A_b.gif,7,NA,NA,NA,NA,NA,NA
NA,survey-multi-choice,144,593945,0.0-34.0,SS1627326507755,NA,2237.2999997138977,memory_test,NA,NA,NA,NA,NA,NA,NA,NA,"{""Q0"":""Yes""}",[0],images/stimuli/complex_10_A_b.gif,7,NA,NA,NA,NA,NA,NA
NA,instructions,145,609164,0.0-35.0,SS1627326507755,"[{""page_index"":0,""viewing_time"":15213.700000286102}]",15214,instructions,NA,NA,NA,NA,NA,NA,NA,NA,NA,NA,NA,NA,NA,NA,NA,NA,NA,NA
NA,survey-likert,146,626158,0.0-36.0,SS1627326507755,NA,16989.400000095367,similarity_question,NA,NA,NA,NA,NA,NA,NA,NA,"{""Q0"":0}",[0],NA,NA,NA,NA,NA,NA,images/stimuli/complex_09_A_b.gif,images/stimuli/complex_15_A_a.gif
NA,survey-likert,147,633101,0.0-37.0,SS1627326507755,NA,6937.199999809265,similarity_question,NA,NA,NA,NA,NA,NA,NA,NA,"{""Q0"":1}",[0],NA,NA,NA,NA,NA,NA,images/stimuli/complex_12_A_a.gif,images/stimuli/complex_14_A_a.gif
NA,survey-likert,148,641952,0.0-38.0,SS1627326507755,NA,8845.699999809265,similarity_question,NA,NA,NA,NA,NA,NA,NA,NA,"{""Q0"":1}",[0],NA,NA,NA,NA,NA,NA,images/stimuli/complex_18_A_a.gif,images/stimuli/complex_19_A_b.gif
NA,survey-likert,149,653048,0.0-39.0,SS1627326507755,NA,11088.900000095367,similarity_question,NA,NA,NA,NA,NA,NA,NA,NA,"{""Q0"":0}",[0],NA,NA,NA,NA,NA,NA,images/stimuli/complex_04_A_a.gif,images/stimuli/complex_07_A_b.gif
NA,survey-likert,150,661331,0.0-40.0,SS1627326507755,NA,8277.799999713898,similarity_question,NA,NA,NA,NA,NA,NA,NA,NA,"{""Q0"":4}",[0],NA,NA,NA,NA,NA,NA,images/stimuli/complex_01_A_b.gif,images/stimuli/complex_22_A_b.gif
NA,survey-likert,151,669128,0.0-41.0,SS1627326507755,NA,7791,similarity_question,NA,NA,NA,NA,NA,NA,NA,NA,"{""Q0"":3}",[0],NA,NA,NA,NA,NA,NA,images/stimuli/complex_03_A_b.gif,images/stimuli/complex_17_A_b.gif
NA,survey-likert,152,676411,0.0-42.0,SS1627326507755,NA,7276.699999809265,similarity_question,NA,NA,NA,NA,NA,NA,NA,NA,"{""Q0"":1}",[0],NA,NA,NA,NA,NA,NA,images/stimuli/complex_24_A_a.gif,images/stimuli/complex_05_A_a.gif
NA,survey-likert,153,683249,0.0-43.0,SS1627326507755,NA,6831.10000038147,similarity_question,NA,NA,NA,NA,NA,NA,NA,NA,"{""Q0"":4}",[0],NA,NA,NA,NA,NA,NA,images/stimuli/complex_23_A_a.gif,images/stimuli/complex_10_A_b.gif
NA,instructions,154,690830,0.0-44.0,SS1627326507755,"[{""page_index"":0,""viewing_time"":7575.900000095367}]",7576.300000190735,instructions,NA,NA,NA,NA,NA,NA,NA,NA,NA,NA,NA,NA,NA,NA,NA,NA,NA,NA
NA,survey-likert,155,702924,0.0-45.0,SS1627326507755,NA,12090.300000190735,NA,NA,NA,NA,NA,NA,NA,NA,NA,"{""Q0"":3}",[0],NA,NA,images/stimuli/complex_09_A_b.gif,NA,NA,NA,NA,NA
NA,survey-likert,156,708159,0.0-46.0,SS1627326507755,NA,5229.199999809265,NA,NA,NA,NA,NA,NA,NA,NA,NA,"{""Q0"":5}",[0],NA,NA,images/stimuli/complex_10_A_b.gif,NA,NA,NA,NA,NA
NA,survey-likert,157,712608,0.0-47.0,SS1627326507755,NA,4443.099999904633,NA,NA,NA,NA,NA,NA,NA,NA,NA,"{""Q0"":4}",[0],NA,NA,images/stimuli/complex_19_A_b.gif,NA,NA,NA,NA,NA
NA,survey-likert,158,717851,0.0-48.0,SS1627326507755,NA,5236.799999713898,NA,NA,NA,NA,NA,NA,NA,NA,NA,"{""Q0"":4}",[0],NA,NA,images/stimuli/complex_05_A_a.gif,NA,NA,NA,NA,NA
NA,survey-likert,159,724751,0.0-49.0,SS1627326507755,NA,6894,NA,NA,NA,NA,NA,NA,NA,NA,NA,"{""Q0"":2}",[0],NA,NA,images/stimuli/complex_22_A_b.gif,NA,NA,NA,NA,NA
NA,survey-likert,160,731118,0.0-50.0,SS1627326507755,NA,6360.699999809265,NA,NA,NA,NA,NA,NA,NA,NA,NA,"{""Q0"":1}",[0],NA,NA,images/stimuli/complex_03_A_b.gif,NA,NA,NA,NA,NA
NA,survey-likert,161,737330,0.0-51.0,SS1627326507755,NA,6206.099999904633,NA,NA,NA,NA,NA,NA,NA,NA,NA,"{""Q0"":4}",[0],NA,NA,images/stimuli/complex_14_A_a.gif,NA,NA,NA,NA,NA
NA,survey-likert,162,740687,0.0-52.0,SS1627326507755,NA,3350.4000000953674,NA,NA,NA,NA,NA,NA,NA,NA,NA,"{""Q0"":6}",[0],NA,NA,images/stimuli/complex_07_A_b.gif,NA,NA,NA,NA,NA
TRUE,fullscreen,163,741698,0.0-53.0,SS1627326507755,NA,NA,NA,NA,NA,NA,NA,NA,NA,NA,NA,NA,NA,NA,NA,NA,NA,NA,NA,NA,NA
NA,instructions,164,747203,0.0-54.0,SS1627326507755,"[{""page_index"":0,""viewing_time"":5503.099999904633}]",5503.400000095367,instructions,NA,NA,NA,NA,NA,NA,NA,NA,NA,NA,NA,NA,NA,NA,NA,NA,NA,NA
NA,demog-age,165,750916,0.0-55.0,SS1627326507755,NA,3708,NA,NA,NA,NA,NA,NA,NA,NA,NA,"{""age"":""21""}",NA,NA,NA,NA,NA,NA,NA,NA,NA
NA,demog-ethnic-US,166,765606,0.0-56.0,SS1627326507755,NA,14684.199999809265,NA,NA,NA,NA,NA,NA,NA,NA,NA,"{""ethnicity"":[""Hispanic or Latino""]}",[0],NA,NA,NA,NA,NA,NA,NA,NA
NA,demog-gender-and-education,167,786574,0.0-57.0,SS1627326507755,NA,20961.400000095367,NA,NA,NA,NA,NA,NA,NA,NA,NA,"{""gender"":""Male"",""education"":""Associate Degree/Technical certification""}","[0,1]",NA,NA,NA,NA,NA,NA,NA,NA
NA,survey-text,168,819588,0.0-58.0,SS1627326507755,NA,33006.199999809265,feedback,NA,NA,NA,NA,NA,NA,NA,NA,"{""Q0"":""at beginning laggy""}",NA,NA,NA,NA,NA,NA,NA,NA,NA
NA,instructions,169,826467,0.0-59.0,SS1627326507755,"[{""page_index"":0,""viewing_time"":6876.5}]",6877,instructions,NA,NA,NA,NA,NA,NA,NA,NA,NA,NA,NA,NA,NA,NA,NA,NA,NA,NA
TRUE,fullscreen,0,5337,0.0-0.0,SS1627326509722,NA,NA,NA,NA,NA,NA,NA,NA,NA,NA,NA,NA,NA,NA,NA,NA,NA,NA,NA,NA,NA
NA,instructions,1,32142,0.0-1.0,SS1627326509722,"[{""page_index"":0,""viewing_time"":26798.900000095367}]",26800.800000190735,NA,NA,NA,NA,NA,NA,NA,NA,NA,NA,NA,NA,NA,NA,NA,NA,NA,NA,NA
NA,instructions,2,49638,0.0-2.0,SS1627326509722,"[{""page_index"":0,""viewing_time"":10243.300000190735},{""page_index"":1,""viewing_time"":5246}]",15489.900000095367,instructions,NA,NA,NA,NA,NA,NA,NA,NA,NA,NA,NA,NA,NA,NA,NA,NA,NA,NA
NA,stimuli-presentation,3,60910,0.0-3.0,SS1627326509722,NA,10759.5,NA,NA,40,500,11259.5,null,null,self_paced,0,NA,NA,NA,NA,NA,NA,NA,NA,NA,NA
NA,instructions,4,69511,0.0-4.0,SS1627326509722,"[{""page_index"":0,""viewing_time"":8598.199999809265}]",8598.699999809265,instructions,NA,NA,NA,NA,NA,NA,NA,NA,NA,NA,NA,NA,NA,NA,NA,NA,NA,NA
NA,stimuli-presentation,5,79293,0.0-5.0,SS1627326509722,NA,9271.400000095367,NA,NA,40,500,9771.400000095367,null,null,forced_short,500,NA,NA,NA,NA,NA,NA,NA,NA,NA,NA
NA,stimuli-presentation,6,82064,0.0-6.0,SS1627326509722,NA,2253,NA,NA,40,500,2753,null,null,forced_short,500,NA,NA,NA,NA,NA,NA,NA,NA,NA,NA
NA,instructions,7,92037,0.0-7.0,SS1627326509722,"[{""page_index"":0,""viewing_time"":9970.39999961853}]",9970.89999961853,instructions,NA,NA,NA,NA,NA,NA,NA,NA,NA,NA,NA,NA,NA,NA,NA,NA,NA,NA
NA,survey-multi-choice,8,96366,0.0-8.0,SS1627326509722,NA,4316.199999809265,memory_test_practice,NA,NA,NA,NA,NA,NA,NA,NA,"{""Q0"":""Yes""}",[0],images/practice/instructions_example_spore2.gif,0,NA,NA,NA,NA,NA,NA
NA,survey-multi-choice,9,100360,0.0-9.0,SS1627326509722,NA,3989.800000190735,memory_test_practice,NA,NA,NA,NA,NA,NA,NA,NA,"{""Q0"":""No""}",[0],images/practice/instructions_example_spore0.gif,0,NA,NA,NA,NA,NA,NA
NA,instructions,10,122586,0.0-10.0,SS1627326509722,"[{""page_index"":0,""viewing_time"":20156.800000190735},{""page_index"":1,""viewing_time"":2066.4000000953674}]",22223.700000286102,instructions,NA,NA,NA,NA,NA,NA,NA,NA,NA,NA,NA,NA,NA,NA,NA,NA,NA,NA
NA,html-keyboard-response,11,123566,0.0-11.0-0.0,SS1627326509722,NA,null,NA,NA,null,NA,NA,NA,NA,NA,NA,NA,NA,NA,NA,"<p><img src= images/blank.png width =""600"" height = ""600"" style=""position:fixed;top:50%; left:50%; transform: translate(-50%, -50%); border:5px solid black"">",NA,NA,NA,NA,NA
NA,stimuli-presentation,12,124290,0.0-11.0-1.0,SS1627326509722,NA,523.9000000953674,trial,NA,40,500,1023.9000000953674,images/stimuli/complex_09_A_b.gif,images/stimuli/complex_14_A_b.gif,forced_short,190,NA,NA,NA,NA,NA,0,complex_dissimilar,images/stimuli/complex_14_A_b.gif,NA,NA
NA,html-keyboard-response,13,125115,0.0-11.0-0.1,SS1627326509722,NA,null,NA,NA,null,NA,NA,NA,NA,NA,NA,NA,NA,NA,NA,"<p><img src= images/blank.png width =""600"" height = ""600"" style=""position:fixed;top:50%; left:50%; transform: translate(-50%, -50%); border:5px solid black"">",NA,NA,NA,NA,NA
NA,stimuli-presentation,14,129504,0.0-11.0-1.1,SS1627326509722,NA,3882.300000190735,trial,NA,40,500,4382.300000190735,images/stimuli/complex_09_A_b.gif,images/stimuli/complex_14_A_b.gif,forced_short,190,NA,NA,NA,NA,NA,0,complex_dissimilar,images/stimuli/complex_14_A_b.gif,NA,NA
NA,html-keyboard-response,15,130519,0.0-11.0-0.2,SS1627326509722,NA,null,NA,NA,null,NA,NA,NA,NA,NA,NA,NA,NA,NA,NA,"<p><img src= images/blank.png width =""600"" height = ""600"" style=""position:fixed;top:50%; left:50%; transform: translate(-50%, -50%); border:5px solid black"">",NA,NA,NA,NA,NA
NA,stimuli-presentation,16,133394,0.0-11.0-1.2,SS1627326509722,NA,2367.2000002861023,trial,NA,40,500,2867.2000002861023,images/stimuli/complex_09_A_b.gif,images/stimuli/complex_14_A_b.gif,forced_short,190,NA,NA,NA,NA,NA,0,complex_dissimilar,images/stimuli/complex_14_A_b.gif,NA,NA
NA,html-keyboard-response,17,134502,0.0-11.0-0.3,SS1627326509722,NA,null,NA,NA,null,NA,NA,NA,NA,NA,NA,NA,NA,NA,NA,"<p><img src= images/blank.png width =""600"" height = ""600"" style=""position:fixed;top:50%; left:50%; transform: translate(-50%, -50%); border:5px solid black"">",NA,NA,NA,NA,NA
NA,stimuli-presentation,18,138950,0.0-11.0-1.3,SS1627326509722,NA,3934.4000000953674,trial,NA,40,500,4434.400000095367,images/stimuli/complex_09_A_b.gif,images/stimuli/complex_14_A_b.gif,forced_short,190,NA,NA,NA,NA,NA,0,complex_dissimilar,images/stimuli/complex_14_A_b.gif,NA,NA
NA,html-keyboard-response,19,139841,0.0-11.0-0.4,SS1627326509722,NA,null,NA,NA,null,NA,NA,NA,NA,NA,NA,NA,NA,NA,NA,"<p><img src= images/blank.png width =""600"" height = ""600"" style=""position:fixed;top:50%; left:50%; transform: translate(-50%, -50%); border:5px solid black"">",NA,NA,NA,NA,NA
NA,stimuli-presentation,20,142657,0.0-11.0-1.4,SS1627326509722,NA,2301.300000190735,trial,NA,40,500,2801.300000190735,images/stimuli/complex_09_A_b.gif,images/stimuli/complex_14_A_b.gif,forced_short,190,NA,NA,NA,NA,NA,0,complex_dissimilar,images/stimuli/complex_14_A_b.gif,NA,NA
NA,html-keyboard-response,21,143596,0.0-11.0-0.5,SS1627326509722,NA,null,NA,NA,null,NA,NA,NA,NA,NA,NA,NA,NA,NA,NA,"<p><img src= images/blank.png width =""600"" height = ""600"" style=""position:fixed;top:50%; left:50%; transform: translate(-50%, -50%); border:5px solid black"">",NA,NA,NA,NA,NA
NA,stimuli-presentation,22,151718,0.0-11.0-1.5,SS1627326509722,NA,7607.800000190735,trial,NA,40,500,8107.800000190735,images/stimuli/complex_09_A_b.gif,images/stimuli/complex_14_A_b.gif,forced_short,190,NA,NA,NA,NA,NA,0,complex_dissimilar,images/stimuli/complex_09_A_b.gif,NA,NA
NA,html-keyboard-response,23,152591,0.0-11.0-0.6,SS1627326509722,NA,null,NA,NA,null,NA,NA,NA,NA,NA,NA,NA,NA,NA,NA,"<p><img src= images/blank.png width =""600"" height = ""600"" style=""position:fixed;top:50%; left:50%; transform: translate(-50%, -50%); border:5px solid black"">",NA,NA,NA,NA,NA
NA,stimuli-presentation,24,156104,0.0-11.0-1.6,SS1627326509722,NA,3006.4000000953674,trial,NA,40,500,3506.4000000953674,images/stimuli/complex_09_A_b.gif,images/stimuli/complex_14_A_b.gif,forced_short,190,NA,NA,NA,NA,NA,0,complex_dissimilar,images/stimuli/complex_14_A_b.gif,NA,NA
NA,survey-multi-choice,25,160213,0.0-12.0,SS1627326509722,NA,4105.199999809265,memory_test,NA,NA,NA,NA,NA,NA,NA,NA,"{""Q0"":""Yes""}",[0],images/stimuli/complex_09_A_b.gif,0,NA,NA,NA,NA,NA,NA
NA,survey-multi-choice,26,163936,0.0-13.0,SS1627326509722,NA,3719.0999999046326,memory_test,NA,NA,NA,NA,NA,NA,NA,NA,"{""Q0"":""No""}",[0],images/stimuli/complex_05_A_b.gif,0,NA,NA,NA,NA,NA,NA
NA,html-keyboard-response,27,165203,0.0-14.0-0.0,SS1627326509722,NA,null,NA,NA,null,NA,NA,NA,NA,NA,NA,NA,NA,NA,NA,"<p><img src= images/blank.png width =""600"" height = ""600"" style=""position:fixed;top:50%; left:50%; transform: translate(-50%, -50%); border:5px solid black"">",NA,NA,NA,NA,NA
NA,stimuli-presentation,28,169418,0.0-14.0-1.0,SS1627326509722,NA,3574.2000002861023,trial,NA,40,500,4074.2000002861023,images/stimuli/complex_17_A_b.gif,images/stimuli/complex_22_A_a.gif,forced_short,630,NA,NA,NA,NA,NA,1,complex_dissimilar,images/stimuli/complex_22_A_a.gif,NA,NA
NA,html-keyboard-response,29,170677,0.0-14.0-0.1,SS1627326509722,NA,null,NA,NA,null,NA,NA,NA,NA,NA,NA,NA,NA,NA,NA,"<p><img src= images/blank.png width =""600"" height = ""600"" style=""position:fixed;top:50%; left:50%; transform: translate(-50%, -50%); border:5px solid black"">",NA,NA,NA,NA,NA
NA,stimuli-presentation,30,174889,0.0-14.0-1.1,SS1627326509722,NA,3705.800000190735,trial,NA,40,500,4205.800000190735,images/stimuli/complex_17_A_b.gif,images/stimuli/complex_22_A_a.gif,forced_short,630,NA,NA,NA,NA,NA,1,complex_dissimilar,images/stimuli/complex_17_A_b.gif,NA,NA
NA,html-keyboard-response,31,175771,0.0-14.0-0.2,SS1627326509722,NA,null,NA,NA,null,NA,NA,NA,NA,NA,NA,NA,NA,NA,NA,"<p><img src= images/blank.png width =""600"" height = ""600"" style=""position:fixed;top:50%; left:50%; transform: translate(-50%, -50%); border:5px solid black"">",NA,NA,NA,NA,NA
NA,stimuli-presentation,32,178654,0.0-14.0-1.2,SS1627326509722,NA,2372.199999809265,trial,NA,40,500,2872.199999809265,images/stimuli/complex_17_A_b.gif,images/stimuli/complex_22_A_a.gif,forced_short,630,NA,NA,NA,NA,NA,1,complex_dissimilar,images/stimuli/complex_22_A_a.gif,NA,NA
NA,html-keyboard-response,33,179535,0.0-14.0-0.3,SS1627326509722,NA,null,NA,NA,null,NA,NA,NA,NA,NA,NA,NA,NA,NA,NA,"<p><img src= images/blank.png width =""600"" height = ""600"" style=""position:fixed;top:50%; left:50%; transform: translate(-50%, -50%); border:5px solid black"">",NA,NA,NA,NA,NA
NA,stimuli-presentation,34,181707,0.0-14.0-1.3,SS1627326509722,NA,1660.5,trial,NA,40,500,2160.5,images/stimuli/complex_17_A_b.gif,images/stimuli/complex_22_A_a.gif,forced_short,630,NA,NA,NA,NA,NA,1,complex_dissimilar,images/stimuli/complex_22_A_a.gif,NA,NA
NA,html-keyboard-response,35,182650,0.0-14.0-0.4,SS1627326509722,NA,null,NA,NA,null,NA,NA,NA,NA,NA,NA,NA,NA,NA,NA,"<p><img src= images/blank.png width =""600"" height = ""600"" style=""position:fixed;top:50%; left:50%; transform: translate(-50%, -50%); border:5px solid black"">",NA,NA,NA,NA,NA
NA,stimuli-presentation,36,184329,0.0-14.0-1.4,SS1627326509722,NA,1168.6999998092651,trial,NA,40,500,1668.6999998092651,images/stimuli/complex_17_A_b.gif,images/stimuli/complex_22_A_a.gif,forced_short,630,NA,NA,NA,NA,NA,1,complex_dissimilar,images/stimuli/complex_22_A_a.gif,NA,NA
NA,html-keyboard-response,37,185414,0.0-14.0-0.5,SS1627326509722,NA,null,NA,NA,null,NA,NA,NA,NA,NA,NA,NA,NA,NA,NA,"<p><img src= images/blank.png width =""600"" height = ""600"" style=""position:fixed;top:50%; left:50%; transform: translate(-50%, -50%); border:5px solid black"">",NA,NA,NA,NA,NA
NA,stimuli-presentation,38,186821,0.0-14.0-1.5,SS1627326509722,NA,899,trial,NA,40,500,1399,images/stimuli/complex_17_A_b.gif,images/stimuli/complex_22_A_a.gif,forced_short,630,NA,NA,NA,NA,NA,1,complex_dissimilar,images/stimuli/complex_22_A_a.gif,NA,NA
NA,html-keyboard-response,39,187912,0.0-14.0-0.6,SS1627326509722,NA,null,NA,NA,null,NA,NA,NA,NA,NA,NA,NA,NA,NA,NA,"<p><img src= images/blank.png width =""600"" height = ""600"" style=""position:fixed;top:50%; left:50%; transform: translate(-50%, -50%); border:5px solid black"">",NA,NA,NA,NA,NA
NA,stimuli-presentation,40,189515,0.0-14.0-1.6,SS1627326509722,NA,1093.7999997138977,trial,NA,40,500,1593.7999997138977,images/stimuli/complex_17_A_b.gif,images/stimuli/complex_22_A_a.gif,forced_short,630,NA,NA,NA,NA,NA,1,complex_dissimilar,images/stimuli/complex_22_A_a.gif,NA,NA
NA,html-keyboard-response,41,190344,0.0-14.0-0.7,SS1627326509722,NA,null,NA,NA,null,NA,NA,NA,NA,NA,NA,NA,NA,NA,NA,"<p><img src= images/blank.png width =""600"" height = ""600"" style=""position:fixed;top:50%; left:50%; transform: translate(-50%, -50%); border:5px solid black"">",NA,NA,NA,NA,NA
NA,stimuli-presentation,42,192616,0.0-14.0-1.7,SS1627326509722,NA,1767.0999999046326,trial,NA,40,500,2267.0999999046326,images/stimuli/complex_17_A_b.gif,images/stimuli/complex_22_A_a.gif,forced_short,630,NA,NA,NA,NA,NA,1,complex_dissimilar,images/stimuli/complex_17_A_b.gif,NA,NA
NA,survey-multi-choice,43,195945,0.0-15.0,SS1627326509722,NA,3325.800000190735,memory_test,NA,NA,NA,NA,NA,NA,NA,NA,"{""Q0"":""Yes""}",[0],images/stimuli/complex_17_A_b.gif,1,NA,NA,NA,NA,NA,NA
NA,survey-multi-choice,44,199174,0.0-16.0,SS1627326509722,NA,3219.699999809265,memory_test,NA,NA,NA,NA,NA,NA,NA,NA,"{""Q0"":""No""}",[0],images/stimuli/complex_01_A_b.gif,1,NA,NA,NA,NA,NA,NA
NA,html-keyboard-response,45,200232,0.0-17.0-0.0,SS1627326509722,NA,null,NA,NA,null,NA,NA,NA,NA,NA,NA,NA,NA,NA,NA,"<p><img src= images/blank.png width =""600"" height = ""600"" style=""position:fixed;top:50%; left:50%; transform: translate(-50%, -50%); border:5px solid black"">",NA,NA,NA,NA,NA
NA,stimuli-presentation,46,202343,0.0-17.0-1.0,SS1627326509722,NA,1328.5999999046326,trial,NA,40,500,1828.5999999046326,images/stimuli/complex_16_A_b.gif,images/stimuli/complex_19_A_b.gif,forced_short,770,NA,NA,NA,NA,NA,2,complex_dissimilar,images/stimuli/complex_19_A_b.gif,NA,NA
NA,html-keyboard-response,47,203317,0.0-17.0-0.1,SS1627326509722,NA,null,NA,NA,null,NA,NA,NA,NA,NA,NA,NA,NA,NA,NA,"<p><img src= images/blank.png width =""600"" height = ""600"" style=""position:fixed;top:50%; left:50%; transform: translate(-50%, -50%); border:5px solid black"">",NA,NA,NA,NA,NA
NA,stimuli-presentation,48,206096,0.0-17.0-1.1,SS1627326509722,NA,2267.199999809265,trial,NA,40,500,2767.199999809265,images/stimuli/complex_16_A_b.gif,images/stimuli/complex_19_A_b.gif,forced_short,770,NA,NA,NA,NA,NA,2,complex_dissimilar,images/stimuli/complex_19_A_b.gif,NA,NA
NA,html-keyboard-response,49,207367,0.0-17.0-0.2,SS1627326509722,NA,null,NA,NA,null,NA,NA,NA,NA,NA,NA,NA,NA,NA,NA,"<p><img src= images/blank.png width =""600"" height = ""600"" style=""position:fixed;top:50%; left:50%; transform: translate(-50%, -50%); border:5px solid black"">",NA,NA,NA,NA,NA
NA,stimuli-presentation,50,209260,0.0-17.0-1.2,SS1627326509722,NA,1378.5999999046326,trial,NA,40,500,1878.5999999046326,images/stimuli/complex_16_A_b.gif,images/stimuli/complex_19_A_b.gif,forced_short,770,NA,NA,NA,NA,NA,2,complex_dissimilar,images/stimuli/complex_19_A_b.gif,NA,NA
NA,html-keyboard-response,51,210447,0.0-17.0-0.3,SS1627326509722,NA,null,NA,NA,null,NA,NA,NA,NA,NA,NA,NA,NA,NA,NA,"<p><img src= images/blank.png width =""600"" height = ""600"" style=""position:fixed;top:50%; left:50%; transform: translate(-50%, -50%); border:5px solid black"">",NA,NA,NA,NA,NA
NA,stimuli-presentation,52,214267,0.0-17.0-1.3,SS1627326509722,NA,3303.8999996185303,trial,NA,40,500,3803.8999996185303,images/stimuli/complex_16_A_b.gif,images/stimuli/complex_19_A_b.gif,forced_short,770,NA,NA,NA,NA,NA,2,complex_dissimilar,images/stimuli/complex_19_A_b.gif,NA,NA
NA,html-keyboard-response,53,215500,0.0-17.0-0.4,SS1627326509722,NA,null,NA,NA,null,NA,NA,NA,NA,NA,NA,NA,NA,NA,NA,"<p><img src= images/blank.png width =""600"" height = ""600"" style=""position:fixed;top:50%; left:50%; transform: translate(-50%, -50%); border:5px solid black"">",NA,NA,NA,NA,NA
NA,stimuli-presentation,54,217153,0.0-17.0-1.4,SS1627326509722,NA,1144.1000003814697,trial,NA,40,500,1644.1000003814697,images/stimuli/complex_16_A_b.gif,images/stimuli/complex_19_A_b.gif,forced_short,770,NA,NA,NA,NA,NA,2,complex_dissimilar,images/stimuli/complex_19_A_b.gif,NA,NA
NA,html-keyboard-response,55,218032,0.0-17.0-0.5,SS1627326509722,NA,null,NA,NA,null,NA,NA,NA,NA,NA,NA,NA,NA,NA,NA,"<p><img src= images/blank.png width =""600"" height = ""600"" style=""position:fixed;top:50%; left:50%; transform: translate(-50%, -50%); border:5px solid black"">",NA,NA,NA,NA,NA
NA,stimuli-presentation,56,219746,0.0-17.0-1.5,SS1627326509722,NA,1202.8000001907349,trial,NA,40,500,1702.8000001907349,images/stimuli/complex_16_A_b.gif,images/stimuli/complex_19_A_b.gif,forced_short,770,NA,NA,NA,NA,NA,2,complex_dissimilar,images/stimuli/complex_19_A_b.gif,NA,NA
NA,html-keyboard-response,57,220841,0.0-17.0-0.6,SS1627326509722,NA,null,NA,NA,null,NA,NA,NA,NA,NA,NA,NA,NA,NA,NA,"<p><img src= images/blank.png width =""600"" height = ""600"" style=""position:fixed;top:50%; left:50%; transform: translate(-50%, -50%); border:5px solid black"">",NA,NA,NA,NA,NA
