view_history,rt,trial_type,trial_index,time_elapsed,internal_node_id,subject,stimulus_type,trial_stimulus,key_press,minimum_viewing_duration,trial_looking_time,block_deviant,block_background,exposure_type,forced_exposure_time,stimulus,block_number,block_type,stimulus_displayed,responses,question_order,math_correct_answer,stimulus_left,stimulus_right
"[{""page_index"":0,""viewing_time"":199443.90000000596}]",199445.09999999404,instructions,0,199447,0.0-0.0,SS1626380790586,NA,NA,NA,NA,NA,NA,NA,NA,NA,NA,NA,NA,NA,NA,NA,NA,NA,NA
"[{""page_index"":0,""viewing_time"":8341.90000000596},{""page_index"":1,""viewing_time"":4004}]",12346.299999982119,instructions,1,213806,0.0-1.0,SS1626380790586,instructions,NA,NA,NA,NA,NA,NA,NA,NA,NA,NA,NA,NA,NA,NA,NA,NA,NA
NA,4299.699999988079,sequential-stimulus-presentation-old,2,218626,0.0-2.0,SS1626380790586,NA,NA,40,500,4799.699999988079,null,null,self_paced,0,NA,NA,NA,NA,NA,NA,NA,NA,NA
NA,4631,sequential-stimulus-presentation-old,3,223775,0.0-3.0,SS1626380790586,NA,NA,40,500,5131,null,null,self_paced,0,NA,NA,NA,NA,NA,NA,NA,NA,NA
"[{""page_index"":0,""viewing_time"":8896.59999999404}]",8897,instructions,4,232675,0.0-4.0,SS1626380790586,instructions,NA,NA,NA,NA,NA,NA,NA,NA,NA,NA,NA,NA,NA,NA,NA,NA,NA
NA,5955.600000023842,sequential-stimulus-presentation-old,5,239135,0.0-5.0,SS1626380790586,NA,NA,40,500,6455.600000023842,null,null,forced_short,500,NA,NA,NA,NA,NA,NA,NA,NA,NA
NA,3181.699999988079,sequential-stimulus-presentation-old,6,242823,0.0-6.0,SS1626380790586,NA,NA,40,500,3681.699999988079,null,null,forced_short,500,NA,NA,NA,NA,NA,NA,NA,NA,NA
"[{""page_index"":0,""viewing_time"":2538.0999999940395}]",2538.5,instructions,7,245364,0.0-7.0,SS1626380790586,instructions,NA,NA,NA,NA,NA,NA,NA,NA,NA,NA,NA,NA,NA,NA,NA,NA,NA
"[{""page_index"":0,""viewing_time"":6814.4000000059605},{""page_index"":1,""viewing_time"":10890},{""page_index"":2,""viewing_time"":5389},{""page_index"":3,""viewing_time"":1365},{""page_index"":4,""viewing_time"":1372.0999999940395}]",25830.90000000596,instructions,8,271198,0.0-8.0,SS1626380790586,instructions,NA,NA,NA,NA,NA,NA,NA,NA,NA,NA,NA,NA,NA,NA,NA,NA,NA
NA,null,html-keyboard-response,9,272066,0.0-9.0-0.0,SS1626380790586,NA,NA,null,NA,NA,NA,NA,NA,NA,"<p><img src= images/blank.png width =""600"" height = ""600"" style=""position:fixed;top:50%; left:50%; transform: translate(-50%, -50%); border:5px solid black"">",NA,NA,NA,NA,NA,NA,NA,NA
NA,3493.300000011921,sequential-stimulus-presentation-old,10,275935,0.0-9.0-1.0,SS1626380790586,trial,NA,40,500,3993.300000011921,images/stimuli/spore_stims/complex_19_A_a.gif,images/stimuli/spore_stims/complex_21_A_a.gif,forced_short,370,NA,0,complex_dissimilar,images/stimuli/spore_stims/complex_21_A_a.gif,NA,NA,NA,NA,NA
NA,null,html-keyboard-response,11,276883,0.0-9.0-0.1,SS1626380790586,NA,NA,null,NA,NA,NA,NA,NA,NA,"<p><img src= images/blank.png width =""600"" height = ""600"" style=""position:fixed;top:50%; left:50%; transform: translate(-50%, -50%); border:5px solid black"">",NA,NA,NA,NA,NA,NA,NA,NA
NA,1584.3999999761581,sequential-stimulus-presentation-old,12,278975,0.0-9.0-1.1,SS1626380790586,trial,NA,40,500,2084.399999976158,images/stimuli/spore_stims/complex_19_A_a.gif,images/stimuli/spore_stims/complex_21_A_a.gif,forced_short,370,NA,0,complex_dissimilar,images/stimuli/spore_stims/complex_21_A_a.gif,NA,NA,NA,NA,NA
NA,null,html-keyboard-response,13,279971,0.0-9.0-0.2,SS1626380790586,NA,NA,null,NA,NA,NA,NA,NA,NA,"<p><img src= images/blank.png width =""600"" height = ""600"" style=""position:fixed;top:50%; left:50%; transform: translate(-50%, -50%); border:5px solid black"">",NA,NA,NA,NA,NA,NA,NA,NA
NA,3085.699999988079,sequential-stimulus-presentation-old,14,283565,0.0-9.0-1.2,SS1626380790586,trial,NA,40,500,3585.699999988079,images/stimuli/spore_stims/complex_19_A_a.gif,images/stimuli/spore_stims/complex_21_A_a.gif,forced_short,370,NA,0,complex_dissimilar,images/stimuli/spore_stims/complex_21_A_a.gif,NA,NA,NA,NA,NA
NA,null,html-keyboard-response,15,284540,0.0-9.0-0.3,SS1626380790586,NA,NA,null,NA,NA,NA,NA,NA,NA,"<p><img src= images/blank.png width =""600"" height = ""600"" style=""position:fixed;top:50%; left:50%; transform: translate(-50%, -50%); border:5px solid black"">",NA,NA,NA,NA,NA,NA,NA,NA
NA,1052.800000011921,sequential-stimulus-presentation-old,16,286105,0.0-9.0-1.3,SS1626380790586,trial,NA,40,500,1552.800000011921,images/stimuli/spore_stims/complex_19_A_a.gif,images/stimuli/spore_stims/complex_21_A_a.gif,forced_short,370,NA,0,complex_dissimilar,images/stimuli/spore_stims/complex_21_A_a.gif,NA,NA,NA,NA,NA
NA,2878,survey-multi-choice,17,288993,0.0-10.0,SS1626380790586,math_question,NA,NA,NA,NA,NA,NA,NA,NA,NA,NA,NA,NA,"{""Q0"":""11""}",[0],11,NA,NA
NA,null,html-keyboard-response,18,289875,0.0-11.0-0.0,SS1626380790586,NA,NA,null,NA,NA,NA,NA,NA,NA,"<p><img src= images/blank.png width =""600"" height = ""600"" style=""position:fixed;top:50%; left:50%; transform: translate(-50%, -50%); border:5px solid black"">",NA,NA,NA,NA,NA,NA,NA,NA
NA,433.5,sequential-stimulus-presentation-old,19,291199,0.0-11.0-1.0,SS1626380790586,trial,NA,40,500,933.5,images/stimuli/spore_stims/complex_03_A_b.gif,images/stimuli/spore_stims/complex_23_A_a.gif,forced_short,880,NA,1,complex_dissimilar,images/stimuli/spore_stims/complex_23_A_a.gif,NA,NA,NA,NA,NA
NA,null,html-keyboard-response,20,292220,0.0-11.0-0.1,SS1626380790586,NA,NA,null,NA,NA,NA,NA,NA,NA,"<p><img src= images/blank.png width =""600"" height = ""600"" style=""position:fixed;top:50%; left:50%; transform: translate(-50%, -50%); border:5px solid black"">",NA,NA,NA,NA,NA,NA,NA,NA
NA,49.20000001788139,sequential-stimulus-presentation-old,21,292783,0.0-11.0-1.1,SS1626380790586,trial,NA,40,500,549.2000000178814,images/stimuli/spore_stims/complex_03_A_b.gif,images/stimuli/spore_stims/complex_23_A_a.gif,forced_short,880,NA,1,complex_dissimilar,images/stimuli/spore_stims/complex_23_A_a.gif,NA,NA,NA,NA,NA
NA,null,html-keyboard-response,22,294009,0.0-11.0-0.2,SS1626380790586,NA,NA,null,NA,NA,NA,NA,NA,NA,"<p><img src= images/blank.png width =""600"" height = ""600"" style=""position:fixed;top:50%; left:50%; transform: translate(-50%, -50%); border:5px solid black"">",NA,NA,NA,NA,NA,NA,NA,NA
NA,608.1999999880791,sequential-stimulus-presentation-old,23,295127,0.0-11.0-1.2,SS1626380790586,trial,NA,40,500,1108.199999988079,images/stimuli/spore_stims/complex_03_A_b.gif,images/stimuli/spore_stims/complex_23_A_a.gif,forced_short,880,NA,1,complex_dissimilar,images/stimuli/spore_stims/complex_23_A_a.gif,NA,NA,NA,NA,NA
NA,null,html-keyboard-response,24,296228,0.0-11.0-0.3,SS1626380790586,NA,NA,null,NA,NA,NA,NA,NA,NA,"<p><img src= images/blank.png width =""600"" height = ""600"" style=""position:fixed;top:50%; left:50%; transform: translate(-50%, -50%); border:5px solid black"">",NA,NA,NA,NA,NA,NA,NA,NA
NA,281.69999998807907,sequential-stimulus-presentation-old,25,297024,0.0-11.0-1.3,SS1626380790586,trial,NA,40,500,781.6999999880791,images/stimuli/spore_stims/complex_03_A_b.gif,images/stimuli/spore_stims/complex_23_A_a.gif,forced_short,880,NA,1,complex_dissimilar,images/stimuli/spore_stims/complex_03_A_b.gif,NA,NA,NA,NA,NA
NA,null,html-keyboard-response,26,297968,0.0-11.0-0.4,SS1626380790586,NA,NA,null,NA,NA,NA,NA,NA,NA,"<p><img src= images/blank.png width =""600"" height = ""600"" style=""position:fixed;top:50%; left:50%; transform: translate(-50%, -50%); border:5px solid black"">",NA,NA,NA,NA,NA,NA,NA,NA
NA,155.40000000596046,sequential-stimulus-presentation-old,27,298631,0.0-11.0-1.4,SS1626380790586,trial,NA,40,500,655.4000000059605,images/stimuli/spore_stims/complex_03_A_b.gif,images/stimuli/spore_stims/complex_23_A_a.gif,forced_short,880,NA,1,complex_dissimilar,images/stimuli/spore_stims/complex_03_A_b.gif,NA,NA,NA,NA,NA
NA,null,html-keyboard-response,28,299798,0.0-11.0-0.5,SS1626380790586,NA,NA,null,NA,NA,NA,NA,NA,NA,"<p><img src= images/blank.png width =""600"" height = ""600"" style=""position:fixed;top:50%; left:50%; transform: translate(-50%, -50%); border:5px solid black"">",NA,NA,NA,NA,NA,NA,NA,NA
NA,1095.7000000178814,sequential-stimulus-presentation-old,29,301407,0.0-11.0-1.5,SS1626380790586,trial,NA,40,500,1595.7000000178814,images/stimuli/spore_stims/complex_03_A_b.gif,images/stimuli/spore_stims/complex_23_A_a.gif,forced_short,880,NA,1,complex_dissimilar,images/stimuli/spore_stims/complex_23_A_a.gif,NA,NA,NA,NA,NA
NA,2103.7000000178814,survey-multi-choice,30,303515,0.0-12.0,SS1626380790586,math_question,NA,NA,NA,NA,NA,NA,NA,NA,NA,NA,NA,NA,"{""Q0"":""16""}",[0],16,NA,NA
NA,null,html-keyboard-response,31,304675,0.0-13.0-0.0,SS1626380790586,NA,NA,null,NA,NA,NA,NA,NA,NA,"<p><img src= images/blank.png width =""600"" height = ""600"" style=""position:fixed;top:50%; left:50%; transform: translate(-50%, -50%); border:5px solid black"">",NA,NA,NA,NA,NA,NA,NA,NA
NA,9.800000011920929,sequential-stimulus-presentation-old,32,305438,0.0-13.0-1.0,SS1626380790586,trial,NA,40,500,509.80000001192093,images/stimuli/spore_stims/complex_10_A_a.gif,images/stimuli/spore_stims/complex_08_A_a.gif,forced_short,730,NA,2,complex_dissimilar,images/stimuli/spore_stims/complex_08_A_a.gif,NA,NA,NA,NA,NA
NA,null,html-keyboard-response,33,306355,0.0-13.0-0.1,SS1626380790586,NA,NA,null,NA,NA,NA,NA,NA,NA,"<p><img src= images/blank.png width =""600"" height = ""600"" style=""position:fixed;top:50%; left:50%; transform: translate(-50%, -50%); border:5px solid black"">",NA,NA,NA,NA,NA,NA,NA,NA
NA,473.09999999403954,sequential-stimulus-presentation-old,34,307343,0.0-13.0-1.1,SS1626380790586,trial,NA,40,500,973.0999999940395,images/stimuli/spore_stims/complex_10_A_a.gif,images/stimuli/spore_stims/complex_08_A_a.gif,forced_short,730,NA,2,complex_dissimilar,images/stimuli/spore_stims/complex_08_A_a.gif,NA,NA,NA,NA,NA
NA,null,html-keyboard-response,35,308405,0.0-13.0-0.2,SS1626380790586,NA,NA,null,NA,NA,NA,NA,NA,NA,"<p><img src= images/blank.png width =""600"" height = ""600"" style=""position:fixed;top:50%; left:50%; transform: translate(-50%, -50%); border:5px solid black"">",NA,NA,NA,NA,NA,NA,NA,NA
NA,1343.5,sequential-stimulus-presentation-old,36,310263,0.0-13.0-1.2,SS1626380790586,trial,NA,40,500,1843.5,images/stimuli/spore_stims/complex_10_A_a.gif,images/stimuli/spore_stims/complex_08_A_a.gif,forced_short,730,NA,2,complex_dissimilar,images/stimuli/spore_stims/complex_10_A_a.gif,NA,NA,NA,NA,NA
NA,null,html-keyboard-response,37,311528,0.0-13.0-0.3,SS1626380790586,NA,NA,null,NA,NA,NA,NA,NA,NA,"<p><img src= images/blank.png width =""600"" height = ""600"" style=""position:fixed;top:50%; left:50%; transform: translate(-50%, -50%); border:5px solid black"">",NA,NA,NA,NA,NA,NA,NA,NA
NA,480.5,sequential-stimulus-presentation-old,38,312518,0.0-13.0-1.3,SS1626380790586,trial,NA,40,500,980.5,images/stimuli/spore_stims/complex_10_A_a.gif,images/stimuli/spore_stims/complex_08_A_a.gif,forced_short,730,NA,2,complex_dissimilar,images/stimuli/spore_stims/complex_08_A_a.gif,NA,NA,NA,NA,NA
NA,30582.19999998808,survey-multi-choice,39,343105,0.0-14.0,SS1626380790586,math_question,NA,NA,NA,NA,NA,NA,NA,NA,NA,NA,NA,NA,"{""Q0"":""2""}",[0],2,NA,NA
NA,null,html-keyboard-response,40,344149,0.0-15.0-0.0,SS1626380790586,NA,NA,null,NA,NA,NA,NA,NA,NA,"<p><img src= images/blank.png width =""600"" height = ""600"" style=""position:fixed;top:50%; left:50%; transform: translate(-50%, -50%); border:5px solid black"">",NA,NA,NA,NA,NA,NA,NA,NA
NA,2968.800000011921,sequential-stimulus-presentation-old,41,347318,0.0-15.0-1.0,SS1626380790586,trial,NA,40,500,3468.800000011921,images/stimuli/spore_stims/complex_11_A_a.gif,images/stimuli/spore_stims/complex_12_A_a.gif,forced_short,190,NA,3,complex_dissimilar,images/stimuli/spore_stims/complex_12_A_a.gif,NA,NA,NA,NA,NA
NA,null,html-keyboard-response,42,348427,0.0-15.0-0.1,SS1626380790586,NA,NA,null,NA,NA,NA,NA,NA,NA,"<p><img src= images/blank.png width =""600"" height = ""600"" style=""position:fixed;top:50%; left:50%; transform: translate(-50%, -50%); border:5px solid black"">",NA,NA,NA,NA,NA,NA,NA,NA
NA,1024.4000000059605,sequential-stimulus-presentation-old,43,349966,0.0-15.0-1.1,SS1626380790586,trial,NA,40,500,1524.4000000059605,images/stimuli/spore_stims/complex_11_A_a.gif,images/stimuli/spore_stims/complex_12_A_a.gif,forced_short,190,NA,3,complex_dissimilar,images/stimuli/spore_stims/complex_12_A_a.gif,NA,NA,NA,NA,NA
NA,null,html-keyboard-response,44,351218,0.0-15.0-0.2,SS1626380790586,NA,NA,null,NA,NA,NA,NA,NA,NA,"<p><img src= images/blank.png width =""600"" height = ""600"" style=""position:fixed;top:50%; left:50%; transform: translate(-50%, -50%); border:5px solid black"">",NA,NA,NA,NA,NA,NA,NA,NA
NA,6138.5,sequential-stimulus-presentation-old,45,357870,0.0-15.0-1.2,SS1626380790586,trial,NA,40,500,6638.5,images/stimuli/spore_stims/complex_11_A_a.gif,images/stimuli/spore_stims/complex_12_A_a.gif,forced_short,190,NA,3,complex_dissimilar,images/stimuli/spore_stims/complex_12_A_a.gif,NA,NA,NA,NA,NA
NA,null,html-keyboard-response,46,359181,0.0-15.0-0.3,SS1626380790586,NA,NA,null,NA,NA,NA,NA,NA,NA,"<p><img src= images/blank.png width =""600"" height = ""600"" style=""position:fixed;top:50%; left:50%; transform: translate(-50%, -50%); border:5px solid black"">",NA,NA,NA,NA,NA,NA,NA,NA
NA,177.7000000178814,sequential-stimulus-presentation-old,47,359870,0.0-15.0-1.3,SS1626380790586,trial,NA,40,500,677.7000000178814,images/stimuli/spore_stims/complex_11_A_a.gif,images/stimuli/spore_stims/complex_12_A_a.gif,forced_short,190,NA,3,complex_dissimilar,images/stimuli/spore_stims/complex_12_A_a.gif,NA,NA,NA,NA,NA
NA,null,html-keyboard-response,48,360755,0.0-15.0-0.4,SS1626380790586,NA,NA,null,NA,NA,NA,NA,NA,NA,"<p><img src= images/blank.png width =""600"" height = ""600"" style=""position:fixed;top:50%; left:50%; transform: translate(-50%, -50%); border:5px solid black"">",NA,NA,NA,NA,NA,NA,NA,NA
NA,4567.699999988079,sequential-stimulus-presentation-old,49,365838,0.0-15.0-1.4,SS1626380790586,trial,NA,40,500,5067.699999988079,images/stimuli/spore_stims/complex_11_A_a.gif,images/stimuli/spore_stims/complex_12_A_a.gif,forced_short,190,NA,3,complex_dissimilar,images/stimuli/spore_stims/complex_12_A_a.gif,NA,NA,NA,NA,NA
NA,null,html-keyboard-response,50,366694,0.0-15.0-0.5,SS1626380790586,NA,NA,null,NA,NA,NA,NA,NA,NA,"<p><img src= images/blank.png width =""600"" height = ""600"" style=""position:fixed;top:50%; left:50%; transform: translate(-50%, -50%); border:5px solid black"">",NA,NA,NA,NA,NA,NA,NA,NA
NA,470.2000000178814,sequential-stimulus-presentation-old,51,367678,0.0-15.0-1.5,SS1626380790586,trial,NA,40,500,970.2000000178814,images/stimuli/spore_stims/complex_11_A_a.gif,images/stimuli/spore_stims/complex_12_A_a.gif,forced_short,190,NA,3,complex_dissimilar,images/stimuli/spore_stims/complex_11_A_a.gif,NA,NA,NA,NA,NA
NA,2385.699999988079,survey-multi-choice,52,370071,0.0-16.0,SS1626380790586,math_question,NA,NA,NA,NA,NA,NA,NA,NA,NA,NA,NA,NA,"{""Q0"":""10""}",[0],10,NA,NA
NA,null,html-keyboard-response,53,371156,0.0-17.0-0.0,SS1626380790586,NA,NA,null,NA,NA,NA,NA,NA,NA,"<p><img src= images/blank.png width =""600"" height = ""600"" style=""position:fixed;top:50%; left:50%; transform: translate(-50%, -50%); border:5px solid black"">",NA,NA,NA,NA,NA,NA,NA,NA
NA,18.400000005960464,sequential-stimulus-presentation-old,54,371966,0.0-17.0-1.0,SS1626380790586,trial,NA,40,500,518.4000000059605,images/stimuli/spore_stims/complex_20_A_a.gif,images/stimuli/spore_stims/complex_15_A_a.gif,forced_short,770,NA,4,complex_dissimilar,images/stimuli/spore_stims/complex_15_A_a.gif,NA,NA,NA,NA,NA
NA,null,html-keyboard-response,55,373086,0.0-17.0-0.1,SS1626380790586,NA,NA,null,NA,NA,NA,NA,NA,NA,"<p><img src= images/blank.png width =""600"" height = ""600"" style=""position:fixed;top:50%; left:50%; transform: translate(-50%, -50%); border:5px solid black"">",NA,NA,NA,NA,NA,NA,NA,NA
NA,307.09999999403954,sequential-stimulus-presentation-old,56,373910,0.0-17.0-1.1,SS1626380790586,trial,NA,40,500,807.0999999940395,images/stimuli/spore_stims/complex_20_A_a.gif,images/stimuli/spore_stims/complex_15_A_a.gif,forced_short,770,NA,4,complex_dissimilar,images/stimuli/spore_stims/complex_15_A_a.gif,NA,NA,NA,NA,NA
NA,null,html-keyboard-response,57,374818,0.0-17.0-0.2,SS1626380790586,NA,NA,null,NA,NA,NA,NA,NA,NA,"<p><img src= images/blank.png width =""600"" height = ""600"" style=""position:fixed;top:50%; left:50%; transform: translate(-50%, -50%); border:5px solid black"">",NA,NA,NA,NA,NA,NA,NA,NA
NA,98.90000000596046,sequential-stimulus-presentation-old,58,375430,0.0-17.0-1.2,SS1626380790586,trial,NA,40,500,598.9000000059605,images/stimuli/spore_stims/complex_20_A_a.gif,images/stimuli/spore_stims/complex_15_A_a.gif,forced_short,770,NA,4,complex_dissimilar,images/stimuli/spore_stims/complex_20_A_a.gif,NA,NA,NA,NA,NA
NA,null,html-keyboard-response,59,376576,0.0-17.0-0.3,SS1626380790586,NA,NA,null,NA,NA,NA,NA,NA,NA,"<p><img src= images/blank.png width =""600"" height = ""600"" style=""position:fixed;top:50%; left:50%; transform: translate(-50%, -50%); border:5px solid black"">",NA,NA,NA,NA,NA,NA,NA,NA
NA,271.59999999403954,sequential-stimulus-presentation-old,60,377357,0.0-17.0-1.3,SS1626380790586,trial,NA,40,500,771.5999999940395,images/stimuli/spore_stims/complex_20_A_a.gif,images/stimuli/spore_stims/complex_15_A_a.gif,forced_short,770,NA,4,complex_dissimilar,images/stimuli/spore_stims/complex_15_A_a.gif,NA,NA,NA,NA,NA
NA,null,html-keyboard-response,61,378492,0.0-17.0-0.4,SS1626380790586,NA,NA,null,NA,NA,NA,NA,NA,NA,"<p><img src= images/blank.png width =""600"" height = ""600"" style=""position:fixed;top:50%; left:50%; transform: translate(-50%, -50%); border:5px solid black"">",NA,NA,NA,NA,NA,NA,NA,NA
NA,538.5999999940395,sequential-stimulus-presentation-old,62,379550,0.0-17.0-1.4,SS1626380790586,trial,NA,40,500,1038.5999999940395,images/stimuli/spore_stims/complex_20_A_a.gif,images/stimuli/spore_stims/complex_15_A_a.gif,forced_short,770,NA,4,complex_dissimilar,images/stimuli/spore_stims/complex_15_A_a.gif,NA,NA,NA,NA,NA
NA,null,html-keyboard-response,63,380517,0.0-17.0-0.5,SS1626380790586,NA,NA,null,NA,NA,NA,NA,NA,NA,"<p><img src= images/blank.png width =""600"" height = ""600"" style=""position:fixed;top:50%; left:50%; transform: translate(-50%, -50%); border:5px solid black"">",NA,NA,NA,NA,NA,NA,NA,NA
NA,2.699999988079071,sequential-stimulus-presentation-old,64,381046,0.0-17.0-1.5,SS1626380790586,trial,NA,40,500,502.69999998807907,images/stimuli/spore_stims/complex_20_A_a.gif,images/stimuli/spore_stims/complex_15_A_a.gif,forced_short,770,NA,4,complex_dissimilar,images/stimuli/spore_stims/complex_20_A_a.gif,NA,NA,NA,NA,NA
NA,3599.5,survey-multi-choice,65,384652,0.0-18.0,SS1626380790586,math_question,NA,NA,NA,NA,NA,NA,NA,NA,NA,NA,NA,NA,"{""Q0"":""8""}",[0],8,NA,NA
NA,null,html-keyboard-response,66,385779,0.0-19.0-0.0,SS1626380790586,NA,NA,null,NA,NA,NA,NA,NA,NA,"<p><img src= images/blank.png width =""600"" height = ""600"" style=""position:fixed;top:50%; left:50%; transform: translate(-50%, -50%); border:5px solid black"">",NA,NA,NA,NA,NA,NA,NA,NA
NA,5501.4000000059605,sequential-stimulus-presentation-old,67,391374,0.0-19.0-1.0,SS1626380790586,trial,NA,40,500,6001.4000000059605,images/stimuli/spore_stims/complex_09_A_a.gif,images/stimuli/spore_stims/complex_09_A_b.gif,forced_short,70,NA,5,complex_dissimilar,images/stimuli/spore_stims/complex_09_A_b.gif,NA,NA,NA,NA,NA
NA,null,html-keyboard-response,68,392666,0.0-19.0-0.1,SS1626380790586,NA,NA,null,NA,NA,NA,NA,NA,NA,"<p><img src= images/blank.png width =""600"" height = ""600"" style=""position:fixed;top:50%; left:50%; transform: translate(-50%, -50%); border:5px solid black"">",NA,NA,NA,NA,NA,NA,NA,NA
NA,321.40000000596046,sequential-stimulus-presentation-old,69,393502,0.0-19.0-1.1,SS1626380790586,trial,NA,40,500,821.4000000059605,images/stimuli/spore_stims/complex_09_A_a.gif,images/stimuli/spore_stims/complex_09_A_b.gif,forced_short,70,NA,5,complex_dissimilar,images/stimuli/spore_stims/complex_09_A_a.gif,NA,NA,NA,NA,NA
NA,null,html-keyboard-response,70,394958,0.0-19.0-0.2,SS1626380790586,NA,NA,null,NA,NA,NA,NA,NA,NA,"<p><img src= images/blank.png width =""600"" height = ""600"" style=""position:fixed;top:50%; left:50%; transform: translate(-50%, -50%); border:5px solid black"">",NA,NA,NA,NA,NA,NA,NA,NA
NA,1107,sequential-stimulus-presentation-old,71,396934,0.0-19.0-1.2,SS1626380790586,trial,NA,40,500,1607,images/stimuli/spore_stims/complex_09_A_a.gif,images/stimuli/spore_stims/complex_09_A_b.gif,forced_short,70,NA,5,complex_dissimilar,images/stimuli/spore_stims/complex_09_A_b.gif,NA,NA,NA,NA,NA
NA,null,html-keyboard-response,72,398036,0.0-19.0-0.3,SS1626380790586,NA,NA,null,NA,NA,NA,NA,NA,NA,"<p><img src= images/blank.png width =""600"" height = ""600"" style=""position:fixed;top:50%; left:50%; transform: translate(-50%, -50%); border:5px solid black"">",NA,NA,NA,NA,NA,NA,NA,NA
NA,256.2999999821186,sequential-stimulus-presentation-old,73,398805,0.0-19.0-1.3,SS1626380790586,trial,NA,40,500,756.2999999821186,images/stimuli/spore_stims/complex_09_A_a.gif,images/stimuli/spore_stims/complex_09_A_b.gif,forced_short,70,NA,5,complex_dissimilar,images/stimuli/spore_stims/complex_09_A_a.gif,NA,NA,NA,NA,NA
"[{""page_index"":0,""viewing_time"":4551}]",4551.5,instructions,74,403368,0.0-20.0,SS1626380790586,instructions,NA,NA,NA,NA,NA,NA,NA,NA,NA,NA,NA,NA,NA,NA,NA,NA,NA
NA,9585.59999999404,survey-likert,75,412959,0.0-21.0,SS1626380790586,similarity_question,NA,NA,NA,NA,NA,NA,NA,NA,NA,NA,NA,NA,"{""Q0"":0}",[0],NA,images/stimuli/spore_stims/complex_19_A_a.gif,images/stimuli/spore_stims/complex_21_A_a.gif
NA,2646.0999999940395,survey-likert,76,415616,0.0-22.0,SS1626380790586,similarity_question,NA,NA,NA,NA,NA,NA,NA,NA,NA,NA,NA,NA,"{""Q0"":0}",[0],NA,images/stimuli/spore_stims/complex_20_A_a.gif,images/stimuli/spore_stims/complex_15_A_a.gif
NA,4770,survey-likert,77,420396,0.0-23.0,SS1626380790586,similarity_question,NA,NA,NA,NA,NA,NA,NA,NA,NA,NA,NA,NA,"{""Q0"":6}",[0],NA,images/stimuli/spore_stims/complex_09_A_a.gif,images/stimuli/spore_stims/complex_09_A_b.gif
NA,3666.300000011921,survey-likert,78,424073,0.0-24.0,SS1626380790586,similarity_question,NA,NA,NA,NA,NA,NA,NA,NA,NA,NA,NA,NA,"{""Q0"":0}",[0],NA,images/stimuli/spore_stims/complex_03_A_b.gif,images/stimuli/spore_stims/complex_23_A_a.gif
NA,4385.5999999940395,survey-likert,79,428472,0.0-25.0,SS1626380790586,similarity_question,NA,NA,NA,NA,NA,NA,NA,NA,NA,NA,NA,NA,"{""Q0"":0}",[0],NA,images/stimuli/spore_stims/complex_12_A_a.gif,images/stimuli/spore_stims/complex_11_A_a.gif
NA,4806.5,survey-likert,80,433291,0.0-26.0,SS1626380790586,similarity_question,NA,NA,NA,NA,NA,NA,NA,NA,NA,NA,NA,NA,"{""Q0"":0}",[0],NA,images/stimuli/spore_stims/complex_08_A_a.gif,images/stimuli/spore_stims/complex_10_A_a.gif
"[{""page_index"":0,""viewing_time"":2875.800000011921}]",2876.300000011921,instructions,81,436176,0.0-27.0,SS1626380790586,instructions,NA,NA,NA,NA,NA,NA,NA,NA,NA,NA,NA,NA,NA,NA,NA,NA,NA
NA,3754.2000000178814,survey-likert,82,439936,0.0-28.0,SS1626380790586,NA,NA,NA,NA,NA,NA,NA,NA,NA,images/stimuli/spore_stims/complex_20_A_a.gif,NA,NA,NA,"{""Q0"":1}",[0],NA,NA,NA
NA,1618.0999999940395,survey-likert,83,441565,0.0-29.0,SS1626380790586,NA,NA,NA,NA,NA,NA,NA,NA,NA,images/stimuli/spore_stims/complex_21_A_a.gif,NA,NA,NA,"{""Q0"":1}",[0],NA,NA,NA
NA,2080.300000011921,survey-likert,84,443656,0.0-30.0,SS1626380790586,NA,NA,NA,NA,NA,NA,NA,NA,NA,images/stimuli/spore_stims/complex_03_A_b.gif,NA,NA,NA,"{""Q0"":1}",[0],NA,NA,NA
NA,4675.699999988079,survey-likert,85,448341,0.0-31.0,SS1626380790586,NA,NA,NA,NA,NA,NA,NA,NA,NA,images/stimuli/spore_stims/complex_10_A_a.gif,NA,NA,NA,"{""Q0"":1}",[0],NA,NA,NA
NA,4307.5,survey-likert,86,452660,0.0-32.0,SS1626380790586,NA,NA,NA,NA,NA,NA,NA,NA,NA,images/stimuli/spore_stims/complex_09_A_b.gif,NA,NA,NA,"{""Q0"":3}",[0],NA,NA,NA
NA,3164,survey-likert,87,455832,0.0-33.0,SS1626380790586,NA,NA,NA,NA,NA,NA,NA,NA,NA,images/stimuli/spore_stims/complex_12_A_a.gif,NA,NA,NA,"{""Q0"":4}",[0],NA,NA,NA
"[{""page_index"":0,""viewing_time"":1983.4000000059605}]",1984,instructions,88,457827,0.0-34.0,SS1626380790586,instructions,NA,NA,NA,NA,NA,NA,NA,NA,NA,NA,NA,NA,NA,NA,NA,NA,NA
NA,4160.800000011921,demog-age,89,461998,0.0-35.0,SS1626380790586,NA,NA,NA,NA,NA,NA,NA,NA,NA,NA,NA,NA,NA,"{""age"":""19""}",NA,NA,NA,NA
NA,4857.299999982119,demog-ethnic-US,90,466867,0.0-36.0,SS1626380790586,NA,NA,NA,NA,NA,NA,NA,NA,NA,NA,NA,NA,NA,"{""ethnicity"":[""White""]}",[0],NA,NA,NA
NA,7805.9000000059605,demog-gender-and-education,91,474685,0.0-37.0,SS1626380790586,NA,NA,NA,NA,NA,NA,NA,NA,NA,NA,NA,NA,NA,"{""gender"":""Male"",""education"":""Bachelor's Degree""}","[0,1]",NA,NA,NA
NA,5352.699999988079,survey-text,92,480051,0.0-38.0,SS1626380790586,feedback,NA,NA,NA,NA,NA,NA,NA,NA,NA,NA,NA,NA,"{""Q0"":""all good.""}",NA,NA,NA,NA
"[{""page_index"":0,""viewing_time"":3523}]",3523.5,instructions,93,483578,0.0-39.0,SS1626380790586,instructions,NA,NA,NA,NA,NA,NA,NA,NA,NA,NA,NA,NA,NA,NA,NA,NA,NA
"[{""page_index"":0,""viewing_time"":1505}]",1505.300000000745,instructions,0,1507,0.0-0.0,SS1626380840434,NA,NA,NA,NA,NA,NA,NA,NA,NA,NA,NA,NA,NA,NA,NA,NA,NA,NA
"[{""page_index"":0,""viewing_time"":1040},{""page_index"":1,""viewing_time"":3738.5}]",4779,instructions,1,8288,0.0-1.0,SS1626380840434,instructions,NA,NA,NA,NA,NA,NA,NA,NA,NA,NA,NA,NA,NA,NA,NA,NA,NA
NA,1314.800000000745,sequential-stimulus-presentation-old,2,10108,0.0-2.0,SS1626380840434,NA,NA,40,500,1814.800000000745,null,null,self_paced,0,NA,NA,NA,NA,NA,NA,NA,NA,NA
NA,3378.7999999970198,sequential-stimulus-presentation-old,3,13994,0.0-3.0,SS1626380840434,NA,NA,40,500,3878.7999999970198,null,null,self_paced,0,NA,NA,NA,NA,NA,NA,NA,NA,NA
"[{""page_index"":0,""viewing_time"":9825.300000000745}]",9825.699999999255,instructions,4,23820,0.0-4.0,SS1626380840434,instructions,NA,NA,NA,NA,NA,NA,NA,NA,NA,NA,NA,NA,NA,NA,NA,NA,NA
NA,7275,sequential-stimulus-presentation-old,5,31603,0.0-5.0,SS1626380840434,NA,NA,40,500,7775,null,null,forced_short,500,NA,NA,NA,NA,NA,NA,NA,NA,NA
NA,2057.699999999255,sequential-stimulus-presentation-old,6,34162,0.0-6.0,SS1626380840434,NA,NA,40,500,2557.699999999255,null,null,forced_short,500,NA,NA,NA,NA,NA,NA,NA,NA,NA
"[{""page_index"":0,""viewing_time"":2993.39999999851}]",2993.89999999851,instructions,7,37157,0.0-7.0,SS1626380840434,instructions,NA,NA,NA,NA,NA,NA,NA,NA,NA,NA,NA,NA,NA,NA,NA,NA,NA
"[{""page_index"":0,""viewing_time"":12238.20000000298},{""page_index"":1,""viewing_time"":6990.29999999702},{""page_index"":2,""viewing_time"":4217.900000002235},{""page_index"":3,""viewing_time"":1055.800000000745},{""page_index"":4,""viewing_time"":967.0999999977648}]",25469.70000000298,instructions,8,62628,0.0-8.0,SS1626380840434,instructions,NA,NA,NA,NA,NA,NA,NA,NA,NA,NA,NA,NA,NA,NA,NA,NA,NA
NA,null,html-keyboard-response,9,63654,0.0-9.0-0.0,SS1626380840434,NA,NA,null,NA,NA,NA,NA,NA,NA,"<p><img src= images/blank.png width =""600"" height = ""600"" style=""position:fixed;top:50%; left:50%; transform: translate(-50%, -50%); border:5px solid black"">",NA,NA,NA,NA,NA,NA,NA,NA
NA,510.1000000014901,sequential-stimulus-presentation-old,10,64390,0.0-9.0-1.0,SS1626380840434,trial,NA,40,500,1010.1000000014901,images/stimuli/spore_stims/complex_19_A_a.gif,images/stimuli/spore_stims/complex_04_A_a.gif,forced_short,220,NA,0,complex_dissimilar,images/stimuli/spore_stims/complex_04_A_a.gif,NA,NA,NA,NA,NA
NA,null,html-keyboard-response,11,65380,0.0-9.0-0.1,SS1626380840434,NA,NA,null,NA,NA,NA,NA,NA,NA,"<p><img src= images/blank.png width =""600"" height = ""600"" style=""position:fixed;top:50%; left:50%; transform: translate(-50%, -50%); border:5px solid black"">",NA,NA,NA,NA,NA,NA,NA,NA
NA,4569.699999999255,sequential-stimulus-presentation-old,12,70453,0.0-9.0-1.1,SS1626380840434,trial,NA,40,500,5069.699999999255,images/stimuli/spore_stims/complex_19_A_a.gif,images/stimuli/spore_stims/complex_04_A_a.gif,forced_short,220,NA,0,complex_dissimilar,images/stimuli/spore_stims/complex_04_A_a.gif,NA,NA,NA,NA,NA
NA,null,html-keyboard-response,13,71636,0.0-9.0-0.2,SS1626380840434,NA,NA,null,NA,NA,NA,NA,NA,NA,"<p><img src= images/blank.png width =""600"" height = ""600"" style=""position:fixed;top:50%; left:50%; transform: translate(-50%, -50%); border:5px solid black"">",NA,NA,NA,NA,NA,NA,NA,NA
NA,3652.800000000745,sequential-stimulus-presentation-old,14,75795,0.0-9.0-1.2,SS1626380840434,trial,NA,40,500,4152.800000000745,images/stimuli/spore_stims/complex_19_A_a.gif,images/stimuli/spore_stims/complex_04_A_a.gif,forced_short,220,NA,0,complex_dissimilar,images/stimuli/spore_stims/complex_04_A_a.gif,NA,NA,NA,NA,NA
NA,null,html-keyboard-response,15,76631,0.0-9.0-0.3,SS1626380840434,NA,NA,null,NA,NA,NA,NA,NA,NA,"<p><img src= images/blank.png width =""600"" height = ""600"" style=""position:fixed;top:50%; left:50%; transform: translate(-50%, -50%); border:5px solid black"">",NA,NA,NA,NA,NA,NA,NA,NA
NA,3143.7000000029802,sequential-stimulus-presentation-old,16,80281,0.0-9.0-1.3,SS1626380840434,trial,NA,40,500,3643.7000000029802,images/stimuli/spore_stims/complex_19_A_a.gif,images/stimuli/spore_stims/complex_04_A_a.gif,forced_short,220,NA,0,complex_dissimilar,images/stimuli/spore_stims/complex_19_A_a.gif,NA,NA,NA,NA,NA
NA,null,html-keyboard-response,17,81306,0.0-9.0-0.4,SS1626380840434,NA,NA,null,NA,NA,NA,NA,NA,NA,"<p><img src= images/blank.png width =""600"" height = ""600"" style=""position:fixed;top:50%; left:50%; transform: translate(-50%, -50%); border:5px solid black"">",NA,NA,NA,NA,NA,NA,NA,NA
NA,3640.099999997765,sequential-stimulus-presentation-old,18,85449,0.0-9.0-1.4,SS1626380840434,trial,NA,40,500,4140.099999997765,images/stimuli/spore_stims/complex_19_A_a.gif,images/stimuli/spore_stims/complex_04_A_a.gif,forced_short,220,NA,0,complex_dissimilar,images/stimuli/spore_stims/complex_04_A_a.gif,NA,NA,NA,NA,NA
NA,null,html-keyboard-response,19,86449,0.0-9.0-0.5,SS1626380840434,NA,NA,null,NA,NA,NA,NA,NA,NA,"<p><img src= images/blank.png width =""600"" height = ""600"" style=""position:fixed;top:50%; left:50%; transform: translate(-50%, -50%); border:5px solid black"">",NA,NA,NA,NA,NA,NA,NA,NA
NA,5238.099999997765,sequential-stimulus-presentation-old,20,92195,0.0-9.0-1.5,SS1626380840434,trial,NA,40,500,5738.099999997765,images/stimuli/spore_stims/complex_19_A_a.gif,images/stimuli/spore_stims/complex_04_A_a.gif,forced_short,220,NA,0,complex_dissimilar,images/stimuli/spore_stims/complex_04_A_a.gif,NA,NA,NA,NA,NA
NA,3970,survey-multi-choice,21,96172,0.0-10.0,SS1626380840434,math_question,NA,NA,NA,NA,NA,NA,NA,NA,NA,NA,NA,NA,"{""Q0"":""11""}",[0],11,NA,NA
NA,null,html-keyboard-response,22,97038,0.0-11.0-0.0,SS1626380840434,NA,NA,null,NA,NA,NA,NA,NA,NA,"<p><img src= images/blank.png width =""600"" height = ""600"" style=""position:fixed;top:50%; left:50%; transform: translate(-50%, -50%); border:5px solid black"">",NA,NA,NA,NA,NA,NA,NA,NA
NA,892.8999999985099,sequential-stimulus-presentation-old,23,98288,0.0-11.0-1.0,SS1626380840434,trial,NA,40,500,1392.8999999985099,images/stimuli/spore_stims/complex_07_A_b.gif,images/stimuli/spore_stims/complex_04_A_b.gif,forced_short,350,NA,1,complex_dissimilar,images/stimuli/spore_stims/complex_04_A_b.gif,NA,NA,NA,NA,NA
NA,null,html-keyboard-response,24,99299,0.0-11.0-0.1,SS1626380840434,NA,NA,null,NA,NA,NA,NA,NA,NA,"<p><img src= images/blank.png width =""600"" height = ""600"" style=""position:fixed;top:50%; left:50%; transform: translate(-50%, -50%); border:5px solid black"">",NA,NA,NA,NA,NA,NA,NA,NA
NA,2780.699999999255,sequential-stimulus-presentation-old,25,102584,0.0-11.0-1.1,SS1626380840434,trial,NA,40,500,3280.699999999255,images/stimuli/spore_stims/complex_07_A_b.gif,images/stimuli/spore_stims/complex_04_A_b.gif,forced_short,350,NA,1,complex_dissimilar,images/stimuli/spore_stims/complex_04_A_b.gif,NA,NA,NA,NA,NA
NA,null,html-keyboard-response,26,103506,0.0-11.0-0.2,SS1626380840434,NA,NA,null,NA,NA,NA,NA,NA,NA,"<p><img src= images/blank.png width =""600"" height = ""600"" style=""position:fixed;top:50%; left:50%; transform: translate(-50%, -50%); border:5px solid black"">",NA,NA,NA,NA,NA,NA,NA,NA
NA,2513.199999999255,sequential-stimulus-presentation-old,27,106524,0.0-11.0-1.2,SS1626380840434,trial,NA,40,500,3013.199999999255,images/stimuli/spore_stims/complex_07_A_b.gif,images/stimuli/spore_stims/complex_04_A_b.gif,forced_short,350,NA,1,complex_dissimilar,images/stimuli/spore_stims/complex_04_A_b.gif,NA,NA,NA,NA,NA
NA,null,html-keyboard-response,28,107460,0.0-11.0-0.3,SS1626380840434,NA,NA,null,NA,NA,NA,NA,NA,NA,"<p><img src= images/blank.png width =""600"" height = ""600"" style=""position:fixed;top:50%; left:50%; transform: translate(-50%, -50%); border:5px solid black"">",NA,NA,NA,NA,NA,NA,NA,NA
NA,2700.099999997765,sequential-stimulus-presentation-old,29,110665,0.0-11.0-1.3,SS1626380840434,trial,NA,40,500,3200.099999997765,images/stimuli/spore_stims/complex_07_A_b.gif,images/stimuli/spore_stims/complex_04_A_b.gif,forced_short,350,NA,1,complex_dissimilar,images/stimuli/spore_stims/complex_04_A_b.gif,NA,NA,NA,NA,NA
NA,null,html-keyboard-response,30,111509,0.0-11.0-0.4,SS1626380840434,NA,NA,null,NA,NA,NA,NA,NA,NA,"<p><img src= images/blank.png width =""600"" height = ""600"" style=""position:fixed;top:50%; left:50%; transform: translate(-50%, -50%); border:5px solid black"">",NA,NA,NA,NA,NA,NA,NA,NA
NA,1983.0999999977648,sequential-stimulus-presentation-old,31,113997,0.0-11.0-1.4,SS1626380840434,trial,NA,40,500,2483.099999997765,images/stimuli/spore_stims/complex_07_A_b.gif,images/stimuli/spore_stims/complex_04_A_b.gif,forced_short,350,NA,1,complex_dissimilar,images/stimuli/spore_stims/complex_04_A_b.gif,NA,NA,NA,NA,NA
NA,null,html-keyboard-response,32,114817,0.0-11.0-0.5,SS1626380840434,NA,NA,null,NA,NA,NA,NA,NA,NA,"<p><img src= images/blank.png width =""600"" height = ""600"" style=""position:fixed;top:50%; left:50%; transform: translate(-50%, -50%); border:5px solid black"">",NA,NA,NA,NA,NA,NA,NA,NA
NA,1322.699999999255,sequential-stimulus-presentation-old,33,116645,0.0-11.0-1.5,SS1626380840434,trial,NA,40,500,1822.699999999255,images/stimuli/spore_stims/complex_07_A_b.gif,images/stimuli/spore_stims/complex_04_A_b.gif,forced_short,350,NA,1,complex_dissimilar,images/stimuli/spore_stims/complex_04_A_b.gif,NA,NA,NA,NA,NA
NA,3286.60000000149,survey-multi-choice,34,119935,0.0-12.0,SS1626380840434,math_question,NA,NA,NA,NA,NA,NA,NA,NA,NA,NA,NA,NA,"{""Q0"":""14""}",[0],14,NA,NA
NA,null,html-keyboard-response,35,121130,0.0-13.0-0.0,SS1626380840434,NA,NA,null,NA,NA,NA,NA,NA,NA,"<p><img src= images/blank.png width =""600"" height = ""600"" style=""position:fixed;top:50%; left:50%; transform: translate(-50%, -50%); border:5px solid black"">",NA,NA,NA,NA,NA,NA,NA,NA
NA,574.2000000029802,sequential-stimulus-presentation-old,36,122331,0.0-13.0-1.0,SS1626380840434,trial,NA,40,500,1074.2000000029802,images/stimuli/spore_stims/complex_13_A_b.gif,images/stimuli/spore_stims/complex_19_A_b.gif,forced_short,620,NA,2,complex_dissimilar,images/stimuli/spore_stims/complex_19_A_b.gif,NA,NA,NA,NA,NA
NA,null,html-keyboard-response,37,123344,0.0-13.0-0.1,SS1626380840434,NA,NA,null,NA,NA,NA,NA,NA,NA,"<p><img src= images/blank.png width =""600"" height = ""600"" style=""position:fixed;top:50%; left:50%; transform: translate(-50%, -50%); border:5px solid black"">",NA,NA,NA,NA,NA,NA,NA,NA
NA,1844.5999999977648,sequential-stimulus-presentation-old,38,125694,0.0-13.0-1.1,SS1626380840434,trial,NA,40,500,2344.599999997765,images/stimuli/spore_stims/complex_13_A_b.gif,images/stimuli/spore_stims/complex_19_A_b.gif,forced_short,620,NA,2,complex_dissimilar,images/stimuli/spore_stims/complex_19_A_b.gif,NA,NA,NA,NA,NA
NA,null,html-keyboard-response,39,126664,0.0-13.0-0.2,SS1626380840434,NA,NA,null,NA,NA,NA,NA,NA,NA,"<p><img src= images/blank.png width =""600"" height = ""600"" style=""position:fixed;top:50%; left:50%; transform: translate(-50%, -50%); border:5px solid black"">",NA,NA,NA,NA,NA,NA,NA,NA
NA,4935.300000000745,sequential-stimulus-presentation-old,40,132106,0.0-13.0-1.2,SS1626380840434,trial,NA,40,500,5435.300000000745,images/stimuli/spore_stims/complex_13_A_b.gif,images/stimuli/spore_stims/complex_19_A_b.gif,forced_short,620,NA,2,complex_dissimilar,images/stimuli/spore_stims/complex_19_A_b.gif,NA,NA,NA,NA,NA
NA,null,html-keyboard-response,41,133135,0.0-13.0-0.3,SS1626380840434,NA,NA,null,NA,NA,NA,NA,NA,NA,"<p><img src= images/blank.png width =""600"" height = ""600"" style=""position:fixed;top:50%; left:50%; transform: translate(-50%, -50%); border:5px solid black"">",NA,NA,NA,NA,NA,NA,NA,NA
NA,4222.800000000745,sequential-stimulus-presentation-old,42,137864,0.0-13.0-1.3,SS1626380840434,trial,NA,40,500,4722.800000000745,images/stimuli/spore_stims/complex_13_A_b.gif,images/stimuli/spore_stims/complex_19_A_b.gif,forced_short,620,NA,2,complex_dissimilar,images/stimuli/spore_stims/complex_19_A_b.gif,NA,NA,NA,NA,NA
NA,null,html-keyboard-response,43,138944,0.0-13.0-0.4,SS1626380840434,NA,NA,null,NA,NA,NA,NA,NA,NA,"<p><img src= images/blank.png width =""600"" height = ""600"" style=""position:fixed;top:50%; left:50%; transform: translate(-50%, -50%); border:5px solid black"">",NA,NA,NA,NA,NA,NA,NA,NA
NA,1202.699999999255,sequential-stimulus-presentation-old,44,140653,0.0-13.0-1.4,SS1626380840434,trial,NA,40,500,1702.699999999255,images/stimuli/spore_stims/complex_13_A_b.gif,images/stimuli/spore_stims/complex_19_A_b.gif,forced_short,620,NA,2,complex_dissimilar,images/stimuli/spore_stims/complex_19_A_b.gif,NA,NA,NA,NA,NA
NA,null,html-keyboard-response,45,141474,0.0-13.0-0.5,SS1626380840434,NA,NA,null,NA,NA,NA,NA,NA,NA,"<p><img src= images/blank.png width =""600"" height = ""600"" style=""position:fixed;top:50%; left:50%; transform: translate(-50%, -50%); border:5px solid black"">",NA,NA,NA,NA,NA,NA,NA,NA
NA,3069.5,sequential-stimulus-presentation-old,46,145046,0.0-13.0-1.5,SS1626380840434,trial,NA,40,500,3569.5,images/stimuli/spore_stims/complex_13_A_b.gif,images/stimuli/spore_stims/complex_19_A_b.gif,forced_short,620,NA,2,complex_dissimilar,images/stimuli/spore_stims/complex_13_A_b.gif,NA,NA,NA,NA,NA
NA,2235,survey-multi-choice,47,147285,0.0-14.0,SS1626380840434,math_question,NA,NA,NA,NA,NA,NA,NA,NA,NA,NA,NA,NA,"{""Q0"":""6""}",[0],6,NA,NA
NA,null,html-keyboard-response,48,148471,0.0-15.0-0.0,SS1626380840434,NA,NA,null,NA,NA,NA,NA,NA,NA,"<p><img src= images/blank.png width =""600"" height = ""600"" style=""position:fixed;top:50%; left:50%; transform: translate(-50%, -50%); border:5px solid black"">",NA,NA,NA,NA,NA,NA,NA,NA
NA,644.8000000007451,sequential-stimulus-presentation-old,49,149452,0.0-15.0-1.0,SS1626380840434,trial,NA,40,500,1144.800000000745,images/stimuli/spore_stims/complex_10_A_b.gif,images/stimuli/spore_stims/complex_12_A_a.gif,forced_short,330,NA,3,complex_dissimilar,images/stimuli/spore_stims/complex_12_A_a.gif,NA,NA,NA,NA,NA
NA,null,html-keyboard-response,50,150430,0.0-15.0-0.1,SS1626380840434,NA,NA,null,NA,NA,NA,NA,NA,NA,"<p><img src= images/blank.png width =""600"" height = ""600"" style=""position:fixed;top:50%; left:50%; transform: translate(-50%, -50%); border:5px solid black"">",NA,NA,NA,NA,NA,NA,NA,NA
NA,2191.199999999255,sequential-stimulus-presentation-old,51,153126,0.0-15.0-1.1,SS1626380840434,trial,NA,40,500,2691.199999999255,images/stimuli/spore_stims/complex_10_A_b.gif,images/stimuli/spore_stims/complex_12_A_a.gif,forced_short,330,NA,3,complex_dissimilar,images/stimuli/spore_stims/complex_12_A_a.gif,NA,NA,NA,NA,NA
NA,null,html-keyboard-response,52,154273,0.0-15.0-0.2,SS1626380840434,NA,NA,null,NA,NA,NA,NA,NA,NA,"<p><img src= images/blank.png width =""600"" height = ""600"" style=""position:fixed;top:50%; left:50%; transform: translate(-50%, -50%); border:5px solid black"">",NA,NA,NA,NA,NA,NA,NA,NA
NA,2844.699999999255,sequential-stimulus-presentation-old,53,157624,0.0-15.0-1.2,SS1626380840434,trial,NA,40,500,3344.699999999255,images/stimuli/spore_stims/complex_10_A_b.gif,images/stimuli/spore_stims/complex_12_A_a.gif,forced_short,330,NA,3,complex_dissimilar,images/stimuli/spore_stims/complex_12_A_a.gif,NA,NA,NA,NA,NA
NA,null,html-keyboard-response,54,158555,0.0-15.0-0.3,SS1626380840434,NA,NA,null,NA,NA,NA,NA,NA,NA,"<p><img src= images/blank.png width =""600"" height = ""600"" style=""position:fixed;top:50%; left:50%; transform: translate(-50%, -50%); border:5px solid black"">",NA,NA,NA,NA,NA,NA,NA,NA
NA,1439.7999999970198,sequential-stimulus-presentation-old,55,160500,0.0-15.0-1.3,SS1626380840434,trial,NA,40,500,1939.7999999970198,images/stimuli/spore_stims/complex_10_A_b.gif,images/stimuli/spore_stims/complex_12_A_a.gif,forced_short,330,NA,3,complex_dissimilar,images/stimuli/spore_stims/complex_12_A_a.gif,NA,NA,NA,NA,NA
NA,null,html-keyboard-response,56,161347,0.0-15.0-0.4,SS1626380840434,NA,NA,null,NA,NA,NA,NA,NA,NA,"<p><img src= images/blank.png width =""600"" height = ""600"" style=""position:fixed;top:50%; left:50%; transform: translate(-50%, -50%); border:5px solid black"">",NA,NA,NA,NA,NA,NA,NA,NA
NA,1263.5,sequential-stimulus-presentation-old,57,163115,0.0-15.0-1.4,SS1626380840434,trial,NA,40,500,1763.5,images/stimuli/spore_stims/complex_10_A_b.gif,images/stimuli/spore_stims/complex_12_A_a.gif,forced_short,330,NA,3,complex_dissimilar,images/stimuli/spore_stims/complex_12_A_a.gif,NA,NA,NA,NA,NA
NA,null,html-keyboard-response,58,164120,0.0-15.0-0.5,SS1626380840434,NA,NA,null,NA,NA,NA,NA,NA,NA,"<p><img src= images/blank.png width =""600"" height = ""600"" style=""position:fixed;top:50%; left:50%; transform: translate(-50%, -50%); border:5px solid black"">",NA,NA,NA,NA,NA,NA,NA,NA
NA,2631.5,sequential-stimulus-presentation-old,59,167257,0.0-15.0-1.5,SS1626380840434,trial,NA,40,500,3131.5,images/stimuli/spore_stims/complex_10_A_b.gif,images/stimuli/spore_stims/complex_12_A_a.gif,forced_short,330,NA,3,complex_dissimilar,images/stimuli/spore_stims/complex_12_A_a.gif,NA,NA,NA,NA,NA
NA,4517.300000000745,survey-multi-choice,60,171778,0.0-16.0,SS1626380840434,math_question,NA,NA,NA,NA,NA,NA,NA,NA,NA,NA,NA,NA,"{""Q0"":""8""}",[0],8,NA,NA
NA,null,html-keyboard-response,61,172828,0.0-17.0-0.0,SS1626380840434,NA,NA,null,NA,NA,NA,NA,NA,NA,"<p><img src= images/blank.png width =""600"" height = ""600"" style=""position:fixed;top:50%; left:50%; transform: translate(-50%, -50%); border:5px solid black"">",NA,NA,NA,NA,NA,NA,NA,NA
NA,3964.60000000149,sequential-stimulus-presentation-old,62,177129,0.0-17.0-1.0,SS1626380840434,trial,NA,40,500,4464.60000000149,images/stimuli/spore_stims/complex_17_A_b.gif,images/stimuli/spore_stims/complex_02_A_a.gif,forced_short,330,NA,4,complex_dissimilar,images/stimuli/spore_stims/complex_02_A_a.gif,NA,NA,NA,NA,NA
NA,null,html-keyboard-response,63,178171,0.0-17.0-0.1,SS1626380840434,NA,NA,null,NA,NA,NA,NA,NA,NA,"<p><img src= images/blank.png width =""600"" height = ""600"" style=""position:fixed;top:50%; left:50%; transform: translate(-50%, -50%); border:5px solid black"">",NA,NA,NA,NA,NA,NA,NA,NA
NA,1084.199999999255,sequential-stimulus-presentation-old,64,179762,0.0-17.0-1.1,SS1626380840434,trial,NA,40,500,1584.199999999255,images/stimuli/spore_stims/complex_17_A_b.gif,images/stimuli/spore_stims/complex_02_A_a.gif,forced_short,330,NA,4,complex_dissimilar,images/stimuli/spore_stims/complex_02_A_a.gif,NA,NA,NA,NA,NA
NA,null,html-keyboard-response,65,180659,0.0-17.0-0.2,SS1626380840434,NA,NA,null,NA,NA,NA,NA,NA,NA,"<p><img src= images/blank.png width =""600"" height = ""600"" style=""position:fixed;top:50%; left:50%; transform: translate(-50%, -50%); border:5px solid black"">",NA,NA,NA,NA,NA,NA,NA,NA
NA,1285.199999999255,sequential-stimulus-presentation-old,66,182450,0.0-17.0-1.2,SS1626380840434,trial,NA,40,500,1785.199999999255,images/stimuli/spore_stims/complex_17_A_b.gif,images/stimuli/spore_stims/complex_02_A_a.gif,forced_short,330,NA,4,complex_dissimilar,images/stimuli/spore_stims/complex_02_A_a.gif,NA,NA,NA,NA,NA
NA,null,html-keyboard-response,67,183734,0.0-17.0-0.3,SS1626380840434,NA,NA,null,NA,NA,NA,NA,NA,NA,"<p><img src= images/blank.png width =""600"" height = ""600"" style=""position:fixed;top:50%; left:50%; transform: translate(-50%, -50%); border:5px solid black"">",NA,NA,NA,NA,NA,NA,NA,NA
NA,924.8000000007451,sequential-stimulus-presentation-old,68,185166,0.0-17.0-1.3,SS1626380840434,trial,NA,40,500,1424.800000000745,images/stimuli/spore_stims/complex_17_A_b.gif,images/stimuli/spore_stims/complex_02_A_a.gif,forced_short,330,NA,4,complex_dissimilar,images/stimuli/spore_stims/complex_02_A_a.gif,NA,NA,NA,NA,NA
NA,null,html-keyboard-response,69,186298,0.0-17.0-0.4,SS1626380840434,NA,NA,null,NA,NA,NA,NA,NA,NA,"<p><img src= images/blank.png width =""600"" height = ""600"" style=""position:fixed;top:50%; left:50%; transform: translate(-50%, -50%); border:5px solid black"">",NA,NA,NA,NA,NA,NA,NA,NA
NA,2276.2000000029802,sequential-stimulus-presentation-old,70,189080,0.0-17.0-1.4,SS1626380840434,trial,NA,40,500,2776.2000000029802,images/stimuli/spore_stims/complex_17_A_b.gif,images/stimuli/spore_stims/complex_02_A_a.gif,forced_short,330,NA,4,complex_dissimilar,images/stimuli/spore_stims/complex_02_A_a.gif,NA,NA,NA,NA,NA
NA,2554.699999999255,survey-multi-choice,71,191639,0.0-18.0,SS1626380840434,math_question,NA,NA,NA,NA,NA,NA,NA,NA,NA,NA,NA,NA,"{""Q0"":""6""}",[0],6,NA,NA
NA,null,html-keyboard-response,72,192911,0.0-19.0-0.0,SS1626380840434,NA,NA,null,NA,NA,NA,NA,NA,NA,"<p><img src= images/blank.png width =""600"" height = ""600"" style=""position:fixed;top:50%; left:50%; transform: translate(-50%, -50%); border:5px solid black"">",NA,NA,NA,NA,NA,NA,NA,NA
NA,734.6999999992549,sequential-stimulus-presentation-old,73,194410,0.0-19.0-1.0,SS1626380840434,trial,NA,40,500,1234.699999999255,images/stimuli/spore_stims/complex_22_A_a.gif,images/stimuli/spore_stims/complex_21_A_b.gif,forced_short,760,NA,5,complex_dissimilar,images/stimuli/spore_stims/complex_21_A_b.gif,NA,NA,NA,NA,NA
NA,null,html-keyboard-response,74,195232,0.0-19.0-0.1,SS1626380840434,NA,NA,null,NA,NA,NA,NA,NA,NA,"<p><img src= images/blank.png width =""600"" height = ""600"" style=""position:fixed;top:50%; left:50%; transform: translate(-50%, -50%); border:5px solid black"">",NA,NA,NA,NA,NA,NA,NA,NA
NA,1516,sequential-stimulus-presentation-old,75,197254,0.0-19.0-1.1,SS1626380840434,trial,NA,40,500,2016,images/stimuli/spore_stims/complex_22_A_a.gif,images/stimuli/spore_stims/complex_21_A_b.gif,forced_short,760,NA,5,complex_dissimilar,images/stimuli/spore_stims/complex_21_A_b.gif,NA,NA,NA,NA,NA
NA,null,html-keyboard-response,76,198251,0.0-19.0-0.2,SS1626380840434,NA,NA,null,NA,NA,NA,NA,NA,NA,"<p><img src= images/blank.png width =""600"" height = ""600"" style=""position:fixed;top:50%; left:50%; transform: translate(-50%, -50%); border:5px solid black"">",NA,NA,NA,NA,NA,NA,NA,NA
NA,1141.4000000022352,sequential-stimulus-presentation-old,77,199898,0.0-19.0-1.2,SS1626380840434,trial,NA,40,500,1641.4000000022352,images/stimuli/spore_stims/complex_22_A_a.gif,images/stimuli/spore_stims/complex_21_A_b.gif,forced_short,760,NA,5,complex_dissimilar,images/stimuli/spore_stims/complex_22_A_a.gif,NA,NA,NA,NA,NA
NA,null,html-keyboard-response,78,201176,0.0-19.0-0.3,SS1626380840434,NA,NA,null,NA,NA,NA,NA,NA,NA,"<p><img src= images/blank.png width =""600"" height = ""600"" style=""position:fixed;top:50%; left:50%; transform: translate(-50%, -50%); border:5px solid black"">",NA,NA,NA,NA,NA,NA,NA,NA
NA,2942.699999999255,sequential-stimulus-presentation-old,79,204625,0.0-19.0-1.3,SS1626380840434,trial,NA,40,500,3442.699999999255,images/stimuli/spore_stims/complex_22_A_a.gif,images/stimuli/spore_stims/complex_21_A_b.gif,forced_short,760,NA,5,complex_dissimilar,images/stimuli/spore_stims/complex_21_A_b.gif,NA,NA,NA,NA,NA
NA,null,html-keyboard-response,80,205743,0.0-19.0-0.4,SS1626380840434,NA,NA,null,NA,NA,NA,NA,NA,NA,"<p><img src= images/blank.png width =""600"" height = ""600"" style=""position:fixed;top:50%; left:50%; transform: translate(-50%, -50%); border:5px solid black"">",NA,NA,NA,NA,NA,NA,NA,NA
NA,2821.60000000149,sequential-stimulus-presentation-old,81,209075,0.0-19.0-1.4,SS1626380840434,trial,NA,40,500,3321.60000000149,images/stimuli/spore_stims/complex_22_A_a.gif,images/stimuli/spore_stims/complex_21_A_b.gif,forced_short,760,NA,5,complex_dissimilar,images/stimuli/spore_stims/complex_22_A_a.gif,NA,NA,NA,NA,NA
"[{""page_index"":0,""viewing_time"":4834}]",4834.300000000745,instructions,82,213912,0.0-20.0,SS1626380840434,instructions,NA,NA,NA,NA,NA,NA,NA,NA,NA,NA,NA,NA,NA,NA,NA,NA,NA
NA,7972.79999999702,survey-likert,83,221888,0.0-21.0,SS1626380840434,similarity_question,NA,NA,NA,NA,NA,NA,NA,NA,NA,NA,NA,NA,"{""Q0"":2}",[0],NA,images/stimuli/spore_stims/complex_22_A_a.gif,images/stimuli/spore_stims/complex_21_A_b.gif
NA,2153.099999997765,survey-likert,84,224044,0.0-22.0,SS1626380840434,similarity_question,NA,NA,NA,NA,NA,NA,NA,NA,NA,NA,NA,NA,"{""Q0"":4}",[0],NA,images/stimuli/spore_stims/complex_19_A_a.gif,images/stimuli/spore_stims/complex_04_A_a.gif
NA,3780.300000000745,survey-likert,85,227826,0.0-23.0,SS1626380840434,similarity_question,NA,NA,NA,NA,NA,NA,NA,NA,NA,NA,NA,NA,"{""Q0"":1}",[0],NA,images/stimuli/spore_stims/complex_13_A_b.gif,images/stimuli/spore_stims/complex_19_A_b.gif
NA,3144.300000000745,survey-likert,86,230974,0.0-24.0,SS1626380840434,similarity_question,NA,NA,NA,NA,NA,NA,NA,NA,NA,NA,NA,NA,"{""Q0"":3}",[0],NA,images/stimuli/spore_stims/complex_04_A_b.gif,images/stimuli/spore_stims/complex_07_A_b.gif
NA,3641.10000000149,survey-likert,87,234617,0.0-25.0,SS1626380840434,similarity_question,NA,NA,NA,NA,NA,NA,NA,NA,NA,NA,NA,NA,"{""Q0"":0}",[0],NA,images/stimuli/spore_stims/complex_17_A_b.gif,images/stimuli/spore_stims/complex_02_A_a.gif
NA,2648.199999999255,survey-likert,88,237268,0.0-26.0,SS1626380840434,similarity_question,NA,NA,NA,NA,NA,NA,NA,NA,NA,NA,NA,NA,"{""Q0"":0}",[0],NA,images/stimuli/spore_stims/complex_12_A_a.gif,images/stimuli/spore_stims/complex_10_A_b.gif
"[{""page_index"":0,""viewing_time"":5137.5}]",5137.900000002235,instructions,89,242408,0.0-27.0,SS1626380840434,instructions,NA,NA,NA,NA,NA,NA,NA,NA,NA,NA,NA,NA,NA,NA,NA,NA,NA
NA,3928,survey-likert,90,246339,0.0-28.0,SS1626380840434,NA,NA,NA,NA,NA,NA,NA,NA,NA,images/stimuli/spore_stims/complex_02_A_a.gif,NA,NA,NA,"{""Q0"":1}",[0],NA,NA,NA
NA,2024.199999999255,survey-likert,91,248366,0.0-29.0,SS1626380840434,NA,NA,NA,NA,NA,NA,NA,NA,NA,images/stimuli/spore_stims/complex_19_A_b.gif,NA,NA,NA,"{""Q0"":4}",[0],NA,NA,NA
NA,2120.7000000029802,survey-likert,92,250489,0.0-30.0,SS1626380840434,NA,NA,NA,NA,NA,NA,NA,NA,NA,images/stimuli/spore_stims/complex_12_A_a.gif,NA,NA,NA,"{""Q0"":5}",[0],NA,NA,NA
NA,2760.10000000149,survey-likert,93,253252,0.0-31.0,SS1626380840434,NA,NA,NA,NA,NA,NA,NA,NA,NA,images/stimuli/spore_stims/complex_19_A_a.gif,NA,NA,NA,"{""Q0"":2}",[0],NA,NA,NA
NA,1771.4000000022352,survey-likert,94,255026,0.0-32.0,SS1626380840434,NA,NA,NA,NA,NA,NA,NA,NA,NA,images/stimuli/spore_stims/complex_04_A_b.gif,NA,NA,NA,"{""Q0"":0}",[0],NA,NA,NA
NA,3509.900000002235,survey-likert,95,258539,0.0-33.0,SS1626380840434,NA,NA,NA,NA,NA,NA,NA,NA,NA,images/stimuli/spore_stims/complex_22_A_a.gif,NA,NA,NA,"{""Q0"":1}",[0],NA,NA,NA
"[{""page_index"":0,""viewing_time"":2500.60000000149}]",2500.800000000745,instructions,96,261043,0.0-34.0,SS1626380840434,instructions,NA,NA,NA,NA,NA,NA,NA,NA,NA,NA,NA,NA,NA,NA,NA,NA,NA
NA,4458.099999997765,demog-age,97,265506,0.0-35.0,SS1626380840434,NA,NA,NA,NA,NA,NA,NA,NA,NA,NA,NA,NA,NA,"{""age"":""20""}",NA,NA,NA,NA
NA,10217.60000000149,demog-ethnic-US,98,275729,0.0-36.0,SS1626380840434,NA,NA,NA,NA,NA,NA,NA,NA,NA,NA,NA,NA,NA,"{""ethnicity"":[""White""]}",[0],NA,NA,NA
NA,9253.300000000745,demog-gender-and-education,99,284986,0.0-37.0,SS1626380840434,NA,NA,NA,NA,NA,NA,NA,NA,NA,NA,NA,NA,NA,"{""gender"":""Male"",""education"":""Bachelor's Degree""}","[0,1]",NA,NA,NA
NA,6041.20000000298,survey-text,100,291032,0.0-38.0,SS1626380840434,feedback,NA,NA,NA,NA,NA,NA,NA,NA,NA,NA,NA,NA,"{""Q0"":""nop""}",NA,NA,NA,NA
"[{""page_index"":0,""viewing_time"":1668.300000000745}]",1668.5999999977648,instructions,101,292702,0.0-39.0,SS1626380840434,instructions,NA,NA,NA,NA,NA,NA,NA,NA,NA,NA,NA,NA,NA,NA,NA,NA,NA
"[{""page_index"":0,""viewing_time"":13144}]",13144,instructions,0,13145,0.0-0.0,SS1626381126553,NA,NA,NA,NA,NA,NA,NA,NA,NA,NA,NA,NA,NA,NA,NA,NA,NA,NA
"[{""page_index"":0,""viewing_time"":18081},{""page_index"":1,""viewing_time"":22804}]",40885,instructions,1,56038,0.0-1.0,SS1626381126553,instructions,NA,NA,NA,NA,NA,NA,NA,NA,NA,NA,NA,NA,NA,NA,NA,NA,NA
NA,8163,sequential-stimulus-presentation-old,2,64717,0.0-2.0,SS1626381126553,NA,NA,40,500,8663,null,null,self_paced,0,NA,NA,NA,NA,NA,NA,NA,NA,NA
NA,8547,sequential-stimulus-presentation-old,3,73774,0.0-3.0,SS1626381126553,NA,NA,40,500,9047,null,null,self_paced,0,NA,NA,NA,NA,NA,NA,NA,NA,NA
"[{""page_index"":0,""viewing_time"":18549}]",18549,instructions,4,92325,0.0-4.0,SS1626381126553,instructions,NA,NA,NA,NA,NA,NA,NA,NA,NA,NA,NA,NA,NA,NA,NA,NA,NA
NA,4563,sequential-stimulus-presentation-old,5,97398,0.0-5.0,SS1626381126553,NA,NA,40,500,5063,null,null,forced_short,500,NA,NA,NA,NA,NA,NA,NA,NA,NA
NA,672,sequential-stimulus-presentation-old,6,98582,0.0-6.0,SS1626381126553,NA,NA,40,500,1172,null,null,forced_short,500,NA,NA,NA,NA,NA,NA,NA,NA,NA
"[{""page_index"":0,""viewing_time"":66450}]",66450,instructions,7,165033,0.0-7.0,SS1626381126553,instructions,NA,NA,NA,NA,NA,NA,NA,NA,NA,NA,NA,NA,NA,NA,NA,NA,NA
"[{""page_index"":0,""viewing_time"":34381},{""page_index"":1,""viewing_time"":14127},{""page_index"":2,""viewing_time"":24521},{""page_index"":3,""viewing_time"":1487},{""page_index"":4,""viewing_time"":1384}]",75900,instructions,8,240934,0.0-8.0,SS1626381126553,instructions,NA,NA,NA,NA,NA,NA,NA,NA,NA,NA,NA,NA,NA,NA,NA,NA,NA
NA,null,html-keyboard-response,9,242011,0.0-9.0-0.0,SS1626381126553,NA,NA,null,NA,NA,NA,NA,NA,NA,"<p><img src= images/blank.png width =""600"" height = ""600"" style=""position:fixed;top:50%; left:50%; transform: translate(-50%, -50%); border:5px solid black"">",NA,NA,NA,NA,NA,NA,NA,NA
NA,3307,sequential-stimulus-presentation-old,10,245530,0.0-9.0-1.0,SS1626381126553,trial,NA,40,500,3807,images/stimuli/spore_stims/complex_05_A_b.gif,images/stimuli/spore_stims/complex_12_A_a.gif,forced_short,200,NA,0,complex_dissimilar,images/stimuli/spore_stims/complex_12_A_a.gif,NA,NA,NA,NA,NA
NA,null,html-keyboard-response,11,246759,0.0-9.0-0.1,SS1626381126553,NA,NA,null,NA,NA,NA,NA,NA,NA,"<p><img src= images/blank.png width =""600"" height = ""600"" style=""position:fixed;top:50%; left:50%; transform: translate(-50%, -50%); border:5px solid black"">",NA,NA,NA,NA,NA,NA,NA,NA
NA,3120,sequential-stimulus-presentation-old,12,250393,0.0-9.0-1.1,SS1626381126553,trial,NA,40,500,3620,images/stimuli/spore_stims/complex_05_A_b.gif,images/stimuli/spore_stims/complex_12_A_a.gif,forced_short,200,NA,0,complex_dissimilar,images/stimuli/spore_stims/complex_12_A_a.gif,NA,NA,NA,NA,NA
NA,null,html-keyboard-response,13,251243,0.0-9.0-0.2,SS1626381126553,NA,NA,null,NA,NA,NA,NA,NA,NA,"<p><img src= images/blank.png width =""600"" height = ""600"" style=""position:fixed;top:50%; left:50%; transform: translate(-50%, -50%); border:5px solid black"">",NA,NA,NA,NA,NA,NA,NA,NA
NA,8686,sequential-stimulus-presentation-old,14,260442,0.0-9.0-1.2,SS1626381126553,trial,NA,40,500,9186,images/stimuli/spore_stims/complex_05_A_b.gif,images/stimuli/spore_stims/complex_12_A_a.gif,forced_short,200,NA,0,complex_dissimilar,images/stimuli/spore_stims/complex_12_A_a.gif,NA,NA,NA,NA,NA
NA,null,html-keyboard-response,15,261641,0.0-9.0-0.3,SS1626381126553,NA,NA,null,NA,NA,NA,NA,NA,NA,"<p><img src= images/blank.png width =""600"" height = ""600"" style=""position:fixed;top:50%; left:50%; transform: translate(-50%, -50%); border:5px solid black"">",NA,NA,NA,NA,NA,NA,NA,NA
NA,3463,sequential-stimulus-presentation-old,16,265618,0.0-9.0-1.3,SS1626381126553,trial,NA,40,500,3963,images/stimuli/spore_stims/complex_05_A_b.gif,images/stimuli/spore_stims/complex_12_A_a.gif,forced_short,200,NA,0,complex_dissimilar,images/stimuli/spore_stims/complex_05_A_b.gif,NA,NA,NA,NA,NA
NA,null,html-keyboard-response,17,266544,0.0-9.0-0.4,SS1626381126553,NA,NA,null,NA,NA,NA,NA,NA,NA,"<p><img src= images/blank.png width =""600"" height = ""600"" style=""position:fixed;top:50%; left:50%; transform: translate(-50%, -50%); border:5px solid black"">",NA,NA,NA,NA,NA,NA,NA,NA
NA,2993,sequential-stimulus-presentation-old,18,270050,0.0-9.0-1.4,SS1626381126553,trial,NA,40,500,3493,images/stimuli/spore_stims/complex_05_A_b.gif,images/stimuli/spore_stims/complex_12_A_a.gif,forced_short,200,NA,0,complex_dissimilar,images/stimuli/spore_stims/complex_05_A_b.gif,NA,NA,NA,NA,NA
NA,5992,survey-multi-choice,19,276043,0.0-10.0,SS1626381126553,math_question,NA,NA,NA,NA,NA,NA,NA,NA,NA,NA,NA,NA,"{""Q0"":""13""}",[0],13,NA,NA
NA,null,html-keyboard-response,20,277327,0.0-11.0-0.0,SS1626381126553,NA,NA,null,NA,NA,NA,NA,NA,NA,"<p><img src= images/blank.png width =""600"" height = ""600"" style=""position:fixed;top:50%; left:50%; transform: translate(-50%, -50%); border:5px solid black"">",NA,NA,NA,NA,NA,NA,NA,NA
NA,3485,sequential-stimulus-presentation-old,21,281299,0.0-11.0-1.0,SS1626381126553,trial,NA,40,500,3985,images/stimuli/spore_stims/complex_19_A_a.gif,images/stimuli/spore_stims/complex_01_A_a.gif,forced_short,470,NA,1,complex_dissimilar,images/stimuli/spore_stims/complex_01_A_a.gif,NA,NA,NA,NA,NA
NA,null,html-keyboard-response,22,282363,0.0-11.0-0.1,SS1626381126553,NA,NA,null,NA,NA,NA,NA,NA,NA,"<p><img src= images/blank.png width =""600"" height = ""600"" style=""position:fixed;top:50%; left:50%; transform: translate(-50%, -50%); border:5px solid black"">",NA,NA,NA,NA,NA,NA,NA,NA
NA,4057,sequential-stimulus-presentation-old,23,286931,0.0-11.0-1.1,SS1626381126553,trial,NA,40,500,4557,images/stimuli/spore_stims/complex_19_A_a.gif,images/stimuli/spore_stims/complex_01_A_a.gif,forced_short,470,NA,1,complex_dissimilar,images/stimuli/spore_stims/complex_01_A_a.gif,NA,NA,NA,NA,NA
NA,null,html-keyboard-response,24,288074,0.0-11.0-0.2,SS1626381126553,NA,NA,null,NA,NA,NA,NA,NA,NA,"<p><img src= images/blank.png width =""600"" height = ""600"" style=""position:fixed;top:50%; left:50%; transform: translate(-50%, -50%); border:5px solid black"">",NA,NA,NA,NA,NA,NA,NA,NA
NA,8992,sequential-stimulus-presentation-old,25,297579,0.0-11.0-1.2,SS1626381126553,trial,NA,40,500,9492,images/stimuli/spore_stims/complex_19_A_a.gif,images/stimuli/spore_stims/complex_01_A_a.gif,forced_short,470,NA,1,complex_dissimilar,images/stimuli/spore_stims/complex_01_A_a.gif,NA,NA,NA,NA,NA
NA,null,html-keyboard-response,26,298792,0.0-11.0-0.3,SS1626381126553,NA,NA,null,NA,NA,NA,NA,NA,NA,"<p><img src= images/blank.png width =""600"" height = ""600"" style=""position:fixed;top:50%; left:50%; transform: translate(-50%, -50%); border:5px solid black"">",NA,NA,NA,NA,NA,NA,NA,NA
NA,1962,sequential-stimulus-presentation-old,27,301267,0.0-11.0-1.3,SS1626381126553,trial,NA,40,500,2462,images/stimuli/spore_stims/complex_19_A_a.gif,images/stimuli/spore_stims/complex_01_A_a.gif,forced_short,470,NA,1,complex_dissimilar,images/stimuli/spore_stims/complex_01_A_a.gif,NA,NA,NA,NA,NA
NA,null,html-keyboard-response,28,302320,0.0-11.0-0.4,SS1626381126553,NA,NA,null,NA,NA,NA,NA,NA,NA,"<p><img src= images/blank.png width =""600"" height = ""600"" style=""position:fixed;top:50%; left:50%; transform: translate(-50%, -50%); border:5px solid black"">",NA,NA,NA,NA,NA,NA,NA,NA
NA,2225,sequential-stimulus-presentation-old,29,305059,0.0-11.0-1.4,SS1626381126553,trial,NA,40,500,2725,images/stimuli/spore_stims/complex_19_A_a.gif,images/stimuli/spore_stims/complex_01_A_a.gif,forced_short,470,NA,1,complex_dissimilar,images/stimuli/spore_stims/complex_01_A_a.gif,NA,NA,NA,NA,NA
NA,3567,survey-multi-choice,30,308627,0.0-12.0,SS1626381126553,math_question,NA,NA,NA,NA,NA,NA,NA,NA,NA,NA,NA,NA,"{""Q0"":""10""}",[0],10,NA,NA
NA,null,html-keyboard-response,31,309624,0.0-13.0-0.0,SS1626381126553,NA,NA,null,NA,NA,NA,NA,NA,NA,"<p><img src= images/blank.png width =""600"" height = ""600"" style=""position:fixed;top:50%; left:50%; transform: translate(-50%, -50%); border:5px solid black"">",NA,NA,NA,NA,NA,NA,NA,NA
NA,1002,sequential-stimulus-presentation-old,32,311620,0.0-13.0-1.0,SS1626381126553,trial,NA,40,500,1502,images/stimuli/spore_stims/complex_17_A_b.gif,images/stimuli/spore_stims/complex_13_A_b.gif,forced_short,990,NA,2,complex_dissimilar,images/stimuli/spore_stims/complex_13_A_b.gif,NA,NA,NA,NA,NA
NA,null,html-keyboard-response,33,312669,0.0-13.0-0.1,SS1626381126553,NA,NA,null,NA,NA,NA,NA,NA,NA,"<p><img src= images/blank.png width =""600"" height = ""600"" style=""position:fixed;top:50%; left:50%; transform: translate(-50%, -50%); border:5px solid black"">",NA,NA,NA,NA,NA,NA,NA,NA
NA,5540,sequential-stimulus-presentation-old,34,318723,0.0-13.0-1.1,SS1626381126553,trial,NA,40,500,6040,images/stimuli/spore_stims/complex_17_A_b.gif,images/stimuli/spore_stims/complex_13_A_b.gif,forced_short,990,NA,2,complex_dissimilar,images/stimuli/spore_stims/complex_13_A_b.gif,NA,NA,NA,NA,NA
NA,null,html-keyboard-response,35,319954,0.0-13.0-0.2,SS1626381126553,NA,NA,null,NA,NA,NA,NA,NA,NA,"<p><img src= images/blank.png width =""600"" height = ""600"" style=""position:fixed;top:50%; left:50%; transform: translate(-50%, -50%); border:5px solid black"">",NA,NA,NA,NA,NA,NA,NA,NA
NA,4754,sequential-stimulus-presentation-old,36,325219,0.0-13.0-1.2,SS1626381126553,trial,NA,40,500,5254,images/stimuli/spore_stims/complex_17_A_b.gif,images/stimuli/spore_stims/complex_13_A_b.gif,forced_short,990,NA,2,complex_dissimilar,images/stimuli/spore_stims/complex_17_A_b.gif,NA,NA,NA,NA,NA
NA,null,html-keyboard-response,37,326069,0.0-13.0-0.3,SS1626381126553,NA,NA,null,NA,NA,NA,NA,NA,NA,"<p><img src= images/blank.png width =""600"" height = ""600"" style=""position:fixed;top:50%; left:50%; transform: translate(-50%, -50%); border:5px solid black"">",NA,NA,NA,NA,NA,NA,NA,NA
NA,3033,sequential-stimulus-presentation-old,38,329604,0.0-13.0-1.3,SS1626381126553,trial,NA,40,500,3533,images/stimuli/spore_stims/complex_17_A_b.gif,images/stimuli/spore_stims/complex_13_A_b.gif,forced_short,990,NA,2,complex_dissimilar,images/stimuli/spore_stims/complex_13_A_b.gif,NA,NA,NA,NA,NA
NA,2411,survey-multi-choice,39,332015,0.0-14.0,SS1626381126553,math_question,NA,NA,NA,NA,NA,NA,NA,NA,NA,NA,NA,NA,"{""Q0"":""7""}",[0],7,NA,NA
NA,null,html-keyboard-response,40,333301,0.0-15.0-0.0,SS1626381126553,NA,NA,null,NA,NA,NA,NA,NA,NA,"<p><img src= images/blank.png width =""600"" height = ""600"" style=""position:fixed;top:50%; left:50%; transform: translate(-50%, -50%); border:5px solid black"">",NA,NA,NA,NA,NA,NA,NA,NA
NA,986,sequential-stimulus-presentation-old,41,334660,0.0-15.0-1.0,SS1626381126553,trial,NA,40,500,1486,images/stimuli/spore_stims/complex_08_A_b.gif,images/stimuli/spore_stims/complex_23_A_b.gif,forced_short,370,NA,3,complex_dissimilar,images/stimuli/spore_stims/complex_23_A_b.gif,NA,NA,NA,NA,NA
NA,null,html-keyboard-response,42,335934,0.0-15.0-0.1,SS1626381126553,NA,NA,null,NA,NA,NA,NA,NA,NA,"<p><img src= images/blank.png width =""600"" height = ""600"" style=""position:fixed;top:50%; left:50%; transform: translate(-50%, -50%); border:5px solid black"">",NA,NA,NA,NA,NA,NA,NA,NA
NA,9874,sequential-stimulus-presentation-old,43,346316,0.0-15.0-1.1,SS1626381126553,trial,NA,40,500,10374,images/stimuli/spore_stims/complex_08_A_b.gif,images/stimuli/spore_stims/complex_23_A_b.gif,forced_short,370,NA,3,complex_dissimilar,images/stimuli/spore_stims/complex_23_A_b.gif,NA,NA,NA,NA,NA
NA,null,html-keyboard-response,44,347578,0.0-15.0-0.2,SS1626381126553,NA,NA,null,NA,NA,NA,NA,NA,NA,"<p><img src= images/blank.png width =""600"" height = ""600"" style=""position:fixed;top:50%; left:50%; transform: translate(-50%, -50%); border:5px solid black"">",NA,NA,NA,NA,NA,NA,NA,NA
NA,3599,sequential-stimulus-presentation-old,45,351693,0.0-15.0-1.2,SS1626381126553,trial,NA,40,500,4099,images/stimuli/spore_stims/complex_08_A_b.gif,images/stimuli/spore_stims/complex_23_A_b.gif,forced_short,370,NA,3,complex_dissimilar,images/stimuli/spore_stims/complex_23_A_b.gif,NA,NA,NA,NA,NA
NA,null,html-keyboard-response,46,352752,0.0-15.0-0.3,SS1626381126553,NA,NA,null,NA,NA,NA,NA,NA,NA,"<p><img src= images/blank.png width =""600"" height = ""600"" style=""position:fixed;top:50%; left:50%; transform: translate(-50%, -50%); border:5px solid black"">",NA,NA,NA,NA,NA,NA,NA,NA
NA,12304,sequential-stimulus-presentation-old,47,365573,0.0-15.0-1.3,SS1626381126553,trial,NA,40,500,12804,images/stimuli/spore_stims/complex_08_A_b.gif,images/stimuli/spore_stims/complex_23_A_b.gif,forced_short,370,NA,3,complex_dissimilar,images/stimuli/spore_stims/complex_23_A_b.gif,NA,NA,NA,NA,NA
NA,null,html-keyboard-response,48,366875,0.0-15.0-0.4,SS1626381126553,NA,NA,null,NA,NA,NA,NA,NA,NA,"<p><img src= images/blank.png width =""600"" height = ""600"" style=""position:fixed;top:50%; left:50%; transform: translate(-50%, -50%); border:5px solid black"">",NA,NA,NA,NA,NA,NA,NA,NA
NA,1281,sequential-stimulus-presentation-old,49,368669,0.0-15.0-1.4,SS1626381126553,trial,NA,40,500,1781,images/stimuli/spore_stims/complex_08_A_b.gif,images/stimuli/spore_stims/complex_23_A_b.gif,forced_short,370,NA,3,complex_dissimilar,images/stimuli/spore_stims/complex_23_A_b.gif,NA,NA,NA,NA,NA
NA,null,html-keyboard-response,50,369485,0.0-15.0-0.5,SS1626381126553,NA,NA,null,NA,NA,NA,NA,NA,NA,"<p><img src= images/blank.png width =""600"" height = ""600"" style=""position:fixed;top:50%; left:50%; transform: translate(-50%, -50%); border:5px solid black"">",NA,NA,NA,NA,NA,NA,NA,NA
NA,6452,sequential-stimulus-presentation-old,51,376445,0.0-15.0-1.5,SS1626381126553,trial,NA,40,500,6952,images/stimuli/spore_stims/complex_08_A_b.gif,images/stimuli/spore_stims/complex_23_A_b.gif,forced_short,370,NA,3,complex_dissimilar,images/stimuli/spore_stims/complex_08_A_b.gif,NA,NA,NA,NA,NA
NA,2468,survey-multi-choice,52,378915,0.0-16.0,SS1626381126553,math_question,NA,NA,NA,NA,NA,NA,NA,NA,NA,NA,NA,NA,"{""Q0"":""16""}",[0],16,NA,NA
NA,null,html-keyboard-response,53,379769,0.0-17.0-0.0,SS1626381126553,NA,NA,null,NA,NA,NA,NA,NA,NA,"<p><img src= images/blank.png width =""600"" height = ""600"" style=""position:fixed;top:50%; left:50%; transform: translate(-50%, -50%); border:5px solid black"">",NA,NA,NA,NA,NA,NA,NA,NA
NA,1946,sequential-stimulus-presentation-old,54,381917,0.0-17.0-1.0,SS1626381126553,trial,NA,40,500,2446,images/stimuli/spore_stims/complex_07_A_b.gif,images/stimuli/spore_stims/complex_05_A_a.gif,forced_short,190,NA,4,complex_dissimilar,images/stimuli/spore_stims/complex_05_A_a.gif,NA,NA,NA,NA,NA
NA,null,html-keyboard-response,55,383220,0.0-17.0-0.1,SS1626381126553,NA,NA,null,NA,NA,NA,NA,NA,NA,"<p><img src= images/blank.png width =""600"" height = ""600"" style=""position:fixed;top:50%; left:50%; transform: translate(-50%, -50%); border:5px solid black"">",NA,NA,NA,NA,NA,NA,NA,NA
NA,1770,sequential-stimulus-presentation-old,56,385501,0.0-17.0-1.1,SS1626381126553,trial,NA,40,500,2270,images/stimuli/spore_stims/complex_07_A_b.gif,images/stimuli/spore_stims/complex_05_A_a.gif,forced_short,190,NA,4,complex_dissimilar,images/stimuli/spore_stims/complex_05_A_a.gif,NA,NA,NA,NA,NA
NA,null,html-keyboard-response,57,386558,0.0-17.0-0.2,SS1626381126553,NA,NA,null,NA,NA,NA,NA,NA,NA,"<p><img src= images/blank.png width =""600"" height = ""600"" style=""position:fixed;top:50%; left:50%; transform: translate(-50%, -50%); border:5px solid black"">",NA,NA,NA,NA,NA,NA,NA,NA
NA,3442,sequential-stimulus-presentation-old,58,390518,0.0-17.0-1.2,SS1626381126553,trial,NA,40,500,3942,images/stimuli/spore_stims/complex_07_A_b.gif,images/stimuli/spore_stims/complex_05_A_a.gif,forced_short,190,NA,4,complex_dissimilar,images/stimuli/spore_stims/complex_05_A_a.gif,NA,NA,NA,NA,NA
NA,null,html-keyboard-response,59,391753,0.0-17.0-0.3,SS1626381126553,NA,NA,null,NA,NA,NA,NA,NA,NA,"<p><img src= images/blank.png width =""600"" height = ""600"" style=""position:fixed;top:50%; left:50%; transform: translate(-50%, -50%); border:5px solid black"">",NA,NA,NA,NA,NA,NA,NA,NA
NA,681,sequential-stimulus-presentation-old,60,392950,0.0-17.0-1.3,SS1626381126553,trial,NA,40,500,1181,images/stimuli/spore_stims/complex_07_A_b.gif,images/stimuli/spore_stims/complex_05_A_a.gif,forced_short,190,NA,4,complex_dissimilar,images/stimuli/spore_stims/complex_05_A_a.gif,NA,NA,NA,NA,NA
NA,null,html-keyboard-response,61,393870,0.0-17.0-0.4,SS1626381126553,NA,NA,null,NA,NA,NA,NA,NA,NA,"<p><img src= images/blank.png width =""600"" height = ""600"" style=""position:fixed;top:50%; left:50%; transform: translate(-50%, -50%); border:5px solid black"">",NA,NA,NA,NA,NA,NA,NA,NA
NA,3160,sequential-stimulus-presentation-old,62,397542,0.0-17.0-1.4,SS1626381126553,trial,NA,40,500,3660,images/stimuli/spore_stims/complex_07_A_b.gif,images/stimuli/spore_stims/complex_05_A_a.gif,forced_short,190,NA,4,complex_dissimilar,images/stimuli/spore_stims/complex_05_A_a.gif,NA,NA,NA,NA,NA
NA,2400,survey-multi-choice,63,399943,0.0-18.0,SS1626381126553,math_question,NA,NA,NA,NA,NA,NA,NA,NA,NA,NA,NA,NA,"{""Q0"":""11""}",[0],11,NA,NA
NA,null,html-keyboard-response,64,400913,0.0-19.0-0.0,SS1626381126553,NA,NA,null,NA,NA,NA,NA,NA,NA,"<p><img src= images/blank.png width =""600"" height = ""600"" style=""position:fixed;top:50%; left:50%; transform: translate(-50%, -50%); border:5px solid black"">",NA,NA,NA,NA,NA,NA,NA,NA
NA,807,sequential-stimulus-presentation-old,65,402454,0.0-19.0-1.0,SS1626381126553,trial,NA,40,500,1307,images/stimuli/spore_stims/complex_15_A_b.gif,images/stimuli/spore_stims/complex_22_A_b.gif,forced_short,730,NA,5,complex_dissimilar,images/stimuli/spore_stims/complex_22_A_b.gif,NA,NA,NA,NA,NA
NA,null,html-keyboard-response,66,403391,0.0-19.0-0.1,SS1626381126553,NA,NA,null,NA,NA,NA,NA,NA,NA,"<p><img src= images/blank.png width =""600"" height = ""600"" style=""position:fixed;top:50%; left:50%; transform: translate(-50%, -50%); border:5px solid black"">",NA,NA,NA,NA,NA,NA,NA,NA
NA,7053,sequential-stimulus-presentation-old,67,410958,0.0-19.0-1.1,SS1626381126553,trial,NA,40,500,7553,images/stimuli/spore_stims/complex_15_A_b.gif,images/stimuli/spore_stims/complex_22_A_b.gif,forced_short,730,NA,5,complex_dissimilar,images/stimuli/spore_stims/complex_22_A_b.gif,NA,NA,NA,NA,NA
NA,null,html-keyboard-response,68,412182,0.0-19.0-0.2,SS1626381126553,NA,NA,null,NA,NA,NA,NA,NA,NA,"<p><img src= images/blank.png width =""600"" height = ""600"" style=""position:fixed;top:50%; left:50%; transform: translate(-50%, -50%); border:5px solid black"">",NA,NA,NA,NA,NA,NA,NA,NA
NA,2231,sequential-stimulus-presentation-old,69,414926,0.0-19.0-1.2,SS1626381126553,trial,NA,40,500,2731,images/stimuli/spore_stims/complex_15_A_b.gif,images/stimuli/spore_stims/complex_22_A_b.gif,forced_short,730,NA,5,complex_dissimilar,images/stimuli/spore_stims/complex_22_A_b.gif,NA,NA,NA,NA,NA
NA,null,html-keyboard-response,70,415879,0.0-19.0-0.3,SS1626381126553,NA,NA,null,NA,NA,NA,NA,NA,NA,"<p><img src= images/blank.png width =""600"" height = ""600"" style=""position:fixed;top:50%; left:50%; transform: translate(-50%, -50%); border:5px solid black"">",NA,NA,NA,NA,NA,NA,NA,NA
NA,3241,sequential-stimulus-presentation-old,71,419622,0.0-19.0-1.3,SS1626381126553,trial,NA,40,500,3741,images/stimuli/spore_stims/complex_15_A_b.gif,images/stimuli/spore_stims/complex_22_A_b.gif,forced_short,730,NA,5,complex_dissimilar,images/stimuli/spore_stims/complex_22_A_b.gif,NA,NA,NA,NA,NA
NA,null,html-keyboard-response,72,420747,0.0-19.0-0.4,SS1626381126553,NA,NA,null,NA,NA,NA,NA,NA,NA,"<p><img src= images/blank.png width =""600"" height = ""600"" style=""position:fixed;top:50%; left:50%; transform: translate(-50%, -50%); border:5px solid black"">",NA,NA,NA,NA,NA,NA,NA,NA
NA,3116,sequential-stimulus-presentation-old,73,424374,0.0-19.0-1.4,SS1626381126553,trial,NA,40,500,3616,images/stimuli/spore_stims/complex_15_A_b.gif,images/stimuli/spore_stims/complex_22_A_b.gif,forced_short,730,NA,5,complex_dissimilar,images/stimuli/spore_stims/complex_22_A_b.gif,NA,NA,NA,NA,NA
NA,null,html-keyboard-response,74,425254,0.0-19.0-0.5,SS1626381126553,NA,NA,null,NA,NA,NA,NA,NA,NA,"<p><img src= images/blank.png width =""600"" height = ""600"" style=""position:fixed;top:50%; left:50%; transform: translate(-50%, -50%); border:5px solid black"">",NA,NA,NA,NA,NA,NA,NA,NA
NA,12428,sequential-stimulus-presentation-old,75,438191,0.0-19.0-1.5,SS1626381126553,trial,NA,40,500,12928,images/stimuli/spore_stims/complex_15_A_b.gif,images/stimuli/spore_stims/complex_22_A_b.gif,forced_short,730,NA,5,complex_dissimilar,images/stimuli/spore_stims/complex_22_A_b.gif,NA,NA,NA,NA,NA
"[{""page_index"":0,""viewing_time"":9506}]",9506,instructions,76,447698,0.0-20.0,SS1626381126553,instructions,NA,NA,NA,NA,NA,NA,NA,NA,NA,NA,NA,NA,NA,NA,NA,NA,NA
NA,14998,survey-likert,77,462699,0.0-21.0,SS1626381126553,similarity_question,NA,NA,NA,NA,NA,NA,NA,NA,NA,NA,NA,NA,"{""Q0"":0}",[0],NA,images/stimuli/spore_stims/complex_01_A_a.gif,images/stimuli/spore_stims/complex_19_A_a.gif
NA,8946,survey-likert,78,471647,0.0-22.0,SS1626381126553,similarity_question,NA,NA,NA,NA,NA,NA,NA,NA,NA,NA,NA,NA,"{""Q0"":1}",[0],NA,images/stimuli/spore_stims/complex_23_A_b.gif,images/stimuli/spore_stims/complex_08_A_b.gif
NA,5707,survey-likert,79,477356,0.0-23.0,SS1626381126553,similarity_question,NA,NA,NA,NA,NA,NA,NA,NA,NA,NA,NA,NA,"{""Q0"":0}",[0],NA,images/stimuli/spore_stims/complex_22_A_b.gif,images/stimuli/spore_stims/complex_15_A_b.gif
NA,3800,survey-likert,80,481157,0.0-24.0,SS1626381126553,similarity_question,NA,NA,NA,NA,NA,NA,NA,NA,NA,NA,NA,NA,"{""Q0"":0}",[0],NA,images/stimuli/spore_stims/complex_07_A_b.gif,images/stimuli/spore_stims/complex_05_A_a.gif
NA,10080,survey-likert,81,491241,0.0-25.0,SS1626381126553,similarity_question,NA,NA,NA,NA,NA,NA,NA,NA,NA,NA,NA,NA,"{""Q0"":2}",[0],NA,images/stimuli/spore_stims/complex_17_A_b.gif,images/stimuli/spore_stims/complex_13_A_b.gif
NA,6941,survey-likert,82,498186,0.0-26.0,SS1626381126553,similarity_question,NA,NA,NA,NA,NA,NA,NA,NA,NA,NA,NA,NA,"{""Q0"":2}",[0],NA,images/stimuli/spore_stims/complex_05_A_b.gif,images/stimuli/spore_stims/complex_12_A_a.gif
"[{""page_index"":0,""viewing_time"":15897}]",15897,instructions,83,514084,0.0-27.0,SS1626381126553,instructions,NA,NA,NA,NA,NA,NA,NA,NA,NA,NA,NA,NA,NA,NA,NA,NA,NA
NA,7116,survey-likert,84,521202,0.0-28.0,SS1626381126553,NA,NA,NA,NA,NA,NA,NA,NA,NA,images/stimuli/spore_stims/complex_01_A_a.gif,NA,NA,NA,"{""Q0"":1}",[0],NA,NA,NA
NA,9210,survey-likert,85,530415,0.0-29.0,SS1626381126553,NA,NA,NA,NA,NA,NA,NA,NA,NA,images/stimuli/spore_stims/complex_15_A_b.gif,NA,NA,NA,"{""Q0"":2}",[0],NA,NA,NA
NA,13302,survey-likert,86,543719,0.0-30.0,SS1626381126553,NA,NA,NA,NA,NA,NA,NA,NA,NA,images/stimuli/spore_stims/complex_05_A_b.gif,NA,NA,NA,"{""Q0"":2}",[0],NA,NA,NA
NA,2566,survey-likert,87,546288,0.0-31.0,SS1626381126553,NA,NA,NA,NA,NA,NA,NA,NA,NA,images/stimuli/spore_stims/complex_13_A_b.gif,NA,NA,NA,"{""Q0"":3}",[0],NA,NA,NA
NA,3355,survey-likert,88,549646,0.0-32.0,SS1626381126553,NA,NA,NA,NA,NA,NA,NA,NA,NA,images/stimuli/spore_stims/complex_08_A_b.gif,NA,NA,NA,"{""Q0"":3}",[0],NA,NA,NA
NA,1994,survey-likert,89,551642,0.0-33.0,SS1626381126553,NA,NA,NA,NA,NA,NA,NA,NA,NA,images/stimuli/spore_stims/complex_05_A_a.gif,NA,NA,NA,"{""Q0"":2}",[0],NA,NA,NA
"[{""page_index"":0,""viewing_time"":2559}]",2559,instructions,90,554203,0.0-34.0,SS1626381126553,instructions,NA,NA,NA,NA,NA,NA,NA,NA,NA,NA,NA,NA,NA,NA,NA,NA,NA
NA,2555,demog-age,91,556762,0.0-35.0,SS1626381126553,NA,NA,NA,NA,NA,NA,NA,NA,NA,NA,NA,NA,NA,"{""age"":""25""}",NA,NA,NA,NA
NA,8804,demog-ethnic-US,92,565571,0.0-36.0,SS1626381126553,NA,NA,NA,NA,NA,NA,NA,NA,NA,NA,NA,NA,NA,"{""ethnicity"":[""White""]}",[0],NA,NA,NA
NA,8739,demog-gender-and-education,93,574312,0.0-37.0,SS1626381126553,NA,NA,NA,NA,NA,NA,NA,NA,NA,NA,NA,NA,NA,"{""gender"":""Male"",""education"":""Bachelor's Degree""}","[0,1]",NA,NA,NA
NA,18384,survey-text,94,592699,0.0-38.0,SS1626381126553,feedback,NA,NA,NA,NA,NA,NA,NA,NA,NA,NA,NA,NA,"{""Q0"":""none""}",NA,NA,NA,NA
"[{""page_index"":0,""viewing_time"":3269}]",3269,instructions,95,595971,0.0-39.0,SS1626381126553,instructions,NA,NA,NA,NA,NA,NA,NA,NA,NA,NA,NA,NA,NA,NA,NA,NA,NA
"[{""page_index"":0,""viewing_time"":50990.00000000001}]",50992,instructions,0,50994,0.0-0.0,SS1626381244493,NA,NA,NA,NA,NA,NA,NA,NA,NA,NA,NA,NA,NA,NA,NA,NA,NA,NA
"[{""page_index"":0,""viewing_time"":50471.99999999999},{""page_index"":1,""viewing_time"":14939}]",65411.99999999999,instructions,1,118408,0.0-1.0,SS1626381244493,instructions,NA,NA,NA,NA,NA,NA,NA,NA,NA,NA,NA,NA,NA,NA,NA,NA,NA
NA,17508,sequential-stimulus-presentation-old,2,136419,0.0-2.0,SS1626381244493,NA,NA,40,500,18008,null,null,self_paced,0,NA,NA,NA,NA,NA,NA,NA,NA,NA
NA,11142,sequential-stimulus-presentation-old,3,148065,0.0-3.0,SS1626381244493,NA,NA,40,500,11642,null,null,self_paced,0,NA,NA,NA,NA,NA,NA,NA,NA,NA
"[{""page_index"":0,""viewing_time"":28197}]",28197,instructions,4,176263,0.0-4.0,SS1626381244493,instructions,NA,NA,NA,NA,NA,NA,NA,NA,NA,NA,NA,NA,NA,NA,NA,NA,NA
NA,16922,sequential-stimulus-presentation-old,5,193687,0.0-5.0,SS1626381244493,NA,NA,40,500,17422,null,null,forced_short,500,NA,NA,NA,NA,NA,NA,NA,NA,NA
NA,3853,sequential-stimulus-presentation-old,6,198045,0.0-6.0,SS1626381244493,NA,NA,40,500,4353,null,null,forced_short,500,NA,NA,NA,NA,NA,NA,NA,NA,NA
"[{""page_index"":0,""viewing_time"":10351.99999999997}]",10351.99999999997,instructions,7,208398,0.0-7.0,SS1626381244493,instructions,NA,NA,NA,NA,NA,NA,NA,NA,NA,NA,NA,NA,NA,NA,NA,NA,NA
"[{""page_index"":0,""viewing_time"":33632},{""page_index"":1,""viewing_time"":31149.00000000006},{""page_index"":2,""viewing_time"":25183.99999999994},{""page_index"":3,""viewing_time"":4604},{""page_index"":4,""viewing_time"":3049}]",97618,instructions,8,306016,0.0-8.0,SS1626381244493,instructions,NA,NA,NA,NA,NA,NA,NA,NA,NA,NA,NA,NA,NA,NA,NA,NA,NA
NA,null,html-keyboard-response,9,307052,0.0-9.0-0.0,SS1626381244493,NA,NA,null,NA,NA,NA,NA,NA,NA,"<p><img src= images/blank.png width =""600"" height = ""600"" style=""position:fixed;top:50%; left:50%; transform: translate(-50%, -50%); border:5px solid black"">",NA,NA,NA,NA,NA,NA,NA,NA
NA,3242,sequential-stimulus-presentation-old,10,311278,0.0-9.0-1.0,SS1626381244493,trial,NA,40,500,3742,images/stimuli/spore_stims/complex_20_A_b.gif,images/stimuli/spore_stims/complex_19_A_b.gif,forced_short,980,NA,0,complex_dissimilar,images/stimuli/spore_stims/complex_19_A_b.gif,NA,NA,NA,NA,NA
NA,null,html-keyboard-response,11,312338,0.0-9.0-0.1,SS1626381244493,NA,NA,null,NA,NA,NA,NA,NA,NA,"<p><img src= images/blank.png width =""600"" height = ""600"" style=""position:fixed;top:50%; left:50%; transform: translate(-50%, -50%); border:5px solid black"">",NA,NA,NA,NA,NA,NA,NA,NA
NA,8895,sequential-stimulus-presentation-old,12,321737,0.0-9.0-1.1,SS1626381244493,trial,NA,40,500,9395,images/stimuli/spore_stims/complex_20_A_b.gif,images/stimuli/spore_stims/complex_19_A_b.gif,forced_short,980,NA,0,complex_dissimilar,images/stimuli/spore_stims/complex_20_A_b.gif,NA,NA,NA,NA,NA
NA,null,html-keyboard-response,13,322751,0.0-9.0-0.2,SS1626381244493,NA,NA,null,NA,NA,NA,NA,NA,NA,"<p><img src= images/blank.png width =""600"" height = ""600"" style=""position:fixed;top:50%; left:50%; transform: translate(-50%, -50%); border:5px solid black"">",NA,NA,NA,NA,NA,NA,NA,NA
NA,7802.999999999942,sequential-stimulus-presentation-old,14,331059,0.0-9.0-1.2,SS1626381244493,trial,NA,40,500,8302.999999999942,images/stimuli/spore_stims/complex_20_A_b.gif,images/stimuli/spore_stims/complex_19_A_b.gif,forced_short,980,NA,0,complex_dissimilar,images/stimuli/spore_stims/complex_19_A_b.gif,NA,NA,NA,NA,NA
NA,null,html-keyboard-response,15,331899,0.0-9.0-0.3,SS1626381244493,NA,NA,null,NA,NA,NA,NA,NA,NA,"<p><img src= images/blank.png width =""600"" height = ""600"" style=""position:fixed;top:50%; left:50%; transform: translate(-50%, -50%); border:5px solid black"">",NA,NA,NA,NA,NA,NA,NA,NA
NA,8794.999999999942,sequential-stimulus-presentation-old,16,341199,0.0-9.0-1.3,SS1626381244493,trial,NA,40,500,9294.999999999942,images/stimuli/spore_stims/complex_20_A_b.gif,images/stimuli/spore_stims/complex_19_A_b.gif,forced_short,980,NA,0,complex_dissimilar,images/stimuli/spore_stims/complex_19_A_b.gif,NA,NA,NA,NA,NA
NA,null,html-keyboard-response,17,342150,0.0-9.0-0.4,SS1626381244493,NA,NA,null,NA,NA,NA,NA,NA,NA,"<p><img src= images/blank.png width =""600"" height = ""600"" style=""position:fixed;top:50%; left:50%; transform: translate(-50%, -50%); border:5px solid black"">",NA,NA,NA,NA,NA,NA,NA,NA
NA,4348,sequential-stimulus-presentation-old,18,347003,0.0-9.0-1.4,SS1626381244493,trial,NA,40,500,4848,images/stimuli/spore_stims/complex_20_A_b.gif,images/stimuli/spore_stims/complex_19_A_b.gif,forced_short,980,NA,0,complex_dissimilar,images/stimuli/spore_stims/complex_20_A_b.gif,NA,NA,NA,NA,NA
NA,6275,survey-multi-choice,19,353282,0.0-10.0,SS1626381244493,math_question,NA,NA,NA,NA,NA,NA,NA,NA,NA,NA,NA,NA,"{""Q0"":""11""}",[0],11,NA,NA
NA,null,html-keyboard-response,20,354131,0.0-11.0-0.0,SS1626381244493,NA,NA,null,NA,NA,NA,NA,NA,NA,"<p><img src= images/blank.png width =""600"" height = ""600"" style=""position:fixed;top:50%; left:50%; transform: translate(-50%, -50%); border:5px solid black"">",NA,NA,NA,NA,NA,NA,NA,NA
NA,2193,sequential-stimulus-presentation-old,21,357149,0.0-11.0-1.0,SS1626381244493,trial,NA,40,500,2693,images/stimuli/spore_stims/complex_15_A_b.gif,images/stimuli/spore_stims/complex_14_A_b.gif,forced_short,820,NA,1,complex_dissimilar,images/stimuli/spore_stims/complex_14_A_b.gif,NA,NA,NA,NA,NA
NA,null,html-keyboard-response,22,358225,0.0-11.0-0.1,SS1626381244493,NA,NA,null,NA,NA,NA,NA,NA,NA,"<p><img src= images/blank.png width =""600"" height = ""600"" style=""position:fixed;top:50%; left:50%; transform: translate(-50%, -50%); border:5px solid black"">",NA,NA,NA,NA,NA,NA,NA,NA
NA,8246.999999999942,sequential-stimulus-presentation-old,23,366978,0.0-11.0-1.1,SS1626381244493,trial,NA,40,500,8746.999999999942,images/stimuli/spore_stims/complex_15_A_b.gif,images/stimuli/spore_stims/complex_14_A_b.gif,forced_short,820,NA,1,complex_dissimilar,images/stimuli/spore_stims/complex_14_A_b.gif,NA,NA,NA,NA,NA
NA,null,html-keyboard-response,24,368199,0.0-11.0-0.2,SS1626381244493,NA,NA,null,NA,NA,NA,NA,NA,NA,"<p><img src= images/blank.png width =""600"" height = ""600"" style=""position:fixed;top:50%; left:50%; transform: translate(-50%, -50%); border:5px solid black"">",NA,NA,NA,NA,NA,NA,NA,NA
NA,3002,sequential-stimulus-presentation-old,25,371706,0.0-11.0-1.2,SS1626381244493,trial,NA,40,500,3502,images/stimuli/spore_stims/complex_15_A_b.gif,images/stimuli/spore_stims/complex_14_A_b.gif,forced_short,820,NA,1,complex_dissimilar,images/stimuli/spore_stims/complex_14_A_b.gif,NA,NA,NA,NA,NA
NA,null,html-keyboard-response,26,372537,0.0-11.0-0.3,SS1626381244493,NA,NA,null,NA,NA,NA,NA,NA,NA,"<p><img src= images/blank.png width =""600"" height = ""600"" style=""position:fixed;top:50%; left:50%; transform: translate(-50%, -50%); border:5px solid black"">",NA,NA,NA,NA,NA,NA,NA,NA
NA,3627,sequential-stimulus-presentation-old,27,376670,0.0-11.0-1.3,SS1626381244493,trial,NA,40,500,4127,images/stimuli/spore_stims/complex_15_A_b.gif,images/stimuli/spore_stims/complex_14_A_b.gif,forced_short,820,NA,1,complex_dissimilar,images/stimuli/spore_stims/complex_14_A_b.gif,NA,NA,NA,NA,NA
NA,null,html-keyboard-response,28,377583,0.0-11.0-0.4,SS1626381244493,NA,NA,null,NA,NA,NA,NA,NA,NA,"<p><img src= images/blank.png width =""600"" height = ""600"" style=""position:fixed;top:50%; left:50%; transform: translate(-50%, -50%); border:5px solid black"">",NA,NA,NA,NA,NA,NA,NA,NA
NA,2382,sequential-stimulus-presentation-old,29,380469,0.0-11.0-1.4,SS1626381244493,trial,NA,40,500,2882,images/stimuli/spore_stims/complex_15_A_b.gif,images/stimuli/spore_stims/complex_14_A_b.gif,forced_short,820,NA,1,complex_dissimilar,images/stimuli/spore_stims/complex_14_A_b.gif,NA,NA,NA,NA,NA
NA,null,html-keyboard-response,30,381465,0.0-11.0-0.5,SS1626381244493,NA,NA,null,NA,NA,NA,NA,NA,NA,"<p><img src= images/blank.png width =""600"" height = ""600"" style=""position:fixed;top:50%; left:50%; transform: translate(-50%, -50%); border:5px solid black"">",NA,NA,NA,NA,NA,NA,NA,NA
NA,5660,sequential-stimulus-presentation-old,31,387630,0.0-11.0-1.5,SS1626381244493,trial,NA,40,500,6160,images/stimuli/spore_stims/complex_15_A_b.gif,images/stimuli/spore_stims/complex_14_A_b.gif,forced_short,820,NA,1,complex_dissimilar,images/stimuli/spore_stims/complex_15_A_b.gif,NA,NA,NA,NA,NA
NA,5388,survey-multi-choice,32,393023,0.0-12.0,SS1626381244493,math_question,NA,NA,NA,NA,NA,NA,NA,NA,NA,NA,NA,NA,"{""Q0"":""13""}",[0],13,NA,NA
NA,null,html-keyboard-response,33,394266,0.0-13.0-0.0,SS1626381244493,NA,NA,null,NA,NA,NA,NA,NA,NA,"<p><img src= images/blank.png width =""600"" height = ""600"" style=""position:fixed;top:50%; left:50%; transform: translate(-50%, -50%); border:5px solid black"">",NA,NA,NA,NA,NA,NA,NA,NA
NA,3815,sequential-stimulus-presentation-old,34,398147,0.0-13.0-1.0,SS1626381244493,trial,NA,40,500,4315,images/stimuli/spore_stims/complex_15_A_a.gif,images/stimuli/spore_stims/complex_21_A_b.gif,forced_short,60,NA,2,complex_dissimilar,images/stimuli/spore_stims/complex_21_A_b.gif,NA,NA,NA,NA,NA
NA,null,html-keyboard-response,35,399262,0.0-13.0-0.1,SS1626381244493,NA,NA,null,NA,NA,NA,NA,NA,NA,"<p><img src= images/blank.png width =""600"" height = ""600"" style=""position:fixed;top:50%; left:50%; transform: translate(-50%, -50%); border:5px solid black"">",NA,NA,NA,NA,NA,NA,NA,NA
NA,2983,sequential-stimulus-presentation-old,36,402753,0.0-13.0-1.1,SS1626381244493,trial,NA,40,500,3483,images/stimuli/spore_stims/complex_15_A_a.gif,images/stimuli/spore_stims/complex_21_A_b.gif,forced_short,60,NA,2,complex_dissimilar,images/stimuli/spore_stims/complex_21_A_b.gif,NA,NA,NA,NA,NA
NA,null,html-keyboard-response,37,404014,0.0-13.0-0.2,SS1626381244493,NA,NA,null,NA,NA,NA,NA,NA,NA,"<p><img src= images/blank.png width =""600"" height = ""600"" style=""position:fixed;top:50%; left:50%; transform: translate(-50%, -50%); border:5px solid black"">",NA,NA,NA,NA,NA,NA,NA,NA
NA,2734.000000000058,sequential-stimulus-presentation-old,38,407254,0.0-13.0-1.2,SS1626381244493,trial,NA,40,500,3234.000000000058,images/stimuli/spore_stims/complex_15_A_a.gif,images/stimuli/spore_stims/complex_21_A_b.gif,forced_short,60,NA,2,complex_dissimilar,images/stimuli/spore_stims/complex_21_A_b.gif,NA,NA,NA,NA,NA
NA,null,html-keyboard-response,39,408242,0.0-13.0-0.3,SS1626381244493,NA,NA,null,NA,NA,NA,NA,NA,NA,"<p><img src= images/blank.png width =""600"" height = ""600"" style=""position:fixed;top:50%; left:50%; transform: translate(-50%, -50%); border:5px solid black"">",NA,NA,NA,NA,NA,NA,NA,NA
NA,4829,sequential-stimulus-presentation-old,40,413577,0.0-13.0-1.3,SS1626381244493,trial,NA,40,500,5329,images/stimuli/spore_stims/complex_15_A_a.gif,images/stimuli/spore_stims/complex_21_A_b.gif,forced_short,60,NA,2,complex_dissimilar,images/stimuli/spore_stims/complex_15_A_a.gif,NA,NA,NA,NA,NA
NA,null,html-keyboard-response,41,414870,0.0-13.0-0.4,SS1626381244493,NA,NA,null,NA,NA,NA,NA,NA,NA,"<p><img src= images/blank.png width =""600"" height = ""600"" style=""position:fixed;top:50%; left:50%; transform: translate(-50%, -50%); border:5px solid black"">",NA,NA,NA,NA,NA,NA,NA,NA
NA,1032,sequential-stimulus-presentation-old,42,416408,0.0-13.0-1.4,SS1626381244493,trial,NA,40,500,1532,images/stimuli/spore_stims/complex_15_A_a.gif,images/stimuli/spore_stims/complex_21_A_b.gif,forced_short,60,NA,2,complex_dissimilar,images/stimuli/spore_stims/complex_21_A_b.gif,NA,NA,NA,NA,NA
NA,null,html-keyboard-response,43,417252,0.0-13.0-0.5,SS1626381244493,NA,NA,null,NA,NA,NA,NA,NA,NA,"<p><img src= images/blank.png width =""600"" height = ""600"" style=""position:fixed;top:50%; left:50%; transform: translate(-50%, -50%); border:5px solid black"">",NA,NA,NA,NA,NA,NA,NA,NA
NA,1698,sequential-stimulus-presentation-old,44,419456,0.0-13.0-1.5,SS1626381244493,trial,NA,40,500,2198,images/stimuli/spore_stims/complex_15_A_a.gif,images/stimuli/spore_stims/complex_21_A_b.gif,forced_short,60,NA,2,complex_dissimilar,images/stimuli/spore_stims/complex_15_A_a.gif,NA,NA,NA,NA,NA
NA,4264.000000000058,survey-multi-choice,45,423725,0.0-14.0,SS1626381244493,math_question,NA,NA,NA,NA,NA,NA,NA,NA,NA,NA,NA,NA,"{""Q0"":""16""}",[0],16,NA,NA
NA,null,html-keyboard-response,46,424718,0.0-15.0-0.0,SS1626381244493,NA,NA,null,NA,NA,NA,NA,NA,NA,"<p><img src= images/blank.png width =""600"" height = ""600"" style=""position:fixed;top:50%; left:50%; transform: translate(-50%, -50%); border:5px solid black"">",NA,NA,NA,NA,NA,NA,NA,NA
NA,4282,sequential-stimulus-presentation-old,47,429276,0.0-15.0-1.0,SS1626381244493,trial,NA,40,500,4782,images/stimuli/spore_stims/complex_01_A_a.gif,images/stimuli/spore_stims/complex_16_A_a.gif,forced_short,270,NA,3,complex_dissimilar,images/stimuli/spore_stims/complex_16_A_a.gif,NA,NA,NA,NA,NA
NA,null,html-keyboard-response,48,430140,0.0-15.0-0.1,SS1626381244493,NA,NA,null,NA,NA,NA,NA,NA,NA,"<p><img src= images/blank.png width =""600"" height = ""600"" style=""position:fixed;top:50%; left:50%; transform: translate(-50%, -50%); border:5px solid black"">",NA,NA,NA,NA,NA,NA,NA,NA
NA,4173,sequential-stimulus-presentation-old,49,434819,0.0-15.0-1.1,SS1626381244493,trial,NA,40,500,4673,images/stimuli/spore_stims/complex_01_A_a.gif,images/stimuli/spore_stims/complex_16_A_a.gif,forced_short,270,NA,3,complex_dissimilar,images/stimuli/spore_stims/complex_01_A_a.gif,NA,NA,NA,NA,NA
NA,null,html-keyboard-response,50,435817,0.0-15.0-0.2,SS1626381244493,NA,NA,null,NA,NA,NA,NA,NA,NA,"<p><img src= images/blank.png width =""600"" height = ""600"" style=""position:fixed;top:50%; left:50%; transform: translate(-50%, -50%); border:5px solid black"">",NA,NA,NA,NA,NA,NA,NA,NA
NA,2652,sequential-stimulus-presentation-old,51,438974,0.0-15.0-1.2,SS1626381244493,trial,NA,40,500,3152,images/stimuli/spore_stims/complex_01_A_a.gif,images/stimuli/spore_stims/complex_16_A_a.gif,forced_short,270,NA,3,complex_dissimilar,images/stimuli/spore_stims/complex_16_A_a.gif,NA,NA,NA,NA,NA
NA,null,html-keyboard-response,52,440250,0.0-15.0-0.3,SS1626381244493,NA,NA,null,NA,NA,NA,NA,NA,NA,"<p><img src= images/blank.png width =""600"" height = ""600"" style=""position:fixed;top:50%; left:50%; transform: translate(-50%, -50%); border:5px solid black"">",NA,NA,NA,NA,NA,NA,NA,NA
NA,1508,sequential-stimulus-presentation-old,53,442263,0.0-15.0-1.3,SS1626381244493,trial,NA,40,500,2008,images/stimuli/spore_stims/complex_01_A_a.gif,images/stimuli/spore_stims/complex_16_A_a.gif,forced_short,270,NA,3,complex_dissimilar,images/stimuli/spore_stims/complex_01_A_a.gif,NA,NA,NA,NA,NA
NA,7180,survey-multi-choice,54,449448,0.0-16.0,SS1626381244493,math_question,NA,NA,NA,NA,NA,NA,NA,NA,NA,NA,NA,NA,"{""Q0"":""14""}",[0],14,NA,NA
NA,null,html-keyboard-response,55,450579,0.0-17.0-0.0,SS1626381244493,NA,NA,null,NA,NA,NA,NA,NA,NA,"<p><img src= images/blank.png width =""600"" height = ""600"" style=""position:fixed;top:50%; left:50%; transform: translate(-50%, -50%); border:5px solid black"">",NA,NA,NA,NA,NA,NA,NA,NA
NA,2253.999999999942,sequential-stimulus-presentation-old,56,453729,0.0-17.0-1.0,SS1626381244493,trial,NA,40,500,2753.999999999942,images/stimuli/spore_stims/complex_11_A_a.gif,images/stimuli/spore_stims/complex_07_A_b.gif,forced_short,890,NA,4,complex_dissimilar,images/stimuli/spore_stims/complex_07_A_b.gif,NA,NA,NA,NA,NA
NA,null,html-keyboard-response,57,454748,0.0-17.0-0.1,SS1626381244493,NA,NA,null,NA,NA,NA,NA,NA,NA,"<p><img src= images/blank.png width =""600"" height = ""600"" style=""position:fixed;top:50%; left:50%; transform: translate(-50%, -50%); border:5px solid black"">",NA,NA,NA,NA,NA,NA,NA,NA
NA,1916.9999999999418,sequential-stimulus-presentation-old,58,457170,0.0-17.0-1.1,SS1626381244493,trial,NA,40,500,2416.999999999942,images/stimuli/spore_stims/complex_11_A_a.gif,images/stimuli/spore_stims/complex_07_A_b.gif,forced_short,890,NA,4,complex_dissimilar,images/stimuli/spore_stims/complex_07_A_b.gif,NA,NA,NA,NA,NA
NA,null,html-keyboard-response,59,458320,0.0-17.0-0.2,SS1626381244493,NA,NA,null,NA,NA,NA,NA,NA,NA,"<p><img src= images/blank.png width =""600"" height = ""600"" style=""position:fixed;top:50%; left:50%; transform: translate(-50%, -50%); border:5px solid black"">",NA,NA,NA,NA,NA,NA,NA,NA
NA,1045,sequential-stimulus-presentation-old,60,459871,0.0-17.0-1.2,SS1626381244493,trial,NA,40,500,1545,images/stimuli/spore_stims/complex_11_A_a.gif,images/stimuli/spore_stims/complex_07_A_b.gif,forced_short,890,NA,4,complex_dissimilar,images/stimuli/spore_stims/complex_07_A_b.gif,NA,NA,NA,NA,NA
NA,null,html-keyboard-response,61,461083,0.0-17.0-0.3,SS1626381244493,NA,NA,null,NA,NA,NA,NA,NA,NA,"<p><img src= images/blank.png width =""600"" height = ""600"" style=""position:fixed;top:50%; left:50%; transform: translate(-50%, -50%); border:5px solid black"">",NA,NA,NA,NA,NA,NA,NA,NA
NA,753,sequential-stimulus-presentation-old,62,462341,0.0-17.0-1.3,SS1626381244493,trial,NA,40,500,1253,images/stimuli/spore_stims/complex_11_A_a.gif,images/stimuli/spore_stims/complex_07_A_b.gif,forced_short,890,NA,4,complex_dissimilar,images/stimuli/spore_stims/complex_07_A_b.gif,NA,NA,NA,NA,NA
NA,null,html-keyboard-response,63,463469,0.0-17.0-0.4,SS1626381244493,NA,NA,null,NA,NA,NA,NA,NA,NA,"<p><img src= images/blank.png width =""600"" height = ""600"" style=""position:fixed;top:50%; left:50%; transform: translate(-50%, -50%); border:5px solid black"">",NA,NA,NA,NA,NA,NA,NA,NA
NA,464,sequential-stimulus-presentation-old,64,464439,0.0-17.0-1.4,SS1626381244493,trial,NA,40,500,964,images/stimuli/spore_stims/complex_11_A_a.gif,images/stimuli/spore_stims/complex_07_A_b.gif,forced_short,890,NA,4,complex_dissimilar,images/stimuli/spore_stims/complex_07_A_b.gif,NA,NA,NA,NA,NA
NA,4627,survey-multi-choice,65,469071,0.0-18.0,SS1626381244493,math_question,NA,NA,NA,NA,NA,NA,NA,NA,NA,NA,NA,NA,"{""Q0"":""7""}",[0],7,NA,NA
NA,null,html-keyboard-response,66,469918,0.0-19.0-0.0,SS1626381244493,NA,NA,null,NA,NA,NA,NA,NA,NA,"<p><img src= images/blank.png width =""600"" height = ""600"" style=""position:fixed;top:50%; left:50%; transform: translate(-50%, -50%); border:5px solid black"">",NA,NA,NA,NA,NA,NA,NA,NA
NA,2714,sequential-stimulus-presentation-old,67,472807,0.0-19.0-1.0,SS1626381244493,trial,NA,40,500,3214,images/stimuli/spore_stims/complex_08_A_a.gif,images/stimuli/spore_stims/complex_07_A_a.gif,forced_short,170,NA,5,complex_dissimilar,images/stimuli/spore_stims/complex_07_A_a.gif,NA,NA,NA,NA,NA
NA,null,html-keyboard-response,68,473823,0.0-19.0-0.1,SS1626381244493,NA,NA,null,NA,NA,NA,NA,NA,NA,"<p><img src= images/blank.png width =""600"" height = ""600"" style=""position:fixed;top:50%; left:50%; transform: translate(-50%, -50%); border:5px solid black"">",NA,NA,NA,NA,NA,NA,NA,NA
NA,1836,sequential-stimulus-presentation-old,69,476166,0.0-19.0-1.1,SS1626381244493,trial,NA,40,500,2336,images/stimuli/spore_stims/complex_08_A_a.gif,images/stimuli/spore_stims/complex_07_A_a.gif,forced_short,170,NA,5,complex_dissimilar,images/stimuli/spore_stims/complex_07_A_a.gif,NA,NA,NA,NA,NA
NA,null,html-keyboard-response,70,477452,0.0-19.0-0.2,SS1626381244493,NA,NA,null,NA,NA,NA,NA,NA,NA,"<p><img src= images/blank.png width =""600"" height = ""600"" style=""position:fixed;top:50%; left:50%; transform: translate(-50%, -50%); border:5px solid black"">",NA,NA,NA,NA,NA,NA,NA,NA
NA,1145,sequential-stimulus-presentation-old,71,479103,0.0-19.0-1.2,SS1626381244493,trial,NA,40,500,1645,images/stimuli/spore_stims/complex_08_A_a.gif,images/stimuli/spore_stims/complex_07_A_a.gif,forced_short,170,NA,5,complex_dissimilar,images/stimuli/spore_stims/complex_07_A_a.gif,NA,NA,NA,NA,NA
NA,null,html-keyboard-response,72,480077,0.0-19.0-0.3,SS1626381244493,NA,NA,null,NA,NA,NA,NA,NA,NA,"<p><img src= images/blank.png width =""600"" height = ""600"" style=""position:fixed;top:50%; left:50%; transform: translate(-50%, -50%); border:5px solid black"">",NA,NA,NA,NA,NA,NA,NA,NA
NA,2260,sequential-stimulus-presentation-old,73,482843,0.0-19.0-1.3,SS1626381244493,trial,NA,40,500,2760,images/stimuli/spore_stims/complex_08_A_a.gif,images/stimuli/spore_stims/complex_07_A_a.gif,forced_short,170,NA,5,complex_dissimilar,images/stimuli/spore_stims/complex_08_A_a.gif,NA,NA,NA,NA,NA
NA,null,html-keyboard-response,74,484106,0.0-19.0-0.4,SS1626381244493,NA,NA,null,NA,NA,NA,NA,NA,NA,"<p><img src= images/blank.png width =""600"" height = ""600"" style=""position:fixed;top:50%; left:50%; transform: translate(-50%, -50%); border:5px solid black"">",NA,NA,NA,NA,NA,NA,NA,NA
NA,1153.0000000000582,sequential-stimulus-presentation-old,75,485765,0.0-19.0-1.4,SS1626381244493,trial,NA,40,500,1653.0000000000582,images/stimuli/spore_stims/complex_08_A_a.gif,images/stimuli/spore_stims/complex_07_A_a.gif,forced_short,170,NA,5,complex_dissimilar,images/stimuli/spore_stims/complex_08_A_a.gif,NA,NA,NA,NA,NA
NA,null,html-keyboard-response,76,486772,0.0-19.0-0.5,SS1626381244493,NA,NA,null,NA,NA,NA,NA,NA,NA,"<p><img src= images/blank.png width =""600"" height = ""600"" style=""position:fixed;top:50%; left:50%; transform: translate(-50%, -50%); border:5px solid black"">",NA,NA,NA,NA,NA,NA,NA,NA
NA,1565,sequential-stimulus-presentation-old,77,488843,0.0-19.0-1.5,SS1626381244493,trial,NA,40,500,2065,images/stimuli/spore_stims/complex_08_A_a.gif,images/stimuli/spore_stims/complex_07_A_a.gif,forced_short,170,NA,5,complex_dissimilar,images/stimuli/spore_stims/complex_07_A_a.gif,NA,NA,NA,NA,NA
"[{""page_index"":0,""viewing_time"":13828}]",13828,instructions,78,502675,0.0-20.0,SS1626381244493,instructions,NA,NA,NA,NA,NA,NA,NA,NA,NA,NA,NA,NA,NA,NA,NA,NA,NA
NA,18431,survey-likert,79,521108,0.0-21.0,SS1626381244493,similarity_question,NA,NA,NA,NA,NA,NA,NA,NA,NA,NA,NA,NA,"{""Q0"":4}",[0],NA,images/stimuli/spore_stims/complex_07_A_a.gif,images/stimuli/spore_stims/complex_08_A_a.gif
NA,12796,survey-likert,80,533907,0.0-22.0,SS1626381244493,similarity_question,NA,NA,NA,NA,NA,NA,NA,NA,NA,NA,NA,NA,"{""Q0"":4}",[0],NA,images/stimuli/spore_stims/complex_21_A_b.gif,images/stimuli/spore_stims/complex_15_A_a.gif
NA,14589,survey-likert,81,548499,0.0-23.0,SS1626381244493,similarity_question,NA,NA,NA,NA,NA,NA,NA,NA,NA,NA,NA,NA,"{""Q0"":2}",[0],NA,images/stimuli/spore_stims/complex_15_A_b.gif,images/stimuli/spore_stims/complex_14_A_b.gif
NA,10532,survey-likert,82,559035,0.0-24.0,SS1626381244493,similarity_question,NA,NA,NA,NA,NA,NA,NA,NA,NA,NA,NA,NA,"{""Q0"":4}",[0],NA,images/stimuli/spore_stims/complex_20_A_b.gif,images/stimuli/spore_stims/complex_19_A_b.gif
NA,8485.999999999884,survey-likert,83,567525,0.0-25.0,SS1626381244493,similarity_question,NA,NA,NA,NA,NA,NA,NA,NA,NA,NA,NA,NA,"{""Q0"":4}",[0],NA,images/stimuli/spore_stims/complex_01_A_a.gif,images/stimuli/spore_stims/complex_16_A_a.gif
NA,16209,survey-likert,84,583737,0.0-26.0,SS1626381244493,similarity_question,NA,NA,NA,NA,NA,NA,NA,NA,NA,NA,NA,NA,"{""Q0"":3}",[0],NA,images/stimuli/spore_stims/complex_11_A_a.gif,images/stimuli/spore_stims/complex_07_A_b.gif
"[{""page_index"":0,""viewing_time"":12923}]",12923,instructions,85,596663,0.0-27.0,SS1626381244493,instructions,NA,NA,NA,NA,NA,NA,NA,NA,NA,NA,NA,NA,NA,NA,NA,NA,NA
NA,12446,survey-likert,86,609112,0.0-28.0,SS1626381244493,NA,NA,NA,NA,NA,NA,NA,NA,NA,images/stimuli/spore_stims/complex_19_A_b.gif,NA,NA,NA,"{""Q0"":3}",[0],NA,NA,NA
NA,5575.000000000116,survey-likert,87,614691,0.0-29.0,SS1626381244493,NA,NA,NA,NA,NA,NA,NA,NA,NA,images/stimuli/spore_stims/complex_08_A_a.gif,NA,NA,NA,"{""Q0"":3}",[0],NA,NA,NA
NA,7470,survey-likert,88,622166,0.0-30.0,SS1626381244493,NA,NA,NA,NA,NA,NA,NA,NA,NA,images/stimuli/spore_stims/complex_01_A_a.gif,NA,NA,NA,"{""Q0"":3}",[0],NA,NA,NA
