"success","trial_type","trial_index","time_elapsed","internal_node_id","subject","rt","responses","stimulus","key_press","view_history","stimulus_type","trial_stimulus","minimum_viewing_duration","trial_looking_time","condition_num","block_number","block_type","stimulus_displayed","position_displayed"
"true","fullscreen","0","2194","0.0-0.0","SS1619186552889","","","","","","","","","","","","","",""
"","survey-text","1","8830","0.0-1.0","SS1619186552889","6633.655000012368","{""Age"":""296"",""Gender"":""F""}","","","","","","","","","","","",""
"","audio-keyboard-response","2","21691","0.0-2.0","SS1619186552889","12859.82000012882","","stimuli/audio/music_intro.wav","40","","","","","","","","","",""
"","html-keyboard-response","3","22677","0.0-3.0","SS1619186552889","985.1150000467896","","<p><img src=stimuli/intro/intro2.jpeg width ='900' height = '500'></p>","40","","","","","","","","","",""
"","html-keyboard-response","4","139787","0.0-4.0","SS1619186552889","117110.59499997646","","<p><img src=stimuli/intro/intro3.jpeg width ='900' height = '500'></p>","48","","","","","","","","","",""
"","html-keyboard-response","5","163095","0.0-5.0","SS1619186552889","23307.279999833554","","<p><img src=stimuli/intro/intro4.jpeg width ='900' height = '500'></p>","39","","","","","","","","","",""
"","html-keyboard-response","6","182444","0.0-6.0","SS1619186552889","19349.029999924824","","<p><img src=stimuli/intro/intro5.jpeg width ='900' height = '500'></p>","39","","","","","","","","","",""
"","html-keyboard-response","7","191403","0.0-7.0","SS1619186552889","8957.365000154823","","<p><img src=stimuli/intro/intro6.jpeg width ='900' height = '500'></p>","39","","","","","","","","","",""
"","html-keyboard-response","8","213809","0.0-8.0","SS1619186552889","22405.969999963418","","<p><img src=stimuli/intro/intro7.jpeg width ='900' height = '500'></p>","40","","","","","","","","","",""
"","html-keyboard-response","9","253251","0.0-9.0","SS1619186552889","39442.09999986924","","<p><img src=stimuli/intro/intro8.jpeg width ='900' height = '500'></p>","40","","","","","","","","","",""
"","html-keyboard-response","10","254397","0.0-10.0","SS1619186552889","1145.0249999761581","","<p><img src=stimuli/intro/intro9.jpeg width ='900' height = '500'></p>","40","","","","","","","","","",""
"","instructions","11","350776","0.0-11.0","SS1619186552889","96379.26500011235","","","","[{""page_index"":0,""viewing_time"":96379.03499999084}]","","","","","","","","",""
"","video-keyboard-response","12","355472","0.0-12.0","SS1619186552889","null","","[""stimuli/images/attngetter_quiet.mp4""]","null","","attention_getter","","","","","","","",""
"","html-keyboard-response","13","357874","0.0-13.0-0.0","SS1619186552889","null","","<p><img src=stimuli/images/blank_fam.png width =""200"" height = ""200"" style=""position:absolute;left:85%""></p><p><img src= stimuli/images/blank.png width =""650"" height = ""650"" style=""border:5px solid black""></p>","null","","","","","","","","","",""
"","sequential-stimulus-presentation","14","363876","0.0-13.0-1.0","SS1619186552889","null","","","null","","trial","","1000","1000","5","0","Dev","stimuli/images/spore_stims/simple_10_A.gif","left"
"","html-keyboard-response","15","364482","0.0-13.0-0.1","SS1619186552889","null","","<p><img src=stimuli/images/blank_fam.png width =""200"" height = ""200"" style=""position:absolute;left:85%""></p><p><img src= stimuli/images/blank.png width =""650"" height = ""650"" style=""border:5px solid black""></p>","null","","","","","","","","","",""
"","sequential-stimulus-presentation","16","370486","0.0-13.0-1.1","SS1619186552889","null","","","null","","trial","","1000","1000","5","0","Dev","stimuli/images/spore_stims/simple_10_A.gif","left"
"","html-keyboard-response","17","371912","0.0-13.0-0.2","SS1619186552889","null","","<p><img src=stimuli/images/blank_fam.png width =""200"" height = ""200"" style=""position:absolute;left:85%""></p><p><img src= stimuli/images/blank.png width =""650"" height = ""650"" style=""border:5px solid black""></p>","null","","","","","","","","","",""
"","sequential-stimulus-presentation","18","377918","0.0-13.0-1.2","SS1619186552889","null","","","null","","trial","","1000","1000","5","0","Dev","stimuli/images/spore_stims/simple_10_A.gif","left"
"","html-keyboard-response","19","378833","0.0-13.0-0.3","SS1619186552889","null","","<p><img src=stimuli/images/blank_test.png width =""200"" height = ""200"" style=""position:absolute;left:85%""></p><p><img src= stimuli/images/blank.png width =""650"" height = ""650"" style=""border:5px solid black""></p>","null","","","","","","","","","",""
"","sequential-stimulus-presentation","20","397111","0.0-13.0-1.3","SS1619186552889","38235.41500000283","","","40","","trial","","1000","39235.41500000283","5","0","Dev","stimuli/images/spore_stims/simple_09_A.gif","right"
"","html-keyboard-response","21","397652","0.0-14.0","SS1619186552889","539.9250001646578","","<p><img src=""stimuli/images/attngetter_blank.png"" width =""640"" height = ""490"" ></p>","40","","between_block","","","","","","","",""
"","video-keyboard-response","22","402329","0.0-15.0","SS1619186552889","null","","[""stimuli/images/attngetter_quiet.mp4""]","null","","attention_getter","","","","","","","",""
"","html-keyboard-response","23","403310","0.0-16.0-0.0","SS1619186552889","null","","<p><img src=stimuli/images/blank_fam.png width =""200"" height = ""200"" style=""position:absolute;left:85%""></p><p><img src= stimuli/images/blank.png width =""650"" height = ""650"" style=""border:5px solid black""></p>","null","","","","","","","","","",""
"","sequential-stimulus-presentation","24","409317","0.0-16.0-1.0","SS1619186552889","null","","","null","","trial","","1000","1000","5","1","Std","stimuli/images/spore_stims/simple_02_A.gif","left"
"","html-keyboard-response","25","410540","0.0-16.0-0.1","SS1619186552889","null","","<p><img src=stimuli/images/blank_fam.png width =""200"" height = ""200"" style=""position:absolute;left:85%""></p><p><img src= stimuli/images/blank.png width =""650"" height = ""650"" style=""border:5px solid black""></p>","null","","","","","","","","","",""
"","sequential-stimulus-presentation","26","416545","0.0-16.0-1.1","SS1619186552889","null","","","null","","trial","","1000","1000","5","1","Std","stimuli/images/spore_stims/simple_02_A.gif","left"
"","html-keyboard-response","27","417187","0.0-16.0-0.2","SS1619186552889","null","","<p><img src=stimuli/images/blank_fam.png width =""200"" height = ""200"" style=""position:absolute;left:85%""></p><p><img src= stimuli/images/blank.png width =""650"" height = ""650"" style=""border:5px solid black""></p>","null","","","","","","","","","",""
"","sequential-stimulus-presentation","28","423192","0.0-16.0-1.2","SS1619186552889","null","","","null","","trial","","1000","1000","5","1","Std","stimuli/images/spore_stims/simple_02_A.gif","left"
"","html-keyboard-response","29","425340","0.0-16.0-0.3","SS1619186552889","null","","<p><img src=stimuli/images/blank_test.png width =""200"" height = ""200"" style=""position:absolute;left:85%""></p><p><img src= stimuli/images/blank.png width =""650"" height = ""650"" style=""border:5px solid black""></p>","null","","","","","","","","","",""
"","sequential-stimulus-presentation","30","445800","0.0-16.0-1.3","SS1619186552889","41488.769999938086","","","40","","trial","","1000","42488.769999938086","5","1","Std","stimuli/images/spore_stims/simple_02_A.gif","left"
"","html-keyboard-response","31","446587","0.0-17.0","SS1619186552889","785.3749999776483","","<p><img src=""stimuli/images/attngetter_blank.png"" width =""640"" height = ""490"" ></p>","40","","between_block","","","","","","","",""
"","video-keyboard-response","32","451253","0.0-18.0","SS1619186552889","null","","[""stimuli/images/attngetter_quiet.mp4""]","null","","attention_getter","","","","","","","",""
"","html-keyboard-response","33","452872","0.0-19.0-0.0","SS1619186552889","null","","<p><img src=stimuli/images/blank_fam.png width =""200"" height = ""200"" style=""position:absolute;left:85%""></p><p><img src= stimuli/images/blank.png width =""650"" height = ""650"" style=""border:5px solid black""></p>","null","","","","","","","","","",""
"","sequential-stimulus-presentation","34","458877","0.0-19.0-1.0","SS1619186552889","null","","","null","","trial","","1000","1000","5","2","Dev","stimuli/images/spore_stims/simple_08_A.gif","right"
"","html-keyboard-response","35","460570","0.0-19.0-0.1","SS1619186552889","null","","<p><img src=stimuli/images/blank_fam.png width =""200"" height = ""200"" style=""position:absolute;left:85%""></p><p><img src= stimuli/images/blank.png width =""650"" height = ""650"" style=""border:5px solid black""></p>","null","","","","","","","","","",""
"","sequential-stimulus-presentation","36","466578","0.0-19.0-1.1","SS1619186552889","null","","","null","","trial","","1000","1000","5","2","Dev","stimuli/images/spore_stims/simple_08_A.gif","right"
"","html-keyboard-response","37","467143","0.0-19.0-0.2","SS1619186552889","null","","<p><img src=stimuli/images/blank_fam.png width =""200"" height = ""200"" style=""position:absolute;left:85%""></p><p><img src= stimuli/images/blank.png width =""650"" height = ""650"" style=""border:5px solid black""></p>","null","","","","","","","","","",""
"","sequential-stimulus-presentation","38","473148","0.0-19.0-1.2","SS1619186552889","null","","","null","","trial","","1000","1000","5","2","Dev","stimuli/images/spore_stims/simple_08_A.gif","right"
"","html-keyboard-response","39","474985","0.0-19.0-0.3","SS1619186552889","null","","<p><img src=stimuli/images/blank_fam.png width =""200"" height = ""200"" style=""position:absolute;left:85%""></p><p><img src= stimuli/images/blank.png width =""650"" height = ""650"" style=""border:5px solid black""></p>","null","","","","","","","","","",""
"","sequential-stimulus-presentation","40","480991","0.0-19.0-1.3","SS1619186552889","null","","","null","","trial","","1000","1000","5","2","Dev","stimuli/images/spore_stims/simple_08_A.gif","right"
"","html-keyboard-response","41","482585","0.0-19.0-0.4","SS1619186552889","null","","<p><img src=stimuli/images/blank_fam.png width =""200"" height = ""200"" style=""position:absolute;left:85%""></p><p><img src= stimuli/images/blank.png width =""650"" height = ""650"" style=""border:5px solid black""></p>","null","","","","","","","","","",""
"","sequential-stimulus-presentation","42","488589","0.0-19.0-1.4","SS1619186552889","null","","","null","","trial","","1000","1000","5","2","Dev","stimuli/images/spore_stims/simple_08_A.gif","right"
"","html-keyboard-response","43","490651","0.0-19.0-0.5","SS1619186552889","null","","<p><img src=stimuli/images/blank_fam.png width =""200"" height = ""200"" style=""position:absolute;left:85%""></p><p><img src= stimuli/images/blank.png width =""650"" height = ""650"" style=""border:5px solid black""></p>","null","","","","","","","","","",""
"","sequential-stimulus-presentation","44","496656","0.0-19.0-1.5","SS1619186552889","null","","","null","","trial","","1000","1000","5","2","Dev","stimuli/images/spore_stims/simple_08_A.gif","right"
"","html-keyboard-response","45","498930","0.0-19.0-0.6","SS1619186552889","null","","<p><img src=stimuli/images/blank_fam.png width =""200"" height = ""200"" style=""position:absolute;left:85%""></p><p><img src= stimuli/images/blank.png width =""650"" height = ""650"" style=""border:5px solid black""></p>","null","","","","","","","","","",""
"","sequential-stimulus-presentation","46","504937","0.0-19.0-1.6","SS1619186552889","null","","","null","","trial","","1000","1000","5","2","Dev","stimuli/images/spore_stims/simple_08_A.gif","right"
"","html-keyboard-response","47","506381","0.0-19.0-0.7","SS1619186552889","null","","<p><img src=stimuli/images/blank_test.png width =""200"" height = ""200"" style=""position:absolute;left:85%""></p><p><img src= stimuli/images/blank.png width =""650"" height = ""650"" style=""border:5px solid black""></p>","null","","","","","","","","","",""
"","sequential-stimulus-presentation","48","521332","0.0-19.0-1.7","SS1619186552889","67459.4550000038","","","40","","trial","","1000","68459.4550000038","5","2","Dev","stimuli/images/spore_stims/simple_07_A.gif","left"
"","html-keyboard-response","49","522006","0.0-20.0","SS1619186552889","672.3600002005696","","<p><img src=""stimuli/images/attngetter_blank.png"" width =""640"" height = ""490"" ></p>","40","","between_block","","","","","","","",""
"","video-keyboard-response","50","526661","0.0-21.0","SS1619186552889","null","","[""stimuli/images/attngetter_quiet.mp4""]","null","","attention_getter","","","","","","","",""
"","html-keyboard-response","51","527310","0.0-22.0-0.0","SS1619186552889","null","","<p><img src=stimuli/images/blank_fam.png width =""200"" height = ""200"" style=""position:absolute;left:85%""></p><p><img src= stimuli/images/blank.png width =""650"" height = ""650"" style=""border:5px solid black""></p>","null","","","","","","","","","",""
"","sequential-stimulus-presentation","52","533316","0.0-22.0-1.0","SS1619186552889","null","","","null","","trial","","1000","1000","5","3","Dev","stimuli/images/spore_stims/simple_11_A.gif","right"
"","html-keyboard-response","53","535238","0.0-22.0-0.1","SS1619186552889","null","","<p><img src=stimuli/images/blank_fam.png width =""200"" height = ""200"" style=""position:absolute;left:85%""></p><p><img src= stimuli/images/blank.png width =""650"" height = ""650"" style=""border:5px solid black""></p>","null","","","","","","","","","",""
"","sequential-stimulus-presentation","54","541243","0.0-22.0-1.1","SS1619186552889","null","","","null","","trial","","1000","1000","5","3","Dev","stimuli/images/spore_stims/simple_11_A.gif","right"
"","html-keyboard-response","55","543636","0.0-22.0-0.2","SS1619186552889","null","","<p><img src=stimuli/images/blank_fam.png width =""200"" height = ""200"" style=""position:absolute;left:85%""></p><p><img src= stimuli/images/blank.png width =""650"" height = ""650"" style=""border:5px solid black""></p>","null","","","","","","","","","",""
"","sequential-stimulus-presentation","56","549643","0.0-22.0-1.2","SS1619186552889","null","","","null","","trial","","1000","1000","5","3","Dev","stimuli/images/spore_stims/simple_11_A.gif","right"
"","html-keyboard-response","57","550943","0.0-22.0-0.3","SS1619186552889","null","","<p><img src=stimuli/images/blank_fam.png width =""200"" height = ""200"" style=""position:absolute;left:85%""></p><p><img src= stimuli/images/blank.png width =""650"" height = ""650"" style=""border:5px solid black""></p>","null","","","","","","","","","",""
"","sequential-stimulus-presentation","58","556947","0.0-22.0-1.3","SS1619186552889","null","","","null","","trial","","1000","1000","5","3","Dev","stimuli/images/spore_stims/simple_11_A.gif","right"
"","html-keyboard-response","59","558362","0.0-22.0-0.4","SS1619186552889","null","","<p><img src=stimuli/images/blank_fam.png width =""200"" height = ""200"" style=""position:absolute;left:85%""></p><p><img src= stimuli/images/blank.png width =""650"" height = ""650"" style=""border:5px solid black""></p>","null","","","","","","","","","",""
"","sequential-stimulus-presentation","60","564366","0.0-22.0-1.4","SS1619186552889","null","","","null","","trial","","1000","1000","5","3","Dev","stimuli/images/spore_stims/simple_11_A.gif","right"
"","html-keyboard-response","61","564998","0.0-22.0-0.5","SS1619186552889","null","","<p><img src=stimuli/images/blank_test.png width =""200"" height = ""200"" style=""position:absolute;left:85%""></p><p><img src= stimuli/images/blank.png width =""650"" height = ""650"" style=""border:5px solid black""></p>","null","","","","","","","","","",""
"","sequential-stimulus-presentation","62","581921","0.0-22.0-1.5","SS1619186552889","53609.41999987699","","","40","","trial","","1000","54609.41999987699","5","3","Dev","stimuli/images/spore_stims/simple_12_A.gif","left"
"","html-keyboard-response","63","583789","0.0-23.0","SS1619186552889","1866.1299999803305","","<p><img src=""stimuli/images/attngetter_blank.png"" width =""640"" height = ""490"" ></p>","40","","between_block","","","","","","","",""
"","video-keyboard-response","64","588443","0.0-24.0","SS1619186552889","null","","[""stimuli/images/attngetter_quiet.mp4""]","null","","attention_getter","","","","","","","",""
"","html-keyboard-response","65","589609","0.0-25.0-0.0","SS1619186552889","null","","<p><img src=stimuli/images/blank_fam.png width =""200"" height = ""200"" style=""position:absolute;left:85%""></p><p><img src= stimuli/images/blank.png width =""650"" height = ""650"" style=""border:5px solid black""></p>","null","","","","","","","","","",""
"","sequential-stimulus-presentation","66","595616","0.0-25.0-1.0","SS1619186552889","null","","","null","","trial","","1000","1000","5","4","Std","stimuli/images/spore_stims/simple_05_A.gif","left"
"","html-keyboard-response","67","597809","0.0-25.0-0.1","SS1619186552889","null","","<p><img src=stimuli/images/blank_fam.png width =""200"" height = ""200"" style=""position:absolute;left:85%""></p><p><img src= stimuli/images/blank.png width =""650"" height = ""650"" style=""border:5px solid black""></p>","null","","","","","","","","","",""
"","sequential-stimulus-presentation","68","603815","0.0-25.0-1.1","SS1619186552889","null","","","null","","trial","","1000","1000","5","4","Std","stimuli/images/spore_stims/simple_05_A.gif","left"
"","html-keyboard-response","69","605293","0.0-25.0-0.2","SS1619186552889","null","","<p><img src=stimuli/images/blank_fam.png width =""200"" height = ""200"" style=""position:absolute;left:85%""></p><p><img src= stimuli/images/blank.png width =""650"" height = ""650"" style=""border:5px solid black""></p>","null","","","","","","","","","",""
"","sequential-stimulus-presentation","70","611295","0.0-25.0-1.2","SS1619186552889","null","","","null","","trial","","1000","1000","5","4","Std","stimuli/images/spore_stims/simple_05_A.gif","left"
"","html-keyboard-response","71","613246","0.0-25.0-0.3","SS1619186552889","null","","<p><img src=stimuli/images/blank_fam.png width =""200"" height = ""200"" style=""position:absolute;left:85%""></p><p><img src= stimuli/images/blank.png width =""650"" height = ""650"" style=""border:5px solid black""></p>","null","","","","","","","","","",""
"","sequential-stimulus-presentation","72","619249","0.0-25.0-1.3","SS1619186552889","null","","","null","","trial","","1000","1000","5","4","Std","stimuli/images/spore_stims/simple_05_A.gif","left"
"","html-keyboard-response","73","621592","0.0-25.0-0.4","SS1619186552889","null","","<p><img src=stimuli/images/blank_fam.png width =""200"" height = ""200"" style=""position:absolute;left:85%""></p><p><img src= stimuli/images/blank.png width =""650"" height = ""650"" style=""border:5px solid black""></p>","null","","","","","","","","","",""
"","sequential-stimulus-presentation","74","627597","0.0-25.0-1.4","SS1619186552889","null","","","null","","trial","","1000","1000","5","4","Std","stimuli/images/spore_stims/simple_05_A.gif","left"
"","html-keyboard-response","75","628681","0.0-25.0-0.5","SS1619186552889","null","","<p><img src=stimuli/images/blank_test.png width =""200"" height = ""200"" style=""position:absolute;left:85%""></p><p><img src= stimuli/images/blank.png width =""650"" height = ""650"" style=""border:5px solid black""></p>","null","","","","","","","","","",""
"","sequential-stimulus-presentation","76","639280","0.0-25.0-1.5","SS1619186552889","48669.220000039786","","","40","","trial","","1000","49669.220000039786","5","4","Std","stimuli/images/spore_stims/simple_05_A.gif","left"
"","html-keyboard-response","77","646044","0.0-26.0","SS1619186552889","6763.125000055879","","<p><img src=""stimuli/images/attngetter_blank.png"" width =""640"" height = ""490"" ></p>","40","","between_block","","","","","","","",""
"","video-keyboard-response","78","650740","0.0-27.0","SS1619186552889","null","","[""stimuli/images/attngetter_quiet.mp4""]","null","","attention_getter","","","","","","","",""
"","html-keyboard-response","79","651720","0.0-28.0-0.0","SS1619186552889","null","","<p><img src=stimuli/images/blank_fam.png width =""200"" height = ""200"" style=""position:absolute;left:85%""></p><p><img src= stimuli/images/blank.png width =""650"" height = ""650"" style=""border:5px solid black""></p>","null","","","","","","","","","",""
"","sequential-stimulus-presentation","80","657725","0.0-28.0-1.0","SS1619186552889","null","","","null","","trial","","1000","1000","5","5","Std","stimuli/images/spore_stims/simple_04_A.gif","right"
"","html-keyboard-response","81","658491","0.0-28.0-0.1","SS1619186552889","null","","<p><img src=stimuli/images/blank_fam.png width =""200"" height = ""200"" style=""position:absolute;left:85%""></p><p><img src= stimuli/images/blank.png width =""650"" height = ""650"" style=""border:5px solid black""></p>","null","","","","","","","","","",""
"","sequential-stimulus-presentation","82","664495","0.0-28.0-1.1","SS1619186552889","null","","","null","","trial","","1000","1000","5","5","Std","stimuli/images/spore_stims/simple_04_A.gif","right"
"","html-keyboard-response","83","665742","0.0-28.0-0.2","SS1619186552889","null","","<p><img src=stimuli/images/blank_fam.png width =""200"" height = ""200"" style=""position:absolute;left:85%""></p><p><img src= stimuli/images/blank.png width =""650"" height = ""650"" style=""border:5px solid black""></p>","null","","","","","","","","","",""
"","sequential-stimulus-presentation","84","671749","0.0-28.0-1.2","SS1619186552889","null","","","null","","trial","","1000","1000","5","5","Std","stimuli/images/spore_stims/simple_04_A.gif","right"
"","html-keyboard-response","85","672739","0.0-28.0-0.3","SS1619186552889","null","","<p><img src=stimuli/images/blank_fam.png width =""200"" height = ""200"" style=""position:absolute;left:85%""></p><p><img src= stimuli/images/blank.png width =""650"" height = ""650"" style=""border:5px solid black""></p>","null","","","","","","","","","",""
"","sequential-stimulus-presentation","86","678745","0.0-28.0-1.3","SS1619186552889","null","","","null","","trial","","1000","1000","5","5","Std","stimuli/images/spore_stims/simple_04_A.gif","right"
"","html-keyboard-response","87","679594","0.0-28.0-0.4","SS1619186552889","null","","<p><img src=stimuli/images/blank_fam.png width =""200"" height = ""200"" style=""position:absolute;left:85%""></p><p><img src= stimuli/images/blank.png width =""650"" height = ""650"" style=""border:5px solid black""></p>","null","","","","","","","","","",""
"","sequential-stimulus-presentation","88","685596","0.0-28.0-1.4","SS1619186552889","null","","","null","","trial","","1000","1000","5","5","Std","stimuli/images/spore_stims/simple_04_A.gif","right"
"","html-keyboard-response","89","687495","0.0-28.0-0.5","SS1619186552889","null","","<p><img src=stimuli/images/blank_fam.png width =""200"" height = ""200"" style=""position:absolute;left:85%""></p><p><img src= stimuli/images/blank.png width =""650"" height = ""650"" style=""border:5px solid black""></p>","null","","","","","","","","","",""
"","sequential-stimulus-presentation","90","693498","0.0-28.0-1.5","SS1619186552889","null","","","null","","trial","","1000","1000","5","5","Std","stimuli/images/spore_stims/simple_04_A.gif","right"
"","html-keyboard-response","91","695137","0.0-28.0-0.6","SS1619186552889","null","","<p><img src=stimuli/images/blank_fam.png width =""200"" height = ""200"" style=""position:absolute;left:85%""></p><p><img src= stimuli/images/blank.png width =""650"" height = ""650"" style=""border:5px solid black""></p>","null","","","","","","","","","",""
"","sequential-stimulus-presentation","92","701141","0.0-28.0-1.6","SS1619186552889","null","","","null","","trial","","1000","1000","5","5","Std","stimuli/images/spore_stims/simple_04_A.gif","right"
"","html-keyboard-response","93","702903","0.0-28.0-0.7","SS1619186552889","null","","<p><img src=stimuli/images/blank_test.png width =""200"" height = ""200"" style=""position:absolute;left:85%""></p><p><img src= stimuli/images/blank.png width =""650"" height = ""650"" style=""border:5px solid black""></p>","null","","","","","","","","","",""
"","sequential-stimulus-presentation","94","721387","0.0-28.0-1.7","SS1619186552889","68677.18000011519","","","40","","trial","","1000","69677.18000011519","5","5","Std","stimuli/images/spore_stims/simple_04_A.gif","right"
"","html-keyboard-response","95","3060899","0.0-29.0","SS1619186552889","2339426.8849999644","","<p><span style=""font-family: arial, helvetica, sans-serif; font-size: 48px; color: #993300;""> That's it! Thank you so much for your participation! </span></p>","40","","","","","","","","","",""
