"success","timeout","failed_images","failed_audio","failed_video","trial_type","trial_index","time_elapsed","internal_node_id","subject","prolific_id","study","session","window_width","window_height","view_history","rt","stimulus_type","response","question_order","rating_type","rating_stimulus","rating_animacy","rating_number","rating_pose","stimulus","target","target_animacy","target_pose","target_number","left","left_animacy","left_pose","left_number","right","right_animacy","right_pose","right_number","comparison_type"
"true","false","[]","[]","[]","preload","0","6532","0.0-0.0","SS1678233201886","5f467b0a0d1aef037515c8c9","6406d7f26dd5b7fc1e3377bd","6407ce6b647785827b83a08b","2560","1287","","","","","","","","","","","","","","","","","","","","","","","",""
"","","","","","instructions","1","9076","0.0-1.0","SS1678233201886","5f467b0a0d1aef037515c8c9","6406d7f26dd5b7fc1e3377bd","6407ce6b647785827b83a08b","2560","1287","[{""page_index"":0,""viewing_time"":2542}]","2543","","","","","","","","","","","","","","","","","","","","","",""
"","","","","","instructions","2","18012","0.0-2.0","SS1678233201886","5f467b0a0d1aef037515c8c9","6406d7f26dd5b7fc1e3377bd","6407ce6b647785827b83a08b","2560","1287","[{""page_index"":0,""viewing_time"":6922}]","6922","instructions","","","","","","","","","","","","","","","","","","","","",""
"","","","","","instructions","3","20461","0.0-3.0","SS1678233201886","5f467b0a0d1aef037515c8c9","6406d7f26dd5b7fc1e3377bd","6407ce6b647785827b83a08b","2560","1287","[{""page_index"":0,""viewing_time"":2447}]","2447","instructions","","","","","","","","","","","","","","","","","","","","",""
"","","","","","survey-likert","4","37615","0.0-4.0","SS1678233201886","5f467b0a0d1aef037515c8c9","6406d7f26dd5b7fc1e3377bd","6407ce6b647785827b83a08b","2560","1287","","17151","","{""Q0"":1}","[0]","anchoring","","","","","","","","","","","","","","","","","",""
"","","","","","survey-likert","5","42568","0.0-5.0","SS1678233201886","5f467b0a0d1aef037515c8c9","6406d7f26dd5b7fc1e3377bd","6407ce6b647785827b83a08b","2560","1287","","4951","","{""Q0"":1}","[0]","anchoring","","","","","","","","","","","","","","","","","",""
"","","","","","instructions","6","44680","0.0-6.0","SS1678233201886","5f467b0a0d1aef037515c8c9","6406d7f26dd5b7fc1e3377bd","6407ce6b647785827b83a08b","2560","1287","[{""page_index"":0,""viewing_time"":2110}]","2110","instructions","","","","","","","","","","","","","","","","","","","","",""
"true","","","","","fullscreen","7","48381","0.0-7.0","SS1678233201886","5f467b0a0d1aef037515c8c9","6406d7f26dd5b7fc1e3377bd","6407ce6b647785827b83a08b","2560","1287","","","","","","","","","","","","","","","","","","","","","","","",""
"","","","","","survey-likert","8","52786","0.0-8.0","SS1678233201886","5f467b0a0d1aef037515c8c9","6406d7f26dd5b7fc1e3377bd","6407ce6b647785827b83a08b","2560","1287","","4402","","{""Q0"":1}","[0]","complexity","media/stimuli/animate_002_right.png","animate","single","right","","","","","","","","","","","","","",""
"","","","","","survey-likert","9","55435","0.0-9.0","SS1678233201886","5f467b0a0d1aef037515c8c9","6406d7f26dd5b7fc1e3377bd","6407ce6b647785827b83a08b","2560","1287","","2646","","{""Q0"":1}","[0]","complexity","media/stimuli/animate_004_left.png","animate","single","left","","","","","","","","","","","","","",""
"","","","","","survey-likert","10","58609","0.0-10.0","SS1678233201886","5f467b0a0d1aef037515c8c9","6406d7f26dd5b7fc1e3377bd","6407ce6b647785827b83a08b","2560","1287","","3172","","{""Q0"":1}","[0]","complexity","media/stimuli/animate_001_left.png","animate","single","left","","","","","","","","","","","","","",""
"","","","","","survey-likert","11","61138","0.0-11.0","SS1678233201886","5f467b0a0d1aef037515c8c9","6406d7f26dd5b7fc1e3377bd","6407ce6b647785827b83a08b","2560","1287","","2527","","{""Q0"":2}","[0]","complexity","media/stimuli/animate_005_right.png","animate","pair","right","","","","","","","","","","","","","",""
"","","","","","survey-likert","12","63378","0.0-12.0","SS1678233201886","5f467b0a0d1aef037515c8c9","6406d7f26dd5b7fc1e3377bd","6407ce6b647785827b83a08b","2560","1287","","2239","","{""Q0"":2}","[0]","complexity","media/stimuli/inanimate_007_right.png","inanimate","pair","right","","","","","","","","","","","","","",""
"","","","","","survey-likert","13","65291","0.0-13.0","SS1678233201886","5f467b0a0d1aef037515c8c9","6406d7f26dd5b7fc1e3377bd","6407ce6b647785827b83a08b","2560","1287","","1910","","{""Q0"":1}","[0]","complexity","media/stimuli/inanimate_012_left.png","inanimate","single","left","","","","","","","","","","","","","",""
"","","","","","survey-likert","14","67411","0.0-14.0","SS1678233201886","5f467b0a0d1aef037515c8c9","6406d7f26dd5b7fc1e3377bd","6407ce6b647785827b83a08b","2560","1287","","2118","","{""Q0"":2}","[0]","complexity","media/stimuli/inanimate_010_right.png","inanimate","pair","right","","","","","","","","","","","","","",""
"","","","","","survey-likert","15","69355","0.0-15.0","SS1678233201886","5f467b0a0d1aef037515c8c9","6406d7f26dd5b7fc1e3377bd","6407ce6b647785827b83a08b","2560","1287","","1942","","{""Q0"":1}","[0]","complexity","media/stimuli/inanimate_003_right.png","inanimate","single","right","","","","","","","","","","","","","",""
"","","","","","survey-likert","16","71396","0.0-16.0","SS1678233201886","5f467b0a0d1aef037515c8c9","6406d7f26dd5b7fc1e3377bd","6407ce6b647785827b83a08b","2560","1287","","2039","","{""Q0"":1}","[0]","complexity","media/stimuli/animate_008_right.png","animate","single","right","","","","","","","","","","","","","",""
"","","","","","survey-likert","17","77020","0.0-17.0","SS1678233201886","5f467b0a0d1aef037515c8c9","6406d7f26dd5b7fc1e3377bd","6407ce6b647785827b83a08b","2560","1287","","5620","","{""Q0"":1}","[0]","complexity","media/stimuli/animate_004_right.png","animate","single","right","","","","","","","","","","","","","",""
"","","","","","survey-likert","18","79317","0.0-18.0","SS1678233201886","5f467b0a0d1aef037515c8c9","6406d7f26dd5b7fc1e3377bd","6407ce6b647785827b83a08b","2560","1287","","2293","","{""Q0"":1}","[0]","complexity","media/stimuli/inanimate_005_left.png","inanimate","single","left","","","","","","","","","","","","","",""
"","","","","","survey-likert","19","81988","0.0-19.0","SS1678233201886","5f467b0a0d1aef037515c8c9","6406d7f26dd5b7fc1e3377bd","6407ce6b647785827b83a08b","2560","1287","","2670","","{""Q0"":1}","[0]","complexity","media/stimuli/animate_010_right.png","animate","single","right","","","","","","","","","","","","","",""
"","","","","","html-keyboard-response","20","86708","0.0-20.0","SS1678233201886","5f467b0a0d1aef037515c8c9","6406d7f26dd5b7fc1e3377bd","6407ce6b647785827b83a08b","2560","1287","","4716",""," ","","","","","","","","","","","","","","","","","","","",""
"","","","","","survey-likert","21","89238","0.0-21.0","SS1678233201886","5f467b0a0d1aef037515c8c9","6406d7f26dd5b7fc1e3377bd","6407ce6b647785827b83a08b","2560","1287","","2528","","{""Q0"":1}","[0]","complexity","media/stimuli/inanimate_006_right.png","inanimate","single","right","","","","","","","","","","","","","",""
"","","","","","survey-likert","22","90453","0.0-22.0","SS1678233201886","5f467b0a0d1aef037515c8c9","6406d7f26dd5b7fc1e3377bd","6407ce6b647785827b83a08b","2560","1287","","1213","","{""Q0"":1}","[0]","complexity","media/stimuli/animate_007_left.png","animate","single","left","","","","","","","","","","","","","",""
"","","","","","survey-likert","23","92095","0.0-23.0","SS1678233201886","5f467b0a0d1aef037515c8c9","6406d7f26dd5b7fc1e3377bd","6407ce6b647785827b83a08b","2560","1287","","1640","","{""Q0"":2}","[0]","complexity","media/stimuli/inanimate_010_left.png","inanimate","pair","left","","","","","","","","","","","","","",""
"","","","","","survey-likert","24","94054","0.0-24.0","SS1678233201886","5f467b0a0d1aef037515c8c9","6406d7f26dd5b7fc1e3377bd","6407ce6b647785827b83a08b","2560","1287","","1956","","{""Q0"":2}","[0]","complexity","media/stimuli/inanimate_009_left.png","inanimate","pair","left","","","","","","","","","","","","","",""
"","","","","","survey-likert","25","96190","0.0-25.0","SS1678233201886","5f467b0a0d1aef037515c8c9","6406d7f26dd5b7fc1e3377bd","6407ce6b647785827b83a08b","2560","1287","","2134","","{""Q0"":2}","[0]","complexity","media/stimuli/animate_010_left.png","animate","pair","left","","","","","","","","","","","","","",""
"","","","","","survey-likert","26","97918","0.0-26.0","SS1678233201886","5f467b0a0d1aef037515c8c9","6406d7f26dd5b7fc1e3377bd","6407ce6b647785827b83a08b","2560","1287","","1726","","{""Q0"":2}","[0]","complexity","media/stimuli/inanimate_004_right.png","inanimate","pair","right","","","","","","","","","","","","","",""
"","","","","","survey-likert","27","100615","0.0-27.0","SS1678233201886","5f467b0a0d1aef037515c8c9","6406d7f26dd5b7fc1e3377bd","6407ce6b647785827b83a08b","2560","1287","","2694","","{""Q0"":3}","[0]","complexity","media/stimuli/animate_011_right.png","animate","pair","right","","","","","","","","","","","","","",""
"","","","","","survey-likert","28","102928","0.0-28.0","SS1678233201886","5f467b0a0d1aef037515c8c9","6406d7f26dd5b7fc1e3377bd","6407ce6b647785827b83a08b","2560","1287","","2311","","{""Q0"":1}","[0]","complexity","media/stimuli/inanimate_001_left.png","inanimate","single","left","","","","","","","","","","","","","",""
"","","","","","survey-likert","29","104591","0.0-29.0","SS1678233201886","5f467b0a0d1aef037515c8c9","6406d7f26dd5b7fc1e3377bd","6407ce6b647785827b83a08b","2560","1287","","1660","","{""Q0"":1}","[0]","complexity","media/stimuli/animate_007_right.png","animate","single","right","","","","","","","","","","","","","",""
"","","","","","survey-likert","30","106351","0.0-30.0","SS1678233201886","5f467b0a0d1aef037515c8c9","6406d7f26dd5b7fc1e3377bd","6407ce6b647785827b83a08b","2560","1287","","1758","","{""Q0"":2}","[0]","complexity","media/stimuli/inanimate_005_left.png","inanimate","pair","left","","","","","","","","","","","","","",""
"","","","","","survey-likert","31","108401","0.0-31.0","SS1678233201886","5f467b0a0d1aef037515c8c9","6406d7f26dd5b7fc1e3377bd","6407ce6b647785827b83a08b","2560","1287","","2048","","{""Q0"":1}","[0]","complexity","media/stimuli/animate_003_right.png","animate","single","right","","","","","","","","","","","","","",""
"","","","","","survey-likert","32","110911","0.0-32.0","SS1678233201886","5f467b0a0d1aef037515c8c9","6406d7f26dd5b7fc1e3377bd","6407ce6b647785827b83a08b","2560","1287","","2508","","{""Q0"":1}","[0]","complexity","media/stimuli/inanimate_010_right.png","inanimate","single","right","","","","","","","","","","","","","",""
"","","","","","html-keyboard-response","33","247116","0.0-33.0","SS1678233201886","5f467b0a0d1aef037515c8c9","6406d7f26dd5b7fc1e3377bd","6407ce6b647785827b83a08b","2560","1287","","136204",""," ","","","","","","","","","","","","","","","","","","","",""
"","","","","","html-keyboard-response","34","260384","0.0-34.0","SS1678233201886","5f467b0a0d1aef037515c8c9","6406d7f26dd5b7fc1e3377bd","6407ce6b647785827b83a08b","2560","1287","","13263","","j","","","","","","","<img src=""media/stimuli/inanimate_001_left.png"" class=""coveredImage test"" style = ""width:100px; height:100px; position:fixed; top:10%;    transform: translate(-50%, -50%);left:48%""></img><img src=""media/stimuli/animate_010_left.png"" class=""coveredImage test"" style = ""width:100px; height:100px;position:fixed; top:25%;        transform: translate(-50%, -50%);left:38%""></img><img src=""media/stimuli/inanimate_001_left.png"" class=""coveredImage test"" style = ""width:100px; height:100px;position:fixed; top:25%;        transform: translate(-50%, -50%);left:54.5%""></img><img src=""media/stimuli/inanimate_001_left.png"" class=""coveredImage test"" style = ""width:100px; height:100px;position:fixed; top:25%;        transform: translate(-50%, -50%);left:61.5%""></img><img src=""media/f.png""style = ""width:30px x; height:30px;position:fixed; top:43%;    transform: translate(-50%, -50%);left:40%""></img><img src=""media/j.png""style = ""width:30px; height:30px;position:fixed; top:43%;    transform: translate(-50%, -50%);left:60%""></img>","media/stimuli/inanimate_001_left.png","inanimate","left","single","media/stimuli/animate_010_left.png","animate","left","single","media/stimuli/inanimate_001_left.png","inanimate","left","pair","animacy_number"
"","","","","","html-keyboard-response","35","262105","0.0-35.0","SS1678233201886","5f467b0a0d1aef037515c8c9","6406d7f26dd5b7fc1e3377bd","6407ce6b647785827b83a08b","2560","1287","","1717","","j","","","","","","","<img src=""media/stimuli/animate_007_left.png"" class=""coveredImage test"" style = ""width:100px; height:100px; position:fixed; top:10%;    transform: translate(-50%, -50%);left:48%""></img><img src=""media/stimuli/animate_006_left.png"" class=""coveredImage test"" style = ""width:100px; height:100px;position:fixed; top:25%;        transform: translate(-50%, -50%);left:38%""></img><img src=""media/stimuli/animate_007_left.png"" class=""coveredImage test"" style = ""width:100px; height:100px;position:fixed; top:25%;        transform: translate(-50%, -50%);left:54.5%""></img><img src=""media/stimuli/animate_007_left.png"" class=""coveredImage test"" style = ""width:100px; height:100px;position:fixed; top:25%;        transform: translate(-50%, -50%);left:61.5%""></img><img src=""media/f.png""style = ""width:30px x; height:30px;position:fixed; top:43%;    transform: translate(-50%, -50%);left:40%""></img><img src=""media/j.png""style = ""width:30px; height:30px;position:fixed; top:43%;    transform: translate(-50%, -50%);left:60%""></img>","media/stimuli/animate_007_left.png","animate","left","single","media/stimuli/animate_006_left.png","animate","left","single","media/stimuli/animate_007_left.png","animate","left","pair","identity_number"
"","","","","","html-keyboard-response","36","263318","0.0-36.0","SS1678233201886","5f467b0a0d1aef037515c8c9","6406d7f26dd5b7fc1e3377bd","6407ce6b647785827b83a08b","2560","1287","","1210","","j","","","","","","","<img src=""media/stimuli/inanimate_005_right.png"" class=""coveredImage test"" style = ""width:100px; height:100px; position:fixed; top:10%;    transform: translate(-50%, -50%);left:44.5%""></img><img src=""media/stimuli/inanimate_005_right.png"" class=""coveredImage test"" style = ""width:100px; height:100px; position:fixed; top:10%;    transform: translate(-50%, -50%);left:51.5%""></img><img src=""media/stimuli/inanimate_011_right.png"" class=""coveredImage test"" style = ""width:100px; height:100px;position:fixed; top:25%;        transform: translate(-50%, -50%);left:34.5%""></img><img src=""media/stimuli/inanimate_011_right.png"" class=""coveredImage test"" style = ""width:100px; height:100px;position:fixed; top:25%;        transform: translate(-50%, -50%);left:41.5%""></img><img src=""media/stimuli/inanimate_005_left.png"" class=""coveredImage test"" style = ""width:100px; height:100px;position:fixed; top:25%;        transform: translate(-50%, -50%);left:54.5%""></img><img src=""media/stimuli/inanimate_005_left.png"" class=""coveredImage test"" style = ""width:100px; height:100px;position:fixed; top:25%;        transform: translate(-50%, -50%);left:61.5%""></img><img src=""media/f.png""style = ""width:30px x; height:30px;position:fixed; top:43%;    transform: translate(-50%, -50%);left:40%""></img><img src=""media/j.png""style = ""width:30px; height:30px;position:fixed; top:43%;    transform: translate(-50%, -50%);left:60%""></img>","media/stimuli/inanimate_005_right.png","inanimate","right","pair","media/stimuli/inanimate_011_right.png","inanimate","right","pair","media/stimuli/inanimate_005_left.png","inanimate","left","pair","identity_pose"
"","","","","","html-keyboard-response","37","266645","0.0-37.0","SS1678233201886","5f467b0a0d1aef037515c8c9","6406d7f26dd5b7fc1e3377bd","6407ce6b647785827b83a08b","2560","1287","","3325","","f","","","","","","","<img src=""media/stimuli/animate_003_right.png"" class=""coveredImage test"" style = ""width:100px; height:100px; position:fixed; top:10%;    transform: translate(-50%, -50%);left:44.5%""></img><img src=""media/stimuli/animate_003_right.png"" class=""coveredImage test"" style = ""width:100px; height:100px; position:fixed; top:10%;    transform: translate(-50%, -50%);left:51.5%""></img><img src=""media/stimuli/animate_003_right.png"" class=""coveredImage test"" style = ""width:100px; height:100px;position:fixed; top:25%;        transform: translate(-50%, -50%);left:38%""></img><img src=""media/stimuli/inanimate_012_right.png"" class=""coveredImage test"" style = ""width:100px; height:100px;position:fixed; top:25%;        transform: translate(-50%, -50%);left:54.5%""></img><img src=""media/stimuli/inanimate_012_right.png"" class=""coveredImage test"" style = ""width:100px; height:100px;position:fixed; top:25%;        transform: translate(-50%, -50%);left:61.5%""></img><img src=""media/f.png""style = ""width:30px x; height:30px;position:fixed; top:43%;    transform: translate(-50%, -50%);left:40%""></img><img src=""media/j.png""style = ""width:30px; height:30px;position:fixed; top:43%;    transform: translate(-50%, -50%);left:60%""></img>","media/stimuli/animate_003_right.png","animate","right","pair","media/stimuli/animate_003_right.png","animate","right","single","media/stimuli/inanimate_012_right.png","inanimate","right","pair","number_animacy"
"","","","","","html-keyboard-response","38","269625","0.0-38.0","SS1678233201886","5f467b0a0d1aef037515c8c9","6406d7f26dd5b7fc1e3377bd","6407ce6b647785827b83a08b","2560","1287","","2979","","f","","","","","","","<img src=""media/stimuli/inanimate_005_left.png"" class=""coveredImage test"" style = ""width:100px; height:100px; position:fixed; top:10%;    transform: translate(-50%, -50%);left:48%""></img><img src=""media/stimuli/inanimate_005_left.png"" class=""coveredImage test"" style = ""width:100px; height:100px;position:fixed; top:25%;        transform: translate(-50%, -50%);left:34.5%""></img><img src=""media/stimuli/inanimate_005_left.png"" class=""coveredImage test"" style = ""width:100px; height:100px;position:fixed; top:25%;        transform: translate(-50%, -50%);left:41.5%""></img><img src=""media/stimuli/inanimate_005_right.png"" class=""coveredImage test"" style = ""width:100px; height:100px;position:fixed; top:25%;        transform: translate(-50%, -50%);left:58%""></img><img src=""media/f.png""style = ""width:30px x; height:30px;position:fixed; top:43%;    transform: translate(-50%, -50%);left:40%""></img><img src=""media/j.png""style = ""width:30px; height:30px;position:fixed; top:43%;    transform: translate(-50%, -50%);left:60%""></img>","media/stimuli/inanimate_005_left.png","inanimate","left","single","media/stimuli/inanimate_005_left.png","inanimate","left","pair","media/stimuli/inanimate_005_right.png","inanimate","right","single","number_pose"
"","","","","","html-keyboard-response","39","271402","0.0-39.0","SS1678233201886","5f467b0a0d1aef037515c8c9","6406d7f26dd5b7fc1e3377bd","6407ce6b647785827b83a08b","2560","1287","","1775","","j","","","","","","","<img src=""media/stimuli/inanimate_011_right.png"" class=""coveredImage test"" style = ""width:100px; height:100px; position:fixed; top:10%;    transform: translate(-50%, -50%);left:48%""></img><img src=""media/stimuli/inanimate_010_right.png"" class=""coveredImage test"" style = ""width:100px; height:100px;position:fixed; top:25%;        transform: translate(-50%, -50%);left:38%""></img><img src=""media/stimuli/inanimate_011_left.png"" class=""coveredImage test"" style = ""width:100px; height:100px;position:fixed; top:25%;        transform: translate(-50%, -50%);left:58%""></img><img src=""media/f.png""style = ""width:30px x; height:30px;position:fixed; top:43%;    transform: translate(-50%, -50%);left:40%""></img><img src=""media/j.png""style = ""width:30px; height:30px;position:fixed; top:43%;    transform: translate(-50%, -50%);left:60%""></img>","media/stimuli/inanimate_011_right.png","inanimate","right","single","media/stimuli/inanimate_010_right.png","inanimate","right","single","media/stimuli/inanimate_011_left.png","inanimate","left","single","identity_pose"
"","","","","","html-keyboard-response","40","273550","0.0-40.0","SS1678233201886","5f467b0a0d1aef037515c8c9","6406d7f26dd5b7fc1e3377bd","6407ce6b647785827b83a08b","2560","1287","","2147","","f","","","","","","","<img src=""media/stimuli/inanimate_009_left.png"" class=""coveredImage test"" style = ""width:100px; height:100px; position:fixed; top:10%;    transform: translate(-50%, -50%);left:48%""></img><img src=""media/stimuli/inanimate_001_left.png"" class=""coveredImage test"" style = ""width:100px; height:100px;position:fixed; top:25%;        transform: translate(-50%, -50%);left:38%""></img><img src=""media/stimuli/animate_010_left.png"" class=""coveredImage test"" style = ""width:100px; height:100px;position:fixed; top:25%;        transform: translate(-50%, -50%);left:58%""></img><img src=""media/f.png""style = ""width:30px x; height:30px;position:fixed; top:43%;    transform: translate(-50%, -50%);left:40%""></img><img src=""media/j.png""style = ""width:30px; height:30px;position:fixed; top:43%;    transform: translate(-50%, -50%);left:60%""></img>","media/stimuli/inanimate_009_left.png","inanimate","left","single","media/stimuli/inanimate_001_left.png","inanimate","left","single","media/stimuli/animate_010_left.png","animate","left","single","identity_animacy"
"","","","","","html-keyboard-response","41","275209","0.0-41.0","SS1678233201886","5f467b0a0d1aef037515c8c9","6406d7f26dd5b7fc1e3377bd","6407ce6b647785827b83a08b","2560","1287","","1657","","f","","","","","","","<img src=""media/stimuli/animate_012_left.png"" class=""coveredImage test"" style = ""width:100px; height:100px; position:fixed; top:10%;    transform: translate(-50%, -50%);left:48%""></img><img src=""media/stimuli/animate_010_left.png"" class=""coveredImage test"" style = ""width:100px; height:100px;position:fixed; top:25%;        transform: translate(-50%, -50%);left:38%""></img><img src=""media/stimuli/inanimate_006_left.png"" class=""coveredImage test"" style = ""width:100px; height:100px;position:fixed; top:25%;        transform: translate(-50%, -50%);left:58%""></img><img src=""media/f.png""style = ""width:30px x; height:30px;position:fixed; top:43%;    transform: translate(-50%, -50%);left:40%""></img><img src=""media/j.png""style = ""width:30px; height:30px;position:fixed; top:43%;    transform: translate(-50%, -50%);left:60%""></img>","media/stimuli/animate_012_left.png","animate","left","single","media/stimuli/animate_010_left.png","animate","left","single","media/stimuli/inanimate_006_left.png","inanimate","left","single","identity_animacy"
"","","","","","html-keyboard-response","42","276454","0.0-42.0","SS1678233201886","5f467b0a0d1aef037515c8c9","6406d7f26dd5b7fc1e3377bd","6407ce6b647785827b83a08b","2560","1287","","1244","","f","","","","","","","<img src=""media/stimuli/animate_009_left.png"" class=""coveredImage test"" style = ""width:100px; height:100px; position:fixed; top:10%;    transform: translate(-50%, -50%);left:44.5%""></img><img src=""media/stimuli/animate_009_left.png"" class=""coveredImage test"" style = ""width:100px; height:100px; position:fixed; top:10%;    transform: translate(-50%, -50%);left:51.5%""></img><img src=""media/stimuli/animate_009_left.png"" class=""coveredImage test"" style = ""width:100px; height:100px;position:fixed; top:25%;        transform: translate(-50%, -50%);left:38%""></img><img src=""media/stimuli/animate_011_left.png"" class=""coveredImage test"" style = ""width:100px; height:100px;position:fixed; top:25%;        transform: translate(-50%, -50%);left:54.5%""></img><img src=""media/stimuli/animate_011_left.png"" class=""coveredImage test"" style = ""width:100px; height:100px;position:fixed; top:25%;        transform: translate(-50%, -50%);left:61.5%""></img><img src=""media/f.png""style = ""width:30px x; height:30px;position:fixed; top:43%;    transform: translate(-50%, -50%);left:40%""></img><img src=""media/j.png""style = ""width:30px; height:30px;position:fixed; top:43%;    transform: translate(-50%, -50%);left:60%""></img>","media/stimuli/animate_009_left.png","animate","left","pair","media/stimuli/animate_009_left.png","animate","left","single","media/stimuli/animate_011_left.png","animate","left","pair","number_identity"
"","","","","","html-keyboard-response","43","279896","0.0-43.0","SS1678233201886","5f467b0a0d1aef037515c8c9","6406d7f26dd5b7fc1e3377bd","6407ce6b647785827b83a08b","2560","1287","","3440","","j","","","","","","","<img src=""media/stimuli/animate_003_left.png"" class=""coveredImage test"" style = ""width:100px; height:100px; position:fixed; top:10%;    transform: translate(-50%, -50%);left:44.5%""></img><img src=""media/stimuli/animate_003_left.png"" class=""coveredImage test"" style = ""width:100px; height:100px; position:fixed; top:10%;    transform: translate(-50%, -50%);left:51.5%""></img><img src=""media/stimuli/animate_003_left.png"" class=""coveredImage test"" style = ""width:100px; height:100px;position:fixed; top:25%;        transform: translate(-50%, -50%);left:38%""></img><img src=""media/stimuli/animate_003_right.png"" class=""coveredImage test"" style = ""width:100px; height:100px;position:fixed; top:25%;        transform: translate(-50%, -50%);left:54.5%""></img><img src=""media/stimuli/animate_003_right.png"" class=""coveredImage test"" style = ""width:100px; height:100px;position:fixed; top:25%;        transform: translate(-50%, -50%);left:61.5%""></img><img src=""media/f.png""style = ""width:30px x; height:30px;position:fixed; top:43%;    transform: translate(-50%, -50%);left:40%""></img><img src=""media/j.png""style = ""width:30px; height:30px;position:fixed; top:43%;    transform: translate(-50%, -50%);left:60%""></img>","media/stimuli/animate_003_left.png","animate","left","pair","media/stimuli/animate_003_left.png","animate","left","single","media/stimuli/animate_003_right.png","animate","right","pair","number_pose"
"","","","","","html-keyboard-response","44","281423","0.0-44.0","SS1678233201886","5f467b0a0d1aef037515c8c9","6406d7f26dd5b7fc1e3377bd","6407ce6b647785827b83a08b","2560","1287","","1524","","j","","","","","","","<img src=""media/stimuli/animate_011_right.png"" class=""coveredImage test"" style = ""width:100px; height:100px; position:fixed; top:10%;    transform: translate(-50%, -50%);left:48%""></img><img src=""media/stimuli/animate_011_left.png"" class=""coveredImage test"" style = ""width:100px; height:100px;position:fixed; top:25%;        transform: translate(-50%, -50%);left:38%""></img><img src=""media/stimuli/animate_011_right.png"" class=""coveredImage test"" style = ""width:100px; height:100px;position:fixed; top:25%;        transform: translate(-50%, -50%);left:54.5%""></img><img src=""media/stimuli/animate_011_right.png"" class=""coveredImage test"" style = ""width:100px; height:100px;position:fixed; top:25%;        transform: translate(-50%, -50%);left:61.5%""></img><img src=""media/f.png""style = ""width:30px x; height:30px;position:fixed; top:43%;    transform: translate(-50%, -50%);left:40%""></img><img src=""media/j.png""style = ""width:30px; height:30px;position:fixed; top:43%;    transform: translate(-50%, -50%);left:60%""></img>","media/stimuli/animate_011_right.png","animate","right","single","media/stimuli/animate_011_left.png","animate","left","single","media/stimuli/animate_011_right.png","animate","right","pair","pose_number"
"","","","","","html-keyboard-response","45","283149","0.0-45.0","SS1678233201886","5f467b0a0d1aef037515c8c9","6406d7f26dd5b7fc1e3377bd","6407ce6b647785827b83a08b","2560","1287","","1726","","j","","","","","","","<img src=""media/stimuli/animate_010_right.png"" class=""coveredImage test"" style = ""width:100px; height:100px; position:fixed; top:10%;    transform: translate(-50%, -50%);left:48%""></img><img src=""media/stimuli/animate_004_right.png"" class=""coveredImage test"" style = ""width:100px; height:100px;position:fixed; top:25%;        transform: translate(-50%, -50%);left:38%""></img><img src=""media/stimuli/animate_010_left.png"" class=""coveredImage test"" style = ""width:100px; height:100px;position:fixed; top:25%;        transform: translate(-50%, -50%);left:58%""></img><img src=""media/f.png""style = ""width:30px x; height:30px;position:fixed; top:43%;    transform: translate(-50%, -50%);left:40%""></img><img src=""media/j.png""style = ""width:30px; height:30px;position:fixed; top:43%;    transform: translate(-50%, -50%);left:60%""></img>","media/stimuli/animate_010_right.png","animate","right","single","media/stimuli/animate_004_right.png","animate","right","single","media/stimuli/animate_010_left.png","animate","left","single","identity_pose"
"","","","","","html-keyboard-response","46","284632","0.0-46.0","SS1678233201886","5f467b0a0d1aef037515c8c9","6406d7f26dd5b7fc1e3377bd","6407ce6b647785827b83a08b","2560","1287","","1481","","j","","","","","","","","","","","","","","","","","","","",""
"","","","","","html-keyboard-response","47","289690","0.0-47.0","SS1678233201886","5f467b0a0d1aef037515c8c9","6406d7f26dd5b7fc1e3377bd","6407ce6b647785827b83a08b","2560","1287","","5057","","j","","","","","","","<img src=""media/stimuli/animate_007_right.png"" class=""coveredImage test"" style = ""width:100px; height:100px; position:fixed; top:10%;    transform: translate(-50%, -50%);left:48%""></img><img src=""media/stimuli/animate_007_right.png"" class=""coveredImage test"" style = ""width:100px; height:100px;position:fixed; top:25%;        transform: translate(-50%, -50%);left:34.5%""></img><img src=""media/stimuli/animate_007_right.png"" class=""coveredImage test"" style = ""width:100px; height:100px;position:fixed; top:25%;        transform: translate(-50%, -50%);left:41.5%""></img><img src=""media/stimuli/animate_007_left.png"" class=""coveredImage test"" style = ""width:100px; height:100px;position:fixed; top:25%;        transform: translate(-50%, -50%);left:58%""></img><img src=""media/f.png""style = ""width:30px x; height:30px;position:fixed; top:43%;    transform: translate(-50%, -50%);left:40%""></img><img src=""media/j.png""style = ""width:30px; height:30px;position:fixed; top:43%;    transform: translate(-50%, -50%);left:60%""></img>","media/stimuli/animate_007_right.png","animate","right","single","media/stimuli/animate_007_right.png","animate","right","pair","media/stimuli/animate_007_left.png","animate","left","single","number_pose"
"","","","","","html-keyboard-response","48","293132","0.0-48.0","SS1678233201886","5f467b0a0d1aef037515c8c9","6406d7f26dd5b7fc1e3377bd","6407ce6b647785827b83a08b","2560","1287","","3441","","f","","","","","","","<img src=""media/stimuli/inanimate_009_left.png"" class=""coveredImage test"" style = ""width:100px; height:100px; position:fixed; top:10%;    transform: translate(-50%, -50%);left:44.5%""></img><img src=""media/stimuli/inanimate_009_left.png"" class=""coveredImage test"" style = ""width:100px; height:100px; position:fixed; top:10%;    transform: translate(-50%, -50%);left:51.5%""></img><img src=""media/stimuli/inanimate_009_right.png"" class=""coveredImage test"" style = ""width:100px; height:100px;position:fixed; top:25%;        transform: translate(-50%, -50%);left:34.5%""></img><img src=""media/stimuli/inanimate_009_right.png"" class=""coveredImage test"" style = ""width:100px; height:100px;position:fixed; top:25%;        transform: translate(-50%, -50%);left:41.5%""></img><img src=""media/stimuli/inanimate_009_left.png"" class=""coveredImage test"" style = ""width:100px; height:100px;position:fixed; top:25%;        transform: translate(-50%, -50%);left:58%""></img><img src=""media/f.png""style = ""width:30px x; height:30px;position:fixed; top:43%;    transform: translate(-50%, -50%);left:40%""></img><img src=""media/j.png""style = ""width:30px; height:30px;position:fixed; top:43%;    transform: translate(-50%, -50%);left:60%""></img>","media/stimuli/inanimate_009_left.png","inanimate","left","pair","media/stimuli/inanimate_009_right.png","inanimate","right","pair","media/stimuli/inanimate_009_left.png","inanimate","left","single","pose_number"
"","","","","","html-keyboard-response","49","295598","0.0-49.0","SS1678233201886","5f467b0a0d1aef037515c8c9","6406d7f26dd5b7fc1e3377bd","6407ce6b647785827b83a08b","2560","1287","","2464","","j","","","","","","","<img src=""media/stimuli/animate_006_left.png"" class=""coveredImage test"" style = ""width:100px; height:100px; position:fixed; top:10%;    transform: translate(-50%, -50%);left:44.5%""></img><img src=""media/stimuli/animate_006_left.png"" class=""coveredImage test"" style = ""width:100px; height:100px; position:fixed; top:10%;    transform: translate(-50%, -50%);left:51.5%""></img><img src=""media/stimuli/inanimate_010_left.png"" class=""coveredImage test"" style = ""width:100px; height:100px;position:fixed; top:25%;        transform: translate(-50%, -50%);left:34.5%""></img><img src=""media/stimuli/inanimate_010_left.png"" class=""coveredImage test"" style = ""width:100px; height:100px;position:fixed; top:25%;        transform: translate(-50%, -50%);left:41.5%""></img><img src=""media/stimuli/animate_005_left.png"" class=""coveredImage test"" style = ""width:100px; height:100px;position:fixed; top:25%;        transform: translate(-50%, -50%);left:54.5%""></img><img src=""media/stimuli/animate_005_left.png"" class=""coveredImage test"" style = ""width:100px; height:100px;position:fixed; top:25%;        transform: translate(-50%, -50%);left:61.5%""></img><img src=""media/f.png""style = ""width:30px x; height:30px;position:fixed; top:43%;    transform: translate(-50%, -50%);left:40%""></img><img src=""media/j.png""style = ""width:30px; height:30px;position:fixed; top:43%;    transform: translate(-50%, -50%);left:60%""></img>","media/stimuli/animate_006_left.png","animate","left","pair","media/stimuli/inanimate_010_left.png","inanimate","left","pair","media/stimuli/animate_005_left.png","animate","left","pair","animacy_identity"
"","","","","","html-keyboard-response","50","297589","0.0-50.0","SS1678233201886","5f467b0a0d1aef037515c8c9","6406d7f26dd5b7fc1e3377bd","6407ce6b647785827b83a08b","2560","1287","","1989","","f","","","","","","","<img src=""media/stimuli/animate_002_right.png"" class=""coveredImage test"" style = ""width:100px; height:100px; position:fixed; top:10%;    transform: translate(-50%, -50%);left:44.5%""></img><img src=""media/stimuli/animate_002_right.png"" class=""coveredImage test"" style = ""width:100px; height:100px; position:fixed; top:10%;    transform: translate(-50%, -50%);left:51.5%""></img><img src=""media/stimuli/animate_007_right.png"" class=""coveredImage test"" style = ""width:100px; height:100px;position:fixed; top:25%;        transform: translate(-50%, -50%);left:34.5%""></img><img src=""media/stimuli/animate_007_right.png"" class=""coveredImage test"" style = ""width:100px; height:100px;position:fixed; top:25%;        transform: translate(-50%, -50%);left:41.5%""></img><img src=""media/stimuli/inanimate_011_right.png"" class=""coveredImage test"" style = ""width:100px; height:100px;position:fixed; top:25%;        transform: translate(-50%, -50%);left:54.5%""></img><img src=""media/stimuli/inanimate_011_right.png"" class=""coveredImage test"" style = ""width:100px; height:100px;position:fixed; top:25%;        transform: translate(-50%, -50%);left:61.5%""></img><img src=""media/f.png""style = ""width:30px x; height:30px;position:fixed; top:43%;    transform: translate(-50%, -50%);left:40%""></img><img src=""media/j.png""style = ""width:30px; height:30px;position:fixed; top:43%;    transform: translate(-50%, -50%);left:60%""></img>","media/stimuli/animate_002_right.png","animate","right","pair","media/stimuli/animate_007_right.png","animate","right","pair","media/stimuli/inanimate_011_right.png","inanimate","right","pair","identity_animacy"
"","","","","","html-keyboard-response","51","299873","0.0-51.0","SS1678233201886","5f467b0a0d1aef037515c8c9","6406d7f26dd5b7fc1e3377bd","6407ce6b647785827b83a08b","2560","1287","","2283","","f","","","","","","","<img src=""media/stimuli/inanimate_012_left.png"" class=""coveredImage test"" style = ""width:100px; height:100px; position:fixed; top:10%;    transform: translate(-50%, -50%);left:44.5%""></img><img src=""media/stimuli/inanimate_012_left.png"" class=""coveredImage test"" style = ""width:100px; height:100px; position:fixed; top:10%;    transform: translate(-50%, -50%);left:51.5%""></img><img src=""media/stimuli/inanimate_012_right.png"" class=""coveredImage test"" style = ""width:100px; height:100px;position:fixed; top:25%;        transform: translate(-50%, -50%);left:34.5%""></img><img src=""media/stimuli/inanimate_012_right.png"" class=""coveredImage test"" style = ""width:100px; height:100px;position:fixed; top:25%;        transform: translate(-50%, -50%);left:41.5%""></img><img src=""media/stimuli/inanimate_010_left.png"" class=""coveredImage test"" style = ""width:100px; height:100px;position:fixed; top:25%;        transform: translate(-50%, -50%);left:54.5%""></img><img src=""media/stimuli/inanimate_010_left.png"" class=""coveredImage test"" style = ""width:100px; height:100px;position:fixed; top:25%;        transform: translate(-50%, -50%);left:61.5%""></img><img src=""media/f.png""style = ""width:30px x; height:30px;position:fixed; top:43%;    transform: translate(-50%, -50%);left:40%""></img><img src=""media/j.png""style = ""width:30px; height:30px;position:fixed; top:43%;    transform: translate(-50%, -50%);left:60%""></img>","media/stimuli/inanimate_012_left.png","inanimate","left","pair","media/stimuli/inanimate_012_right.png","inanimate","right","pair","media/stimuli/inanimate_010_left.png","inanimate","left","pair","pose_identity"
"","","","","","html-keyboard-response","52","301335","0.0-52.0","SS1678233201886","5f467b0a0d1aef037515c8c9","6406d7f26dd5b7fc1e3377bd","6407ce6b647785827b83a08b","2560","1287","","1460","","f","","","","","","","<img src=""media/stimuli/animate_009_left.png"" class=""coveredImage test"" style = ""width:100px; height:100px; position:fixed; top:10%;    transform: translate(-50%, -50%);left:44.5%""></img><img src=""media/stimuli/animate_009_left.png"" class=""coveredImage test"" style = ""width:100px; height:100px; position:fixed; top:10%;    transform: translate(-50%, -50%);left:51.5%""></img><img src=""media/stimuli/animate_009_left.png"" class=""coveredImage test"" style = ""width:100px; height:100px;position:fixed; top:25%;        transform: translate(-50%, -50%);left:34.5%""></img><img src=""media/stimuli/animate_009_left.png"" class=""coveredImage test"" style = ""width:100px; height:100px;position:fixed; top:25%;        transform: translate(-50%, -50%);left:41.5%""></img><img src=""media/stimuli/inanimate_005_right.png"" class=""coveredImage test"" style = ""width:100px; height:100px;position:fixed; top:25%;        transform: translate(-50%, -50%);left:54.5%""></img><img src=""media/stimuli/inanimate_005_right.png"" class=""coveredImage test"" style = ""width:100px; height:100px;position:fixed; top:25%;        transform: translate(-50%, -50%);left:61.5%""></img><img src=""media/f.png""style = ""width:30px x; height:30px;position:fixed; top:43%;    transform: translate(-50%, -50%);left:40%""></img><img src=""media/j.png""style = ""width:30px; height:30px;position:fixed; top:43%;    transform: translate(-50%, -50%);left:60%""></img>","media/stimuli/animate_009_left.png","animate","left","pair","media/stimuli/animate_009_left.png","animate","left","pair","media/stimuli/inanimate_005_right.png","inanimate","right","pair","pose_animacy"
"","","","","","html-keyboard-response","53","302498","0.0-53.0","SS1678233201886","5f467b0a0d1aef037515c8c9","6406d7f26dd5b7fc1e3377bd","6407ce6b647785827b83a08b","2560","1287","","1161","","f","","","","","","","<img src=""media/stimuli/animate_009_left.png"" class=""coveredImage test"" style = ""width:100px; height:100px; position:fixed; top:10%;    transform: translate(-50%, -50%);left:48%""></img><img src=""media/stimuli/animate_009_right.png"" class=""coveredImage test"" style = ""width:100px; height:100px;position:fixed; top:25%;        transform: translate(-50%, -50%);left:38%""></img><img src=""media/stimuli/animate_004_left.png"" class=""coveredImage test"" style = ""width:100px; height:100px;position:fixed; top:25%;        transform: translate(-50%, -50%);left:58%""></img><img src=""media/f.png""style = ""width:30px x; height:30px;position:fixed; top:43%;    transform: translate(-50%, -50%);left:40%""></img><img src=""media/j.png""style = ""width:30px; height:30px;position:fixed; top:43%;    transform: translate(-50%, -50%);left:60%""></img>","media/stimuli/animate_009_left.png","animate","left","single","media/stimuli/animate_009_right.png","animate","right","single","media/stimuli/animate_004_left.png","animate","left","single","pose_identity"
"","","","","","html-keyboard-response","54","304955","0.0-54.0","SS1678233201886","5f467b0a0d1aef037515c8c9","6406d7f26dd5b7fc1e3377bd","6407ce6b647785827b83a08b","2560","1287","","2455","","f","","","","","","","<img src=""media/stimuli/animate_005_left.png"" class=""coveredImage test"" style = ""width:100px; height:100px; position:fixed; top:10%;    transform: translate(-50%, -50%);left:48%""></img><img src=""media/stimuli/animate_005_left.png"" class=""coveredImage test"" style = ""width:100px; height:100px;position:fixed; top:25%;        transform: translate(-50%, -50%);left:34.5%""></img><img src=""media/stimuli/animate_005_left.png"" class=""coveredImage test"" style = ""width:100px; height:100px;position:fixed; top:25%;        transform: translate(-50%, -50%);left:41.5%""></img><img src=""media/stimuli/animate_005_right.png"" class=""coveredImage test"" style = ""width:100px; height:100px;position:fixed; top:25%;        transform: translate(-50%, -50%);left:58%""></img><img src=""media/f.png""style = ""width:30px x; height:30px;position:fixed; top:43%;    transform: translate(-50%, -50%);left:40%""></img><img src=""media/j.png""style = ""width:30px; height:30px;position:fixed; top:43%;    transform: translate(-50%, -50%);left:60%""></img>","media/stimuli/animate_005_left.png","animate","left","single","media/stimuli/animate_005_left.png","animate","left","pair","media/stimuli/animate_005_right.png","animate","right","single","number_pose"
"","","","","","html-keyboard-response","55","306044","0.0-55.0","SS1678233201886","5f467b0a0d1aef037515c8c9","6406d7f26dd5b7fc1e3377bd","6407ce6b647785827b83a08b","2560","1287","","1087","","j","","","","","","","<img src=""media/stimuli/animate_010_left.png"" class=""coveredImage test"" style = ""width:100px; height:100px; position:fixed; top:10%;    transform: translate(-50%, -50%);left:44.5%""></img><img src=""media/stimuli/animate_010_left.png"" class=""coveredImage test"" style = ""width:100px; height:100px; position:fixed; top:10%;    transform: translate(-50%, -50%);left:51.5%""></img><img src=""media/stimuli/inanimate_008_left.png"" class=""coveredImage test"" style = ""width:100px; height:100px;position:fixed; top:25%;        transform: translate(-50%, -50%);left:34.5%""></img><img src=""media/stimuli/inanimate_008_left.png"" class=""coveredImage test"" style = ""width:100px; height:100px;position:fixed; top:25%;        transform: translate(-50%, -50%);left:41.5%""></img><img src=""media/stimuli/animate_010_right.png"" class=""coveredImage test"" style = ""width:100px; height:100px;position:fixed; top:25%;        transform: translate(-50%, -50%);left:54.5%""></img><img src=""media/stimuli/animate_010_right.png"" class=""coveredImage test"" style = ""width:100px; height:100px;position:fixed; top:25%;        transform: translate(-50%, -50%);left:61.5%""></img><img src=""media/f.png""style = ""width:30px x; height:30px;position:fixed; top:43%;    transform: translate(-50%, -50%);left:40%""></img><img src=""media/j.png""style = ""width:30px; height:30px;position:fixed; top:43%;    transform: translate(-50%, -50%);left:60%""></img>","media/stimuli/animate_010_left.png","animate","left","pair","media/stimuli/inanimate_008_left.png","inanimate","left","pair","media/stimuli/animate_010_right.png","animate","right","pair","animacy_pose"
"","","","","","html-keyboard-response","56","307215","0.0-56.0","SS1678233201886","5f467b0a0d1aef037515c8c9","6406d7f26dd5b7fc1e3377bd","6407ce6b647785827b83a08b","2560","1287","","1169","","j","","","","","","","<img src=""media/stimuli/inanimate_007_left.png"" class=""coveredImage test"" style = ""width:100px; height:100px; position:fixed; top:10%;    transform: translate(-50%, -50%);left:48%""></img><img src=""media/stimuli/inanimate_011_left.png"" class=""coveredImage test"" style = ""width:100px; height:100px;position:fixed; top:25%;        transform: translate(-50%, -50%);left:38%""></img><img src=""media/stimuli/inanimate_007_right.png"" class=""coveredImage test"" style = ""width:100px; height:100px;position:fixed; top:25%;        transform: translate(-50%, -50%);left:58%""></img><img src=""media/f.png""style = ""width:30px x; height:30px;position:fixed; top:43%;    transform: translate(-50%, -50%);left:40%""></img><img src=""media/j.png""style = ""width:30px; height:30px;position:fixed; top:43%;    transform: translate(-50%, -50%);left:60%""></img>","media/stimuli/inanimate_007_left.png","inanimate","left","single","media/stimuli/inanimate_011_left.png","inanimate","left","single","media/stimuli/inanimate_007_right.png","inanimate","right","single","identity_pose"
"","","","","","html-keyboard-response","57","308286","0.0-57.0","SS1678233201886","5f467b0a0d1aef037515c8c9","6406d7f26dd5b7fc1e3377bd","6407ce6b647785827b83a08b","2560","1287","","1070","","j","","","","","","","<img src=""media/stimuli/animate_010_right.png"" class=""coveredImage test"" style = ""width:100px; height:100px; position:fixed; top:10%;    transform: translate(-50%, -50%);left:48%""></img><img src=""media/stimuli/animate_002_right.png"" class=""coveredImage test"" style = ""width:100px; height:100px;position:fixed; top:25%;        transform: translate(-50%, -50%);left:38%""></img><img src=""media/stimuli/animate_010_left.png"" class=""coveredImage test"" style = ""width:100px; height:100px;position:fixed; top:25%;        transform: translate(-50%, -50%);left:58%""></img><img src=""media/f.png""style = ""width:30px x; height:30px;position:fixed; top:43%;    transform: translate(-50%, -50%);left:40%""></img><img src=""media/j.png""style = ""width:30px; height:30px;position:fixed; top:43%;    transform: translate(-50%, -50%);left:60%""></img>","media/stimuli/animate_010_right.png","animate","right","single","media/stimuli/animate_002_right.png","animate","right","single","media/stimuli/animate_010_left.png","animate","left","single","identity_pose"
"","","","","","html-keyboard-response","58","309419","0.0-58.0","SS1678233201886","5f467b0a0d1aef037515c8c9","6406d7f26dd5b7fc1e3377bd","6407ce6b647785827b83a08b","2560","1287","","1132","","j","","","","","","","<img src=""media/stimuli/inanimate_010_left.png"" class=""coveredImage test"" style = ""width:100px; height:100px; position:fixed; top:10%;    transform: translate(-50%, -50%);left:48%""></img><img src=""media/stimuli/animate_005_left.png"" class=""coveredImage test"" style = ""width:100px; height:100px;position:fixed; top:25%;        transform: translate(-50%, -50%);left:38%""></img><img src=""media/stimuli/inanimate_010_left.png"" class=""coveredImage test"" style = ""width:100px; height:100px;position:fixed; top:25%;        transform: translate(-50%, -50%);left:54.5%""></img><img src=""media/stimuli/inanimate_010_left.png"" class=""coveredImage test"" style = ""width:100px; height:100px;position:fixed; top:25%;        transform: translate(-50%, -50%);left:61.5%""></img><img src=""media/f.png""style = ""width:30px x; height:30px;position:fixed; top:43%;    transform: translate(-50%, -50%);left:40%""></img><img src=""media/j.png""style = ""width:30px; height:30px;position:fixed; top:43%;    transform: translate(-50%, -50%);left:60%""></img>","media/stimuli/inanimate_010_left.png","inanimate","left","single","media/stimuli/animate_005_left.png","animate","left","single","media/stimuli/inanimate_010_left.png","inanimate","left","pair","animacy_number"
"","","","","","html-keyboard-response","59","310887","0.0-59.0","SS1678233201886","5f467b0a0d1aef037515c8c9","6406d7f26dd5b7fc1e3377bd","6407ce6b647785827b83a08b","2560","1287","","1466","","j","","","","","","","","","","","","","","","","","","","",""
"","","","","","survey-likert","60","318753","0.0-60.0","SS1678233201886","5f467b0a0d1aef037515c8c9","6406d7f26dd5b7fc1e3377bd","6407ce6b647785827b83a08b","2560","1287","","7863","","{""Q0"":1}","[0]","complexity","media/stimuli/inanimate_009_right.png","inanimate","pair","right","","","","","","","","","","","","","",""
"","","","","","survey-likert","61","321217","0.0-61.0","SS1678233201886","5f467b0a0d1aef037515c8c9","6406d7f26dd5b7fc1e3377bd","6407ce6b647785827b83a08b","2560","1287","","2461","","{""Q0"":1}","[0]","complexity","media/stimuli/inanimate_011_right.png","inanimate","single","right","","","","","","","","","","","","","",""
"","","","","","survey-likert","62","323313","0.0-62.0","SS1678233201886","5f467b0a0d1aef037515c8c9","6406d7f26dd5b7fc1e3377bd","6407ce6b647785827b83a08b","2560","1287","","2093","","{""Q0"":1}","[0]","complexity","media/stimuli/animate_012_right.png","animate","single","right","","","","","","","","","","","","","",""
"","","","","","survey-likert","63","324994","0.0-63.0","SS1678233201886","5f467b0a0d1aef037515c8c9","6406d7f26dd5b7fc1e3377bd","6407ce6b647785827b83a08b","2560","1287","","1678","","{""Q0"":2}","[0]","complexity","media/stimuli/animate_008_right.png","animate","pair","right","","","","","","","","","","","","","",""
"","","","","","survey-likert","64","326762","0.0-64.0","SS1678233201886","5f467b0a0d1aef037515c8c9","6406d7f26dd5b7fc1e3377bd","6407ce6b647785827b83a08b","2560","1287","","1765","","{""Q0"":1}","[0]","complexity","media/stimuli/animate_001_right.png","animate","single","right","","","","","","","","","","","","","",""
"","","","","","survey-likert","65","328378","0.0-65.0","SS1678233201886","5f467b0a0d1aef037515c8c9","6406d7f26dd5b7fc1e3377bd","6407ce6b647785827b83a08b","2560","1287","","1613","","{""Q0"":2}","[0]","complexity","media/stimuli/animate_006_left.png","animate","pair","left","","","","","","","","","","","","","",""
"","","","","","survey-likert","66","330099","0.0-66.0","SS1678233201886","5f467b0a0d1aef037515c8c9","6406d7f26dd5b7fc1e3377bd","6407ce6b647785827b83a08b","2560","1287","","1718","","{""Q0"":2}","[0]","complexity","media/stimuli/animate_002_left.png","animate","pair","left","","","","","","","","","","","","","",""
"","","","","","survey-likert","67","340820","0.0-67.0","SS1678233201886","5f467b0a0d1aef037515c8c9","6406d7f26dd5b7fc1e3377bd","6407ce6b647785827b83a08b","2560","1287","","10717","","{""Q0"":1}","[0]","complexity","media/stimuli/animate_008_left.png","animate","single","left","","","","","","","","","","","","","",""
"","","","","","survey-likert","68","343707","0.0-68.0","SS1678233201886","5f467b0a0d1aef037515c8c9","6406d7f26dd5b7fc1e3377bd","6407ce6b647785827b83a08b","2560","1287","","2885","","{""Q0"":1}","[0]","complexity","media/stimuli/inanimate_011_left.png","inanimate","single","left","","","","","","","","","","","","","",""
"","","","","","survey-likert","69","345933","0.0-69.0","SS1678233201886","5f467b0a0d1aef037515c8c9","6406d7f26dd5b7fc1e3377bd","6407ce6b647785827b83a08b","2560","1287","","2222","","{""Q0"":1}","[0]","complexity","media/stimuli/inanimate_004_right.png","inanimate","single","right","","","","","","","","","","","","","",""
"","","","","","survey-likert","70","347573","0.0-70.0","SS1678233201886","5f467b0a0d1aef037515c8c9","6406d7f26dd5b7fc1e3377bd","6407ce6b647785827b83a08b","2560","1287","","1638","","{""Q0"":2}","[0]","complexity","media/stimuli/animate_004_left.png","animate","pair","left","","","","","","","","","","","","","",""
"","","","","","survey-likert","71","349573","0.0-71.0","SS1678233201886","5f467b0a0d1aef037515c8c9","6406d7f26dd5b7fc1e3377bd","6407ce6b647785827b83a08b","2560","1287","","1996","","{""Q0"":1}","[0]","complexity","media/stimuli/inanimate_002_left.png","inanimate","single","left","","","","","","","","","","","","","",""
"","","","","","html-keyboard-response","72","350899","0.0-72.0","SS1678233201886","5f467b0a0d1aef037515c8c9","6406d7f26dd5b7fc1e3377bd","6407ce6b647785827b83a08b","2560","1287","","1325",""," ","","","","","","","","","","","","","","","","","","","",""
"","","","","","survey-likert","73","352774","0.0-73.0","SS1678233201886","5f467b0a0d1aef037515c8c9","6406d7f26dd5b7fc1e3377bd","6407ce6b647785827b83a08b","2560","1287","","1872","","{""Q0"":1}","[0]","complexity","media/stimuli/inanimate_010_left.png","inanimate","single","left","","","","","","","","","","","","","",""
"","","","","","survey-likert","74","354676","0.0-74.0","SS1678233201886","5f467b0a0d1aef037515c8c9","6406d7f26dd5b7fc1e3377bd","6407ce6b647785827b83a08b","2560","1287","","1901","","{""Q0"":2}","[0]","complexity","media/stimuli/animate_012_right.png","animate","pair","right","","","","","","","","","","","","","",""
"","","","","","survey-likert","75","356293","0.0-75.0","SS1678233201886","5f467b0a0d1aef037515c8c9","6406d7f26dd5b7fc1e3377bd","6407ce6b647785827b83a08b","2560","1287","","1614","","{""Q0"":2}","[0]","complexity","media/stimuli/animate_009_left.png","animate","pair","left","","","","","","","","","","","","","",""
"","","","","","survey-likert","76","357853","0.0-76.0","SS1678233201886","5f467b0a0d1aef037515c8c9","6406d7f26dd5b7fc1e3377bd","6407ce6b647785827b83a08b","2560","1287","","1557","","{""Q0"":2}","[0]","complexity","media/stimuli/inanimate_003_left.png","inanimate","pair","left","","","","","","","","","","","","","",""
"","","","","","survey-likert","77","360174","0.0-77.0","SS1678233201886","5f467b0a0d1aef037515c8c9","6406d7f26dd5b7fc1e3377bd","6407ce6b647785827b83a08b","2560","1287","","2317","","{""Q0"":2}","[0]","complexity","media/stimuli/inanimate_007_right.png","inanimate","single","right","","","","","","","","","","","","","",""
"","","","","","survey-likert","78","362806","0.0-78.0","SS1678233201886","5f467b0a0d1aef037515c8c9","6406d7f26dd5b7fc1e3377bd","6407ce6b647785827b83a08b","2560","1287","","2630","","{""Q0"":2}","[0]","complexity","media/stimuli/inanimate_006_left.png","inanimate","pair","left","","","","","","","","","","","","","",""
"","","","","","survey-likert","79","364846","0.0-79.0","SS1678233201886","5f467b0a0d1aef037515c8c9","6406d7f26dd5b7fc1e3377bd","6407ce6b647785827b83a08b","2560","1287","","2037","","{""Q0"":2}","[0]","complexity","media/stimuli/animate_010_right.png","animate","pair","right","","","","","","","","","","","","","",""
"","","","","","survey-likert","80","368223","0.0-80.0","SS1678233201886","5f467b0a0d1aef037515c8c9","6406d7f26dd5b7fc1e3377bd","6407ce6b647785827b83a08b","2560","1287","","3373","","{""Q0"":1}","[0]","complexity","media/stimuli/inanimate_007_left.png","inanimate","single","left","","","","","","","","","","","","","",""
"","","","","","survey-likert","81","370319","0.0-81.0","SS1678233201886","5f467b0a0d1aef037515c8c9","6406d7f26dd5b7fc1e3377bd","6407ce6b647785827b83a08b","2560","1287","","2092","","{""Q0"":1}","[0]","complexity","media/stimuli/inanimate_004_left.png","inanimate","single","left","","","","","","","","","","","","","",""
"","","","","","survey-likert","82","371775","0.0-82.0","SS1678233201886","5f467b0a0d1aef037515c8c9","6406d7f26dd5b7fc1e3377bd","6407ce6b647785827b83a08b","2560","1287","","1453","","{""Q0"":1}","[0]","complexity","media/stimuli/inanimate_002_right.png","inanimate","single","right","","","","","","","","","","","","","",""
"","","","","","survey-likert","83","374176","0.0-83.0","SS1678233201886","5f467b0a0d1aef037515c8c9","6406d7f26dd5b7fc1e3377bd","6407ce6b647785827b83a08b","2560","1287","","2398","","{""Q0"":2}","[0]","complexity","media/stimuli/inanimate_002_left.png","inanimate","pair","left","","","","","","","","","","","","","",""
"","","","","","survey-likert","84","376769","0.0-84.0","SS1678233201886","5f467b0a0d1aef037515c8c9","6406d7f26dd5b7fc1e3377bd","6407ce6b647785827b83a08b","2560","1287","","2590","","{""Q0"":2}","[0]","complexity","media/stimuli/inanimate_006_right.png","inanimate","pair","right","","","","","","","","","","","","","",""
"","","","","","html-keyboard-response","85","378039","0.0-85.0","SS1678233201886","5f467b0a0d1aef037515c8c9","6406d7f26dd5b7fc1e3377bd","6407ce6b647785827b83a08b","2560","1287","","1268",""," ","","","","","","","","","","","","","","","","","","","",""
"","","","","","html-keyboard-response","86","381944","0.0-86.0","SS1678233201886","5f467b0a0d1aef037515c8c9","6406d7f26dd5b7fc1e3377bd","6407ce6b647785827b83a08b","2560","1287","","3902","","f","","","","","","","<img src=""media/stimuli/animate_004_left.png"" class=""coveredImage test"" style = ""width:100px; height:100px; position:fixed; top:10%;    transform: translate(-50%, -50%);left:44.5%""></img><img src=""media/stimuli/animate_004_left.png"" class=""coveredImage test"" style = ""width:100px; height:100px; position:fixed; top:10%;    transform: translate(-50%, -50%);left:51.5%""></img><img src=""media/stimuli/animate_004_left.png"" class=""coveredImage test"" style = ""width:100px; height:100px;position:fixed; top:25%;        transform: translate(-50%, -50%);left:38%""></img><img src=""media/stimuli/animate_005_left.png"" class=""coveredImage test"" style = ""width:100px; height:100px;position:fixed; top:25%;        transform: translate(-50%, -50%);left:54.5%""></img><img src=""media/stimuli/animate_005_left.png"" class=""coveredImage test"" style = ""width:100px; height:100px;position:fixed; top:25%;        transform: translate(-50%, -50%);left:61.5%""></img><img src=""media/f.png""style = ""width:30px x; height:30px;position:fixed; top:43%;    transform: translate(-50%, -50%);left:40%""></img><img src=""media/j.png""style = ""width:30px; height:30px;position:fixed; top:43%;    transform: translate(-50%, -50%);left:60%""></img>","media/stimuli/animate_004_left.png","animate","left","pair","media/stimuli/animate_004_left.png","animate","left","single","media/stimuli/animate_005_left.png","animate","left","pair","number_identity"
"","","","","","html-keyboard-response","87","383606","0.0-87.0","SS1678233201886","5f467b0a0d1aef037515c8c9","6406d7f26dd5b7fc1e3377bd","6407ce6b647785827b83a08b","2560","1287","","1661","","j","","","","","","","<img src=""media/stimuli/inanimate_001_right.png"" class=""coveredImage test"" style = ""width:100px; height:100px; position:fixed; top:10%;    transform: translate(-50%, -50%);left:44.5%""></img><img src=""media/stimuli/inanimate_001_right.png"" class=""coveredImage test"" style = ""width:100px; height:100px; position:fixed; top:10%;    transform: translate(-50%, -50%);left:51.5%""></img><img src=""media/stimuli/inanimate_004_right.png"" class=""coveredImage test"" style = ""width:100px; height:100px;position:fixed; top:25%;        transform: translate(-50%, -50%);left:34.5%""></img><img src=""media/stimuli/inanimate_004_right.png"" class=""coveredImage test"" style = ""width:100px; height:100px;position:fixed; top:25%;        transform: translate(-50%, -50%);left:41.5%""></img><img src=""media/stimuli/inanimate_001_right.png"" class=""coveredImage test"" style = ""width:100px; height:100px;position:fixed; top:25%;        transform: translate(-50%, -50%);left:58%""></img><img src=""media/f.png""style = ""width:30px x; height:30px;position:fixed; top:43%;    transform: translate(-50%, -50%);left:40%""></img><img src=""media/j.png""style = ""width:30px; height:30px;position:fixed; top:43%;    transform: translate(-50%, -50%);left:60%""></img>","media/stimuli/inanimate_001_right.png","inanimate","right","pair","media/stimuli/inanimate_004_right.png","inanimate","right","pair","media/stimuli/inanimate_001_right.png","inanimate","right","single","identity_number"
"","","","","","html-keyboard-response","88","384818","0.0-88.0","SS1678233201886","5f467b0a0d1aef037515c8c9","6406d7f26dd5b7fc1e3377bd","6407ce6b647785827b83a08b","2560","1287","","1209","","j","","","","","","","<img src=""media/stimuli/animate_003_right.png"" class=""coveredImage test"" style = ""width:100px; height:100px; position:fixed; top:10%;    transform: translate(-50%, -50%);left:48%""></img><img src=""media/stimuli/inanimate_012_right.png"" class=""coveredImage test"" style = ""width:100px; height:100px;position:fixed; top:25%;        transform: translate(-50%, -50%);left:34.5%""></img><img src=""media/stimuli/inanimate_012_right.png"" class=""coveredImage test"" style = ""width:100px; height:100px;position:fixed; top:25%;        transform: translate(-50%, -50%);left:41.5%""></img><img src=""media/stimuli/animate_003_left.png"" class=""coveredImage test"" style = ""width:100px; height:100px;position:fixed; top:25%;        transform: translate(-50%, -50%);left:54.5%""></img><img src=""media/stimuli/animate_003_left.png"" class=""coveredImage test"" style = ""width:100px; height:100px;position:fixed; top:25%;        transform: translate(-50%, -50%);left:61.5%""></img><img src=""media/f.png""style = ""width:30px x; height:30px;position:fixed; top:43%;    transform: translate(-50%, -50%);left:40%""></img><img src=""media/j.png""style = ""width:30px; height:30px;position:fixed; top:43%;    transform: translate(-50%, -50%);left:60%""></img>","media/stimuli/animate_003_right.png","animate","right","single","media/stimuli/inanimate_012_right.png","inanimate","right","pair","media/stimuli/animate_003_left.png","animate","left","pair","animacy_pose"
"","","","","","html-keyboard-response","89","385652","0.0-89.0","SS1678233201886","5f467b0a0d1aef037515c8c9","6406d7f26dd5b7fc1e3377bd","6407ce6b647785827b83a08b","2560","1287","","833","","f","","","","","","","<img src=""media/stimuli/inanimate_009_left.png"" class=""coveredImage test"" style = ""width:100px; height:100px; position:fixed; top:10%;    transform: translate(-50%, -50%);left:44.5%""></img><img src=""media/stimuli/inanimate_009_left.png"" class=""coveredImage test"" style = ""width:100px; height:100px; position:fixed; top:10%;    transform: translate(-50%, -50%);left:51.5%""></img><img src=""media/stimuli/inanimate_009_left.png"" class=""coveredImage test"" style = ""width:100px; height:100px;position:fixed; top:25%;        transform: translate(-50%, -50%);left:38%""></img><img src=""media/stimuli/inanimate_007_left.png"" class=""coveredImage test"" style = ""width:100px; height:100px;position:fixed; top:25%;        transform: translate(-50%, -50%);left:54.5%""></img><img src=""media/stimuli/inanimate_007_left.png"" class=""coveredImage test"" style = ""width:100px; height:100px;position:fixed; top:25%;        transform: translate(-50%, -50%);left:61.5%""></img><img src=""media/f.png""style = ""width:30px x; height:30px;position:fixed; top:43%;    transform: translate(-50%, -50%);left:40%""></img><img src=""media/j.png""style = ""width:30px; height:30px;position:fixed; top:43%;    transform: translate(-50%, -50%);left:60%""></img>","media/stimuli/inanimate_009_left.png","inanimate","left","pair","media/stimuli/inanimate_009_left.png","inanimate","left","single","media/stimuli/inanimate_007_left.png","inanimate","left","pair","number_identity"
"","","","","","html-keyboard-response","90","386532","0.0-90.0","SS1678233201886","5f467b0a0d1aef037515c8c9","6406d7f26dd5b7fc1e3377bd","6407ce6b647785827b83a08b","2560","1287","","878","","f","","","","","","","<img src=""media/stimuli/animate_011_left.png"" class=""coveredImage test"" style = ""width:100px; height:100px; position:fixed; top:10%;    transform: translate(-50%, -50%);left:48%""></img><img src=""media/stimuli/animate_011_left.png"" class=""coveredImage test"" style = ""width:100px; height:100px;position:fixed; top:25%;        transform: translate(-50%, -50%);left:34.5%""></img><img src=""media/stimuli/animate_011_left.png"" class=""coveredImage test"" style = ""width:100px; height:100px;position:fixed; top:25%;        transform: translate(-50%, -50%);left:41.5%""></img><img src=""media/stimuli/inanimate_009_left.png"" class=""coveredImage test"" style = ""width:100px; height:100px;position:fixed; top:25%;        transform: translate(-50%, -50%);left:58%""></img><img src=""media/f.png""style = ""width:30px x; height:30px;position:fixed; top:43%;    transform: translate(-50%, -50%);left:40%""></img><img src=""media/j.png""style = ""width:30px; height:30px;position:fixed; top:43%;    transform: translate(-50%, -50%);left:60%""></img>","media/stimuli/animate_011_left.png","animate","left","single","media/stimuli/animate_011_left.png","animate","left","pair","media/stimuli/inanimate_009_left.png","inanimate","left","single","number_animacy"
"","","","","","html-keyboard-response","91","388924","0.0-91.0","SS1678233201886","5f467b0a0d1aef037515c8c9","6406d7f26dd5b7fc1e3377bd","6407ce6b647785827b83a08b","2560","1287","","2389","","f","","","","","","","<img src=""media/stimuli/inanimate_008_right.png"" class=""coveredImage test"" style = ""width:100px; height:100px; position:fixed; top:10%;    transform: translate(-50%, -50%);left:48%""></img><img src=""media/stimuli/inanimate_005_right.png"" class=""coveredImage test"" style = ""width:100px; height:100px;position:fixed; top:25%;        transform: translate(-50%, -50%);left:38%""></img><img src=""media/stimuli/animate_011_right.png"" class=""coveredImage test"" style = ""width:100px; height:100px;position:fixed; top:25%;        transform: translate(-50%, -50%);left:58%""></img><img src=""media/f.png""style = ""width:30px x; height:30px;position:fixed; top:43%;    transform: translate(-50%, -50%);left:40%""></img><img src=""media/j.png""style = ""width:30px; height:30px;position:fixed; top:43%;    transform: translate(-50%, -50%);left:60%""></img>","media/stimuli/inanimate_008_right.png","inanimate","right","single","media/stimuli/inanimate_005_right.png","inanimate","right","single","media/stimuli/animate_011_right.png","animate","right","single","identity_animacy"
"","","","","","html-keyboard-response","92","389662","0.0-92.0","SS1678233201886","5f467b0a0d1aef037515c8c9","6406d7f26dd5b7fc1e3377bd","6407ce6b647785827b83a08b","2560","1287","","735","","f","","","","","","","<img src=""media/stimuli/inanimate_001_right.png"" class=""coveredImage test"" style = ""width:100px; height:100px; position:fixed; top:10%;    transform: translate(-50%, -50%);left:44.5%""></img><img src=""media/stimuli/inanimate_001_right.png"" class=""coveredImage test"" style = ""width:100px; height:100px; position:fixed; top:10%;    transform: translate(-50%, -50%);left:51.5%""></img><img src=""media/stimuli/inanimate_001_right.png"" class=""coveredImage test"" style = ""width:100px; height:100px;position:fixed; top:25%;        transform: translate(-50%, -50%);left:38%""></img><img src=""media/stimuli/inanimate_011_right.png"" class=""coveredImage test"" style = ""width:100px; height:100px;position:fixed; top:25%;        transform: translate(-50%, -50%);left:54.5%""></img><img src=""media/stimuli/inanimate_011_right.png"" class=""coveredImage test"" style = ""width:100px; height:100px;position:fixed; top:25%;        transform: translate(-50%, -50%);left:61.5%""></img><img src=""media/f.png""style = ""width:30px x; height:30px;position:fixed; top:43%;    transform: translate(-50%, -50%);left:40%""></img><img src=""media/j.png""style = ""width:30px; height:30px;position:fixed; top:43%;    transform: translate(-50%, -50%);left:60%""></img>","media/stimuli/inanimate_001_right.png","inanimate","right","pair","media/stimuli/inanimate_001_right.png","inanimate","right","single","media/stimuli/inanimate_011_right.png","inanimate","right","pair","number_identity"
"","","","","","html-keyboard-response","93","391030","0.0-93.0","SS1678233201886","5f467b0a0d1aef037515c8c9","6406d7f26dd5b7fc1e3377bd","6407ce6b647785827b83a08b","2560","1287","","1364","","j","","","","","","","<img src=""media/stimuli/animate_006_left.png"" class=""coveredImage test"" style = ""width:100px; height:100px; position:fixed; top:10%;    transform: translate(-50%, -50%);left:48%""></img><img src=""media/stimuli/animate_010_left.png"" class=""coveredImage test"" style = ""width:100px; height:100px;position:fixed; top:25%;        transform: translate(-50%, -50%);left:38%""></img><img src=""media/stimuli/animate_006_right.png"" class=""coveredImage test"" style = ""width:100px; height:100px;position:fixed; top:25%;        transform: translate(-50%, -50%);left:58%""></img><img src=""media/f.png""style = ""width:30px x; height:30px;position:fixed; top:43%;    transform: translate(-50%, -50%);left:40%""></img><img src=""media/j.png""style = ""width:30px; height:30px;position:fixed; top:43%;    transform: translate(-50%, -50%);left:60%""></img>","media/stimuli/animate_006_left.png","animate","left","single","media/stimuli/animate_010_left.png","animate","left","single","media/stimuli/animate_006_right.png","animate","right","single","identity_pose"
"","","","","","html-keyboard-response","94","392725","0.0-94.0","SS1678233201886","5f467b0a0d1aef037515c8c9","6406d7f26dd5b7fc1e3377bd","6407ce6b647785827b83a08b","2560","1287","","1693","","f","","","","","","","<img src=""media/stimuli/animate_012_left.png"" class=""coveredImage test"" style = ""width:100px; height:100px; position:fixed; top:10%;    transform: translate(-50%, -50%);left:48%""></img><img src=""media/stimuli/animate_012_right.png"" class=""coveredImage test"" style = ""width:100px; height:100px;position:fixed; top:25%;        transform: translate(-50%, -50%);left:38%""></img><img src=""media/stimuli/animate_012_left.png"" class=""coveredImage test"" style = ""width:100px; height:100px;position:fixed; top:25%;        transform: translate(-50%, -50%);left:54.5%""></img><img src=""media/stimuli/animate_012_left.png"" class=""coveredImage test"" style = ""width:100px; height:100px;position:fixed; top:25%;        transform: translate(-50%, -50%);left:61.5%""></img><img src=""media/f.png""style = ""width:30px x; height:30px;position:fixed; top:43%;    transform: translate(-50%, -50%);left:40%""></img><img src=""media/j.png""style = ""width:30px; height:30px;position:fixed; top:43%;    transform: translate(-50%, -50%);left:60%""></img>","media/stimuli/animate_012_left.png","animate","left","single","media/stimuli/animate_012_right.png","animate","right","single","media/stimuli/animate_012_left.png","animate","left","pair","pose_number"
"","","","","","html-keyboard-response","95","394552","0.0-95.0","SS1678233201886","5f467b0a0d1aef037515c8c9","6406d7f26dd5b7fc1e3377bd","6407ce6b647785827b83a08b","2560","1287","","1823","","f","","","","","","","<img src=""media/stimuli/inanimate_008_left.png"" class=""coveredImage test"" style = ""width:100px; height:100px; position:fixed; top:10%;    transform: translate(-50%, -50%);left:44.5%""></img><img src=""media/stimuli/inanimate_008_left.png"" class=""coveredImage test"" style = ""width:100px; height:100px; position:fixed; top:10%;    transform: translate(-50%, -50%);left:51.5%""></img><img src=""media/stimuli/inanimate_008_left.png"" class=""coveredImage test"" style = ""width:100px; height:100px;position:fixed; top:25%;        transform: translate(-50%, -50%);left:38%""></img><img src=""media/stimuli/animate_006_left.png"" class=""coveredImage test"" style = ""width:100px; height:100px;position:fixed; top:25%;        transform: translate(-50%, -50%);left:54.5%""></img><img src=""media/stimuli/animate_006_left.png"" class=""coveredImage test"" style = ""width:100px; height:100px;position:fixed; top:25%;        transform: translate(-50%, -50%);left:61.5%""></img><img src=""media/f.png""style = ""width:30px x; height:30px;position:fixed; top:43%;    transform: translate(-50%, -50%);left:40%""></img><img src=""media/j.png""style = ""width:30px; height:30px;position:fixed; top:43%;    transform: translate(-50%, -50%);left:60%""></img>","media/stimuli/inanimate_008_left.png","inanimate","left","pair","media/stimuli/inanimate_008_left.png","inanimate","left","single","media/stimuli/animate_006_left.png","animate","left","pair","number_animacy"
"","","","","","html-keyboard-response","96","395775","0.0-96.0","SS1678233201886","5f467b0a0d1aef037515c8c9","6406d7f26dd5b7fc1e3377bd","6407ce6b647785827b83a08b","2560","1287","","1220","","f","","","","","","","<img src=""media/stimuli/inanimate_005_left.png"" class=""coveredImage test"" style = ""width:100px; height:100px; position:fixed; top:10%;    transform: translate(-50%, -50%);left:48%""></img><img src=""media/stimuli/inanimate_005_left.png"" class=""coveredImage test"" style = ""width:100px; height:100px;position:fixed; top:25%;        transform: translate(-50%, -50%);left:34.5%""></img><img src=""media/stimuli/inanimate_005_left.png"" class=""coveredImage test"" style = ""width:100px; height:100px;position:fixed; top:25%;        transform: translate(-50%, -50%);left:41.5%""></img><img src=""media/stimuli/inanimate_006_left.png"" class=""coveredImage test"" style = ""width:100px; height:100px;position:fixed; top:25%;        transform: translate(-50%, -50%);left:58%""></img><img src=""media/f.png""style = ""width:30px x; height:30px;position:fixed; top:43%;    transform: translate(-50%, -50%);left:40%""></img><img src=""media/j.png""style = ""width:30px; height:30px;position:fixed; top:43%;    transform: translate(-50%, -50%);left:60%""></img>","media/stimuli/inanimate_005_left.png","inanimate","left","single","media/stimuli/inanimate_005_left.png","inanimate","left","pair","media/stimuli/inanimate_006_left.png","inanimate","left","single","number_identity"
"","","","","","html-keyboard-response","97","396635","0.0-97.0","SS1678233201886","5f467b0a0d1aef037515c8c9","6406d7f26dd5b7fc1e3377bd","6407ce6b647785827b83a08b","2560","1287","","858","","f","","","","","","","<img src=""media/stimuli/animate_007_right.png"" class=""coveredImage test"" style = ""width:100px; height:100px; position:fixed; top:10%;    transform: translate(-50%, -50%);left:44.5%""></img><img src=""media/stimuli/animate_007_right.png"" class=""coveredImage test"" style = ""width:100px; height:100px; position:fixed; top:10%;    transform: translate(-50%, -50%);left:51.5%""></img><img src=""media/stimuli/animate_007_right.png"" class=""coveredImage test"" style = ""width:100px; height:100px;position:fixed; top:25%;        transform: translate(-50%, -50%);left:38%""></img><img src=""media/stimuli/inanimate_006_right.png"" class=""coveredImage test"" style = ""width:100px; height:100px;position:fixed; top:25%;        transform: translate(-50%, -50%);left:54.5%""></img><img src=""media/stimuli/inanimate_006_right.png"" class=""coveredImage test"" style = ""width:100px; height:100px;position:fixed; top:25%;        transform: translate(-50%, -50%);left:61.5%""></img><img src=""media/f.png""style = ""width:30px x; height:30px;position:fixed; top:43%;    transform: translate(-50%, -50%);left:40%""></img><img src=""media/j.png""style = ""width:30px; height:30px;position:fixed; top:43%;    transform: translate(-50%, -50%);left:60%""></img>","media/stimuli/animate_007_right.png","animate","right","pair","media/stimuli/animate_007_right.png","animate","right","single","media/stimuli/inanimate_006_right.png","inanimate","right","pair","number_animacy"
"","","","","","html-keyboard-response","98","398021","0.0-98.0","SS1678233201886","5f467b0a0d1aef037515c8c9","6406d7f26dd5b7fc1e3377bd","6407ce6b647785827b83a08b","2560","1287","","1383","","f","","","","","","","","","","","","","","","","","","","",""
"","","","","","survey-likert","99","402203","0.0-99.0","SS1678233201886","5f467b0a0d1aef037515c8c9","6406d7f26dd5b7fc1e3377bd","6407ce6b647785827b83a08b","2560","1287","","4180","","{""Q0"":2}","[0]","complexity","media/stimuli/inanimate_011_right.png","inanimate","pair","right","","","","","","","","","","","","","",""
"","","","","","survey-likert","100","403803","0.0-100.0","SS1678233201886","5f467b0a0d1aef037515c8c9","6406d7f26dd5b7fc1e3377bd","6407ce6b647785827b83a08b","2560","1287","","1597","","{""Q0"":2}","[0]","complexity","media/stimuli/animate_006_right.png","animate","pair","right","","","","","","","","","","","","","",""
"","","","","","survey-likert","101","408243","0.0-101.0","SS1678233201886","5f467b0a0d1aef037515c8c9","6406d7f26dd5b7fc1e3377bd","6407ce6b647785827b83a08b","2560","1287","","4438","","{""Q0"":2}","[0]","complexity","media/stimuli/animate_009_right.png","animate","pair","right","","","","","","","","","","","","","",""
"","","","","","survey-likert","102","409796","0.0-102.0","SS1678233201886","5f467b0a0d1aef037515c8c9","6406d7f26dd5b7fc1e3377bd","6407ce6b647785827b83a08b","2560","1287","","1550","","{""Q0"":1}","[0]","complexity","media/stimuli/animate_003_left.png","animate","single","left","","","","","","","","","","","","","",""
"","","","","","survey-likert","103","411734","0.0-103.0","SS1678233201886","5f467b0a0d1aef037515c8c9","6406d7f26dd5b7fc1e3377bd","6407ce6b647785827b83a08b","2560","1287","","1932","","{""Q0"":2}","[0]","complexity","media/stimuli/animate_005_left.png","animate","single","left","","","","","","","","","","","","","",""
"","","","","","survey-likert","104","415861","0.0-104.0","SS1678233201886","5f467b0a0d1aef037515c8c9","6406d7f26dd5b7fc1e3377bd","6407ce6b647785827b83a08b","2560","1287","","4124","","{""Q0"":2}","[0]","complexity","media/stimuli/inanimate_005_right.png","inanimate","pair","right","","","","","","","","","","","","","",""
"","","","","","survey-likert","105","417517","0.0-105.0","SS1678233201886","5f467b0a0d1aef037515c8c9","6406d7f26dd5b7fc1e3377bd","6407ce6b647785827b83a08b","2560","1287","","1653","","{""Q0"":2}","[0]","complexity","media/stimuli/inanimate_011_left.png","inanimate","pair","left","","","","","","","","","","","","","",""
"","","","","","survey-likert","106","419701","0.0-106.0","SS1678233201886","5f467b0a0d1aef037515c8c9","6406d7f26dd5b7fc1e3377bd","6407ce6b647785827b83a08b","2560","1287","","2181","","{""Q0"":2}","[0]","complexity","media/stimuli/inanimate_012_left.png","inanimate","pair","left","","","","","","","","","","","","","",""
"","","","","","survey-likert","107","421494","0.0-107.0","SS1678233201886","5f467b0a0d1aef037515c8c9","6406d7f26dd5b7fc1e3377bd","6407ce6b647785827b83a08b","2560","1287","","1790","","{""Q0"":1}","[0]","complexity","media/stimuli/animate_002_left.png","animate","single","left","","","","","","","","","","","","","",""
"","","","","","survey-likert","108","423149","0.0-108.0","SS1678233201886","5f467b0a0d1aef037515c8c9","6406d7f26dd5b7fc1e3377bd","6407ce6b647785827b83a08b","2560","1287","","1652","","{""Q0"":2}","[0]","complexity","media/stimuli/inanimate_012_right.png","inanimate","pair","right","","","","","","","","","","","","","",""
"","","","","","survey-likert","109","427677","0.0-109.0","SS1678233201886","5f467b0a0d1aef037515c8c9","6406d7f26dd5b7fc1e3377bd","6407ce6b647785827b83a08b","2560","1287","","4525","","{""Q0"":2}","[0]","complexity","media/stimuli/animate_011_left.png","animate","pair","left","","","","","","","","","","","","","",""
"","","","","","survey-likert","110","430134","0.0-110.0","SS1678233201886","5f467b0a0d1aef037515c8c9","6406d7f26dd5b7fc1e3377bd","6407ce6b647785827b83a08b","2560","1287","","2454","","{""Q0"":1}","[0]","complexity","media/stimuli/animate_005_right.png","animate","single","right","","","","","","","","","","","","","",""
"","","","","","html-keyboard-response","111","437924","0.0-111.0","SS1678233201886","5f467b0a0d1aef037515c8c9","6406d7f26dd5b7fc1e3377bd","6407ce6b647785827b83a08b","2560","1287","","7787","","j","","","","","","","","","","","","","","","","","","","",""
"","","","","","html-keyboard-response","112","439729","0.0-112.0","SS1678233201886","5f467b0a0d1aef037515c8c9","6406d7f26dd5b7fc1e3377bd","6407ce6b647785827b83a08b","2560","1287","","1801","","j","","","","","","","<img src=""media/stimuli/inanimate_002_left.png"" class=""coveredImage test"" style = ""width:100px; height:100px; position:fixed; top:10%;    transform: translate(-50%, -50%);left:44.5%""></img><img src=""media/stimuli/inanimate_002_left.png"" class=""coveredImage test"" style = ""width:100px; height:100px; position:fixed; top:10%;    transform: translate(-50%, -50%);left:51.5%""></img><img src=""media/stimuli/animate_004_left.png"" class=""coveredImage test"" style = ""width:100px; height:100px;position:fixed; top:25%;        transform: translate(-50%, -50%);left:34.5%""></img><img src=""media/stimuli/animate_004_left.png"" class=""coveredImage test"" style = ""width:100px; height:100px;position:fixed; top:25%;        transform: translate(-50%, -50%);left:41.5%""></img><img src=""media/stimuli/inanimate_002_left.png"" class=""coveredImage test"" style = ""width:100px; height:100px;position:fixed; top:25%;        transform: translate(-50%, -50%);left:58%""></img><img src=""media/f.png""style = ""width:30px x; height:30px;position:fixed; top:43%;    transform: translate(-50%, -50%);left:40%""></img><img src=""media/j.png""style = ""width:30px; height:30px;position:fixed; top:43%;    transform: translate(-50%, -50%);left:60%""></img>","media/stimuli/inanimate_002_left.png","inanimate","left","pair","media/stimuli/animate_004_left.png","animate","left","pair","media/stimuli/inanimate_002_left.png","inanimate","left","single","animacy_number"
"","","","","","html-keyboard-response","113","440768","0.0-113.0","SS1678233201886","5f467b0a0d1aef037515c8c9","6406d7f26dd5b7fc1e3377bd","6407ce6b647785827b83a08b","2560","1287","","1036","","f","","","","","","","<img src=""media/stimuli/animate_010_right.png"" class=""coveredImage test"" style = ""width:100px; height:100px; position:fixed; top:10%;    transform: translate(-50%, -50%);left:44.5%""></img><img src=""media/stimuli/animate_010_right.png"" class=""coveredImage test"" style = ""width:100px; height:100px; position:fixed; top:10%;    transform: translate(-50%, -50%);left:51.5%""></img><img src=""media/stimuli/animate_009_right.png"" class=""coveredImage test"" style = ""width:100px; height:100px;position:fixed; top:25%;        transform: translate(-50%, -50%);left:34.5%""></img><img src=""media/stimuli/animate_009_right.png"" class=""coveredImage test"" style = ""width:100px; height:100px;position:fixed; top:25%;        transform: translate(-50%, -50%);left:41.5%""></img><img src=""media/stimuli/inanimate_002_right.png"" class=""coveredImage test"" style = ""width:100px; height:100px;position:fixed; top:25%;        transform: translate(-50%, -50%);left:54.5%""></img><img src=""media/stimuli/inanimate_002_right.png"" class=""coveredImage test"" style = ""width:100px; height:100px;position:fixed; top:25%;        transform: translate(-50%, -50%);left:61.5%""></img><img src=""media/f.png""style = ""width:30px x; height:30px;position:fixed; top:43%;    transform: translate(-50%, -50%);left:40%""></img><img src=""media/j.png""style = ""width:30px; height:30px;position:fixed; top:43%;    transform: translate(-50%, -50%);left:60%""></img>","media/stimuli/animate_010_right.png","animate","right","pair","media/stimuli/animate_009_right.png","animate","right","pair","media/stimuli/inanimate_002_right.png","inanimate","right","pair","identity_animacy"
"","","","","","html-keyboard-response","114","441766","0.0-114.0","SS1678233201886","5f467b0a0d1aef037515c8c9","6406d7f26dd5b7fc1e3377bd","6407ce6b647785827b83a08b","2560","1287","","995","","f","","","","","","","<img src=""media/stimuli/inanimate_004_left.png"" class=""coveredImage test"" style = ""width:100px; height:100px; position:fixed; top:10%;    transform: translate(-50%, -50%);left:44.5%""></img><img src=""media/stimuli/inanimate_004_left.png"" class=""coveredImage test"" style = ""width:100px; height:100px; position:fixed; top:10%;    transform: translate(-50%, -50%);left:51.5%""></img><img src=""media/stimuli/inanimate_004_right.png"" class=""coveredImage test"" style = ""width:100px; height:100px;position:fixed; top:25%;        transform: translate(-50%, -50%);left:34.5%""></img><img src=""media/stimuli/inanimate_004_right.png"" class=""coveredImage test"" style = ""width:100px; height:100px;position:fixed; top:25%;        transform: translate(-50%, -50%);left:41.5%""></img><img src=""media/stimuli/animate_007_left.png"" class=""coveredImage test"" style = ""width:100px; height:100px;position:fixed; top:25%;        transform: translate(-50%, -50%);left:54.5%""></img><img src=""media/stimuli/animate_007_left.png"" class=""coveredImage test"" style = ""width:100px; height:100px;position:fixed; top:25%;        transform: translate(-50%, -50%);left:61.5%""></img><img src=""media/f.png""style = ""width:30px x; height:30px;position:fixed; top:43%;    transform: translate(-50%, -50%);left:40%""></img><img src=""media/j.png""style = ""width:30px; height:30px;position:fixed; top:43%;    transform: translate(-50%, -50%);left:60%""></img>","media/stimuli/inanimate_004_left.png","inanimate","left","pair","media/stimuli/inanimate_004_right.png","inanimate","right","pair","media/stimuli/animate_007_left.png","animate","left","pair","pose_animacy"
"","","","","","html-keyboard-response","115","442614","0.0-115.0","SS1678233201886","5f467b0a0d1aef037515c8c9","6406d7f26dd5b7fc1e3377bd","6407ce6b647785827b83a08b","2560","1287","","845","","f","","","","","","","<img src=""media/stimuli/inanimate_001_right.png"" class=""coveredImage test"" style = ""width:100px; height:100px; position:fixed; top:10%;    transform: translate(-50%, -50%);left:44.5%""></img><img src=""media/stimuli/inanimate_001_right.png"" class=""coveredImage test"" style = ""width:100px; height:100px; position:fixed; top:10%;    transform: translate(-50%, -50%);left:51.5%""></img><img src=""media/stimuli/inanimate_001_right.png"" class=""coveredImage test"" style = ""width:100px; height:100px;position:fixed; top:25%;        transform: translate(-50%, -50%);left:38%""></img><img src=""media/stimuli/inanimate_007_right.png"" class=""coveredImage test"" style = ""width:100px; height:100px;position:fixed; top:25%;        transform: translate(-50%, -50%);left:54.5%""></img><img src=""media/stimuli/inanimate_007_right.png"" class=""coveredImage test"" style = ""width:100px; height:100px;position:fixed; top:25%;        transform: translate(-50%, -50%);left:61.5%""></img><img src=""media/f.png""style = ""width:30px x; height:30px;position:fixed; top:43%;    transform: translate(-50%, -50%);left:40%""></img><img src=""media/j.png""style = ""width:30px; height:30px;position:fixed; top:43%;    transform: translate(-50%, -50%);left:60%""></img>","media/stimuli/inanimate_001_right.png","inanimate","right","pair","media/stimuli/inanimate_001_right.png","inanimate","right","single","media/stimuli/inanimate_007_right.png","inanimate","right","pair","number_identity"
"","","","","","html-keyboard-response","116","443799","0.0-116.0","SS1678233201886","5f467b0a0d1aef037515c8c9","6406d7f26dd5b7fc1e3377bd","6407ce6b647785827b83a08b","2560","1287","","1182","","f","","","","","","","<img src=""media/stimuli/animate_009_left.png"" class=""coveredImage test"" style = ""width:100px; height:100px; position:fixed; top:10%;    transform: translate(-50%, -50%);left:48%""></img><img src=""media/stimuli/animate_009_right.png"" class=""coveredImage test"" style = ""width:100px; height:100px;position:fixed; top:25%;        transform: translate(-50%, -50%);left:38%""></img><img src=""media/stimuli/animate_007_left.png"" class=""coveredImage test"" style = ""width:100px; height:100px;position:fixed; top:25%;        transform: translate(-50%, -50%);left:58%""></img><img src=""media/f.png""style = ""width:30px x; height:30px;position:fixed; top:43%;    transform: translate(-50%, -50%);left:40%""></img><img src=""media/j.png""style = ""width:30px; height:30px;position:fixed; top:43%;    transform: translate(-50%, -50%);left:60%""></img>","media/stimuli/animate_009_left.png","animate","left","single","media/stimuli/animate_009_right.png","animate","right","single","media/stimuli/animate_007_left.png","animate","left","single","pose_identity"
"","","","","","html-keyboard-response","117","445585","0.0-117.0","SS1678233201886","5f467b0a0d1aef037515c8c9","6406d7f26dd5b7fc1e3377bd","6407ce6b647785827b83a08b","2560","1287","","1783","","j","","","","","","","<img src=""media/stimuli/animate_009_right.png"" class=""coveredImage test"" style = ""width:100px; height:100px; position:fixed; top:10%;    transform: translate(-50%, -50%);left:44.5%""></img><img src=""media/stimuli/animate_009_right.png"" class=""coveredImage test"" style = ""width:100px; height:100px; position:fixed; top:10%;    transform: translate(-50%, -50%);left:51.5%""></img><img src=""media/stimuli/inanimate_001_right.png"" class=""coveredImage test"" style = ""width:100px; height:100px;position:fixed; top:25%;        transform: translate(-50%, -50%);left:34.5%""></img><img src=""media/stimuli/inanimate_001_right.png"" class=""coveredImage test"" style = ""width:100px; height:100px;position:fixed; top:25%;        transform: translate(-50%, -50%);left:41.5%""></img><img src=""media/stimuli/animate_010_right.png"" class=""coveredImage test"" style = ""width:100px; height:100px;position:fixed; top:25%;        transform: translate(-50%, -50%);left:54.5%""></img><img src=""media/stimuli/animate_010_right.png"" class=""coveredImage test"" style = ""width:100px; height:100px;position:fixed; top:25%;        transform: translate(-50%, -50%);left:61.5%""></img><img src=""media/f.png""style = ""width:30px x; height:30px;position:fixed; top:43%;    transform: translate(-50%, -50%);left:40%""></img><img src=""media/j.png""style = ""width:30px; height:30px;position:fixed; top:43%;    transform: translate(-50%, -50%);left:60%""></img>","media/stimuli/animate_009_right.png","animate","right","pair","media/stimuli/inanimate_001_right.png","inanimate","right","pair","media/stimuli/animate_010_right.png","animate","right","pair","animacy_identity"
"","","","","","html-keyboard-response","118","446746","0.0-118.0","SS1678233201886","5f467b0a0d1aef037515c8c9","6406d7f26dd5b7fc1e3377bd","6407ce6b647785827b83a08b","2560","1287","","1159","","j","","","","","","","<img src=""media/stimuli/inanimate_008_left.png"" class=""coveredImage test"" style = ""width:100px; height:100px; position:fixed; top:10%;    transform: translate(-50%, -50%);left:44.5%""></img><img src=""media/stimuli/inanimate_008_left.png"" class=""coveredImage test"" style = ""width:100px; height:100px; position:fixed; top:10%;    transform: translate(-50%, -50%);left:51.5%""></img><img src=""media/stimuli/inanimate_001_left.png"" class=""coveredImage test"" style = ""width:100px; height:100px;position:fixed; top:25%;        transform: translate(-50%, -50%);left:34.5%""></img><img src=""media/stimuli/inanimate_001_left.png"" class=""coveredImage test"" style = ""width:100px; height:100px;position:fixed; top:25%;        transform: translate(-50%, -50%);left:41.5%""></img><img src=""media/stimuli/inanimate_008_left.png"" class=""coveredImage test"" style = ""width:100px; height:100px;position:fixed; top:25%;        transform: translate(-50%, -50%);left:58%""></img><img src=""media/f.png""style = ""width:30px x; height:30px;position:fixed; top:43%;    transform: translate(-50%, -50%);left:40%""></img><img src=""media/j.png""style = ""width:30px; height:30px;position:fixed; top:43%;    transform: translate(-50%, -50%);left:60%""></img>","media/stimuli/inanimate_008_left.png","inanimate","left","pair","media/stimuli/inanimate_001_left.png","inanimate","left","pair","media/stimuli/inanimate_008_left.png","inanimate","left","single","identity_number"
"","","","","","html-keyboard-response","119","448242","0.0-119.0","SS1678233201886","5f467b0a0d1aef037515c8c9","6406d7f26dd5b7fc1e3377bd","6407ce6b647785827b83a08b","2560","1287","","1492","","j","","","","","","","<img src=""media/stimuli/inanimate_012_right.png"" class=""coveredImage test"" style = ""width:100px; height:100px; position:fixed; top:10%;    transform: translate(-50%, -50%);left:44.5%""></img><img src=""media/stimuli/inanimate_012_right.png"" class=""coveredImage test"" style = ""width:100px; height:100px; position:fixed; top:10%;    transform: translate(-50%, -50%);left:51.5%""></img><img src=""media/stimuli/inanimate_003_right.png"" class=""coveredImage test"" style = ""width:100px; height:100px;position:fixed; top:25%;        transform: translate(-50%, -50%);left:34.5%""></img><img src=""media/stimuli/inanimate_003_right.png"" class=""coveredImage test"" style = ""width:100px; height:100px;position:fixed; top:25%;        transform: translate(-50%, -50%);left:41.5%""></img><img src=""media/stimuli/inanimate_012_right.png"" class=""coveredImage test"" style = ""width:100px; height:100px;position:fixed; top:25%;        transform: translate(-50%, -50%);left:58%""></img><img src=""media/f.png""style = ""width:30px x; height:30px;position:fixed; top:43%;    transform: translate(-50%, -50%);left:40%""></img><img src=""media/j.png""style = ""width:30px; height:30px;position:fixed; top:43%;    transform: translate(-50%, -50%);left:60%""></img>","media/stimuli/inanimate_012_right.png","inanimate","right","pair","media/stimuli/inanimate_003_right.png","inanimate","right","pair","media/stimuli/inanimate_012_right.png","inanimate","right","single","identity_number"
"","","","","","html-keyboard-response","120","450286","0.0-120.0","SS1678233201886","5f467b0a0d1aef037515c8c9","6406d7f26dd5b7fc1e3377bd","6407ce6b647785827b83a08b","2560","1287","","2043","","j","","","","","","","<img src=""media/stimuli/animate_004_left.png"" class=""coveredImage test"" style = ""width:100px; height:100px; position:fixed; top:10%;    transform: translate(-50%, -50%);left:48%""></img><img src=""media/stimuli/animate_004_right.png"" class=""coveredImage test"" style = ""width:100px; height:100px;position:fixed; top:25%;        transform: translate(-50%, -50%);left:38%""></img><img src=""media/stimuli/animate_004_left.png"" class=""coveredImage test"" style = ""width:100px; height:100px;position:fixed; top:25%;        transform: translate(-50%, -50%);left:54.5%""></img><img src=""media/stimuli/animate_004_left.png"" class=""coveredImage test"" style = ""width:100px; height:100px;position:fixed; top:25%;        transform: translate(-50%, -50%);left:61.5%""></img><img src=""media/f.png""style = ""width:30px x; height:30px;position:fixed; top:43%;    transform: translate(-50%, -50%);left:40%""></img><img src=""media/j.png""style = ""width:30px; height:30px;position:fixed; top:43%;    transform: translate(-50%, -50%);left:60%""></img>","media/stimuli/animate_004_left.png","animate","left","single","media/stimuli/animate_004_right.png","animate","right","single","media/stimuli/animate_004_left.png","animate","left","pair","pose_number"
"","","","","","html-keyboard-response","121","451723","0.0-121.0","SS1678233201886","5f467b0a0d1aef037515c8c9","6406d7f26dd5b7fc1e3377bd","6407ce6b647785827b83a08b","2560","1287","","1433","","f","","","","","","","<img src=""media/stimuli/animate_002_right.png"" class=""coveredImage test"" style = ""width:100px; height:100px; position:fixed; top:10%;    transform: translate(-50%, -50%);left:44.5%""></img><img src=""media/stimuli/animate_002_right.png"" class=""coveredImage test"" style = ""width:100px; height:100px; position:fixed; top:10%;    transform: translate(-50%, -50%);left:51.5%""></img><img src=""media/stimuli/animate_002_left.png"" class=""coveredImage test"" style = ""width:100px; height:100px;position:fixed; top:25%;        transform: translate(-50%, -50%);left:34.5%""></img><img src=""media/stimuli/animate_002_left.png"" class=""coveredImage test"" style = ""width:100px; height:100px;position:fixed; top:25%;        transform: translate(-50%, -50%);left:41.5%""></img><img src=""media/stimuli/animate_003_right.png"" class=""coveredImage test"" style = ""width:100px; height:100px;position:fixed; top:25%;        transform: translate(-50%, -50%);left:54.5%""></img><img src=""media/stimuli/animate_003_right.png"" class=""coveredImage test"" style = ""width:100px; height:100px;position:fixed; top:25%;        transform: translate(-50%, -50%);left:61.5%""></img><img src=""media/f.png""style = ""width:30px x; height:30px;position:fixed; top:43%;    transform: translate(-50%, -50%);left:40%""></img><img src=""media/j.png""style = ""width:30px; height:30px;position:fixed; top:43%;    transform: translate(-50%, -50%);left:60%""></img>","media/stimuli/animate_002_right.png","animate","right","pair","media/stimuli/animate_002_left.png","animate","left","pair","media/stimuli/animate_003_right.png","animate","right","pair","pose_identity"
"","","","","","html-keyboard-response","122","452702","0.0-122.0","SS1678233201886","5f467b0a0d1aef037515c8c9","6406d7f26dd5b7fc1e3377bd","6407ce6b647785827b83a08b","2560","1287","","976","","j","","","","","","","<img src=""media/stimuli/inanimate_005_right.png"" class=""coveredImage test"" style = ""width:100px; height:100px; position:fixed; top:10%;    transform: translate(-50%, -50%);left:44.5%""></img><img src=""media/stimuli/inanimate_005_right.png"" class=""coveredImage test"" style = ""width:100px; height:100px; position:fixed; top:10%;    transform: translate(-50%, -50%);left:51.5%""></img><img src=""media/stimuli/animate_002_left.png"" class=""coveredImage test"" style = ""width:100px; height:100px;position:fixed; top:25%;        transform: translate(-50%, -50%);left:34.5%""></img><img src=""media/stimuli/animate_002_left.png"" class=""coveredImage test"" style = ""width:100px; height:100px;position:fixed; top:25%;        transform: translate(-50%, -50%);left:41.5%""></img><img src=""media/stimuli/inanimate_005_right.png"" class=""coveredImage test"" style = ""width:100px; height:100px;position:fixed; top:25%;        transform: translate(-50%, -50%);left:54.5%""></img><img src=""media/stimuli/inanimate_005_right.png"" class=""coveredImage test"" style = ""width:100px; height:100px;position:fixed; top:25%;        transform: translate(-50%, -50%);left:61.5%""></img><img src=""media/f.png""style = ""width:30px x; height:30px;position:fixed; top:43%;    transform: translate(-50%, -50%);left:40%""></img><img src=""media/j.png""style = ""width:30px; height:30px;position:fixed; top:43%;    transform: translate(-50%, -50%);left:60%""></img>","media/stimuli/inanimate_005_right.png","inanimate","right","pair","media/stimuli/animate_002_left.png","animate","left","pair","media/stimuli/inanimate_005_right.png","inanimate","right","pair","animacy_pose"
