"success","timeout","failed_images","failed_audio","failed_video","trial_type","trial_index","time_elapsed","internal_node_id","subject","prolific_id","study","session","window_width","window_height","view_history","rt","stimulus_type","response","question_order","rating_type","stimulus","target","target_animacy","target_pose","target_number","left","left_animacy","left_pose","left_number","right","right_animacy","right_pose","right_number","comparison_type","rating_stimulus","rating_animacy","rating_number","rating_pose"
"true","false","[]","[]","[]","preload","0","3236","0.0-0.0","SS1678233190127","5ef6601481666334a551ebe7","6406d7f26dd5b7fc1e3377bd","6407ce5c1e26741f768a7e99","681","615","","","","","","","","","","","","","","","","","","","","","","","",""
"","","","","","instructions","1","7916","0.0-1.0","SS1678233190127","5ef6601481666334a551ebe7","6406d7f26dd5b7fc1e3377bd","6407ce5c1e26741f768a7e99","681","615","[{""page_index"":0,""viewing_time"":4678}]","4678","","","","","","","","","","","","","","","","","","","","","",""
"","","","","","instructions","2","20450","0.0-2.0","SS1678233190127","5ef6601481666334a551ebe7","6406d7f26dd5b7fc1e3377bd","6407ce5c1e26741f768a7e99","681","615","[{""page_index"":0,""viewing_time"":10530}]","10531","instructions","","","","","","","","","","","","","","","","","","","","",""
"","","","","","instructions","3","22420","0.0-3.0","SS1678233190127","5ef6601481666334a551ebe7","6406d7f26dd5b7fc1e3377bd","6407ce5c1e26741f768a7e99","681","615","[{""page_index"":0,""viewing_time"":1968}]","1969","instructions","","","","","","","","","","","","","","","","","","","","",""
"","","","","","survey-likert","4","32100","0.0-4.0","SS1678233190127","5ef6601481666334a551ebe7","6406d7f26dd5b7fc1e3377bd","6407ce5c1e26741f768a7e99","681","615","","9674","","{""Q0"":5}","[0]","anchoring","","","","","","","","","","","","","","","","","",""
"","","","","","survey-likert","5","36222","0.0-5.0","SS1678233190127","5ef6601481666334a551ebe7","6406d7f26dd5b7fc1e3377bd","6407ce5c1e26741f768a7e99","681","615","","4115","","{""Q0"":1}","[0]","anchoring","","","","","","","","","","","","","","","","","",""
"","","","","","instructions","6","37615","0.0-6.0","SS1678233190127","5ef6601481666334a551ebe7","6406d7f26dd5b7fc1e3377bd","6407ce5c1e26741f768a7e99","681","615","[{""page_index"":0,""viewing_time"":1386}]","1387","instructions","","","","","","","","","","","","","","","","","","","","",""
"true","","","","","fullscreen","7","39836","0.0-7.0","SS1678233190127","5ef6601481666334a551ebe7","6406d7f26dd5b7fc1e3377bd","6407ce5c1e26741f768a7e99","681","615","","","","","","","","","","","","","","","","","","","","","","","",""
"","","","","","html-keyboard-response","8","61445","0.0-8.0","SS1678233190127","5ef6601481666334a551ebe7","6406d7f26dd5b7fc1e3377bd","6407ce5c1e26741f768a7e99","681","615","","21600","","f","","","<img src=""media/stimuli/inanimate_004_left.png"" class=""coveredImage test"" style = ""width:100px; height:100px; position:fixed; top:10%;    transform: translate(-50%, -50%);left:44.5%""></img><img src=""media/stimuli/inanimate_004_left.png"" class=""coveredImage test"" style = ""width:100px; height:100px; position:fixed; top:10%;    transform: translate(-50%, -50%);left:51.5%""></img><img src=""media/stimuli/inanimate_004_left.png"" class=""coveredImage test"" style = ""width:100px; height:100px;position:fixed; top:25%;        transform: translate(-50%, -50%);left:38%""></img><img src=""media/stimuli/inanimate_004_right.png"" class=""coveredImage test"" style = ""width:100px; height:100px;position:fixed; top:25%;        transform: translate(-50%, -50%);left:54.5%""></img><img src=""media/stimuli/inanimate_004_right.png"" class=""coveredImage test"" style = ""width:100px; height:100px;position:fixed; top:25%;        transform: translate(-50%, -50%);left:61.5%""></img><img src=""media/f.png""style = ""width:30px x; height:30px;position:fixed; top:43%;    transform: translate(-50%, -50%);left:40%""></img><img src=""media/j.png""style = ""width:30px; height:30px;position:fixed; top:43%;    transform: translate(-50%, -50%);left:60%""></img>","media/stimuli/inanimate_004_left.png","inanimate","left","pair","media/stimuli/inanimate_004_left.png","inanimate","left","single","media/stimuli/inanimate_004_right.png","inanimate","right","pair","number_pose","","","",""
"","","","","","html-keyboard-response","9","63776","0.0-9.0","SS1678233190127","5ef6601481666334a551ebe7","6406d7f26dd5b7fc1e3377bd","6407ce5c1e26741f768a7e99","681","615","","2325","","f","","","<img src=""media/stimuli/animate_004_left.png"" class=""coveredImage test"" style = ""width:100px; height:100px; position:fixed; top:10%;    transform: translate(-50%, -50%);left:48%""></img><img src=""media/stimuli/animate_010_left.png"" class=""coveredImage test"" style = ""width:100px; height:100px;position:fixed; top:25%;        transform: translate(-50%, -50%);left:38%""></img><img src=""media/stimuli/inanimate_001_left.png"" class=""coveredImage test"" style = ""width:100px; height:100px;position:fixed; top:25%;        transform: translate(-50%, -50%);left:58%""></img><img src=""media/f.png""style = ""width:30px x; height:30px;position:fixed; top:43%;    transform: translate(-50%, -50%);left:40%""></img><img src=""media/j.png""style = ""width:30px; height:30px;position:fixed; top:43%;    transform: translate(-50%, -50%);left:60%""></img>","media/stimuli/animate_004_left.png","animate","left","single","media/stimuli/animate_010_left.png","animate","left","single","media/stimuli/inanimate_001_left.png","inanimate","left","single","identity_animacy","","","",""
"","","","","","html-keyboard-response","10","65809","0.0-10.0","SS1678233190127","5ef6601481666334a551ebe7","6406d7f26dd5b7fc1e3377bd","6407ce5c1e26741f768a7e99","681","615","","2023","","j","","","<img src=""media/stimuli/animate_009_right.png"" class=""coveredImage test"" style = ""width:100px; height:100px; position:fixed; top:10%;    transform: translate(-50%, -50%);left:48%""></img><img src=""media/stimuli/inanimate_002_right.png"" class=""coveredImage test"" style = ""width:100px; height:100px;position:fixed; top:25%;        transform: translate(-50%, -50%);left:38%""></img><img src=""media/stimuli/animate_005_right.png"" class=""coveredImage test"" style = ""width:100px; height:100px;position:fixed; top:25%;        transform: translate(-50%, -50%);left:58%""></img><img src=""media/f.png""style = ""width:30px x; height:30px;position:fixed; top:43%;    transform: translate(-50%, -50%);left:40%""></img><img src=""media/j.png""style = ""width:30px; height:30px;position:fixed; top:43%;    transform: translate(-50%, -50%);left:60%""></img>","media/stimuli/animate_009_right.png","animate","right","single","media/stimuli/inanimate_002_right.png","inanimate","right","single","media/stimuli/animate_005_right.png","animate","right","single","animacy_identity","","","",""
"","","","","","html-keyboard-response","11","67618","0.0-11.0","SS1678233190127","5ef6601481666334a551ebe7","6406d7f26dd5b7fc1e3377bd","6407ce5c1e26741f768a7e99","681","615","","1806","","f","","","<img src=""media/stimuli/animate_006_left.png"" class=""coveredImage test"" style = ""width:100px; height:100px; position:fixed; top:10%;    transform: translate(-50%, -50%);left:48%""></img><img src=""media/stimuli/animate_002_left.png"" class=""coveredImage test"" style = ""width:100px; height:100px;position:fixed; top:25%;        transform: translate(-50%, -50%);left:38%""></img><img src=""media/stimuli/inanimate_007_left.png"" class=""coveredImage test"" style = ""width:100px; height:100px;position:fixed; top:25%;        transform: translate(-50%, -50%);left:58%""></img><img src=""media/f.png""style = ""width:30px x; height:30px;position:fixed; top:43%;    transform: translate(-50%, -50%);left:40%""></img><img src=""media/j.png""style = ""width:30px; height:30px;position:fixed; top:43%;    transform: translate(-50%, -50%);left:60%""></img>","media/stimuli/animate_006_left.png","animate","left","single","media/stimuli/animate_002_left.png","animate","left","single","media/stimuli/inanimate_007_left.png","inanimate","left","single","identity_animacy","","","",""
"","","","","","html-keyboard-response","12","74898","0.0-12.0","SS1678233190127","5ef6601481666334a551ebe7","6406d7f26dd5b7fc1e3377bd","6407ce5c1e26741f768a7e99","681","615","","7268","","f","","","<img src=""media/stimuli/animate_009_right.png"" class=""coveredImage test"" style = ""width:100px; height:100px; position:fixed; top:10%;    transform: translate(-50%, -50%);left:44.5%""></img><img src=""media/stimuli/animate_009_right.png"" class=""coveredImage test"" style = ""width:100px; height:100px; position:fixed; top:10%;    transform: translate(-50%, -50%);left:51.5%""></img><img src=""media/stimuli/animate_009_right.png"" class=""coveredImage test"" style = ""width:100px; height:100px;position:fixed; top:25%;        transform: translate(-50%, -50%);left:34.5%""></img><img src=""media/stimuli/animate_009_right.png"" class=""coveredImage test"" style = ""width:100px; height:100px;position:fixed; top:25%;        transform: translate(-50%, -50%);left:41.5%""></img><img src=""media/stimuli/animate_009_right.png"" class=""coveredImage test"" style = ""width:100px; height:100px;position:fixed; top:25%;        transform: translate(-50%, -50%);left:58%""></img><img src=""media/f.png""style = ""width:30px x; height:30px;position:fixed; top:43%;    transform: translate(-50%, -50%);left:40%""></img><img src=""media/j.png""style = ""width:30px; height:30px;position:fixed; top:43%;    transform: translate(-50%, -50%);left:60%""></img>","media/stimuli/animate_009_right.png","animate","right","pair","media/stimuli/animate_009_right.png","animate","right","pair","media/stimuli/animate_009_right.png","animate","right","single","filler_number","","","",""
"","","","","","html-keyboard-response","13","78597","0.0-13.0","SS1678233190127","5ef6601481666334a551ebe7","6406d7f26dd5b7fc1e3377bd","6407ce5c1e26741f768a7e99","681","615","","3694","","f","","","<img src=""media/stimuli/inanimate_006_right.png"" class=""coveredImage test"" style = ""width:100px; height:100px; position:fixed; top:10%;    transform: translate(-50%, -50%);left:48%""></img><img src=""media/stimuli/inanimate_006_right.png"" class=""coveredImage test"" style = ""width:100px; height:100px;position:fixed; top:25%;        transform: translate(-50%, -50%);left:34.5%""></img><img src=""media/stimuli/inanimate_006_right.png"" class=""coveredImage test"" style = ""width:100px; height:100px;position:fixed; top:25%;        transform: translate(-50%, -50%);left:41.5%""></img><img src=""media/stimuli/inanimate_006_left.png"" class=""coveredImage test"" style = ""width:100px; height:100px;position:fixed; top:25%;        transform: translate(-50%, -50%);left:58%""></img><img src=""media/f.png""style = ""width:30px x; height:30px;position:fixed; top:43%;    transform: translate(-50%, -50%);left:40%""></img><img src=""media/j.png""style = ""width:30px; height:30px;position:fixed; top:43%;    transform: translate(-50%, -50%);left:60%""></img>","media/stimuli/inanimate_006_right.png","inanimate","right","single","media/stimuli/inanimate_006_right.png","inanimate","right","pair","media/stimuli/inanimate_006_left.png","inanimate","left","single","number_pose","","","",""
"","","","","","html-keyboard-response","14","82862","0.0-14.0","SS1678233190127","5ef6601481666334a551ebe7","6406d7f26dd5b7fc1e3377bd","6407ce5c1e26741f768a7e99","681","615","","4252","","f","","","<img src=""media/stimuli/inanimate_007_right.png"" class=""coveredImage test"" style = ""width:100px; height:100px; position:fixed; top:10%;    transform: translate(-50%, -50%);left:44.5%""></img><img src=""media/stimuli/inanimate_007_right.png"" class=""coveredImage test"" style = ""width:100px; height:100px; position:fixed; top:10%;    transform: translate(-50%, -50%);left:51.5%""></img><img src=""media/stimuli/inanimate_007_left.png"" class=""coveredImage test"" style = ""width:100px; height:100px;position:fixed; top:25%;        transform: translate(-50%, -50%);left:34.5%""></img><img src=""media/stimuli/inanimate_007_left.png"" class=""coveredImage test"" style = ""width:100px; height:100px;position:fixed; top:25%;        transform: translate(-50%, -50%);left:41.5%""></img><img src=""media/stimuli/inanimate_002_right.png"" class=""coveredImage test"" style = ""width:100px; height:100px;position:fixed; top:25%;        transform: translate(-50%, -50%);left:54.5%""></img><img src=""media/stimuli/inanimate_002_right.png"" class=""coveredImage test"" style = ""width:100px; height:100px;position:fixed; top:25%;        transform: translate(-50%, -50%);left:61.5%""></img><img src=""media/f.png""style = ""width:30px x; height:30px;position:fixed; top:43%;    transform: translate(-50%, -50%);left:40%""></img><img src=""media/j.png""style = ""width:30px; height:30px;position:fixed; top:43%;    transform: translate(-50%, -50%);left:60%""></img>","media/stimuli/inanimate_007_right.png","inanimate","right","pair","media/stimuli/inanimate_007_left.png","inanimate","left","pair","media/stimuli/inanimate_002_right.png","inanimate","right","pair","pose_identity","","","",""
"","","","","","html-keyboard-response","15","84129","0.0-15.0","SS1678233190127","5ef6601481666334a551ebe7","6406d7f26dd5b7fc1e3377bd","6407ce5c1e26741f768a7e99","681","615","","1264","","f","","","<img src=""media/stimuli/inanimate_003_right.png"" class=""coveredImage test"" style = ""width:100px; height:100px; position:fixed; top:10%;    transform: translate(-50%, -50%);left:48%""></img><img src=""media/stimuli/inanimate_003_right.png"" class=""coveredImage test"" style = ""width:100px; height:100px;position:fixed; top:25%;        transform: translate(-50%, -50%);left:34.5%""></img><img src=""media/stimuli/inanimate_003_right.png"" class=""coveredImage test"" style = ""width:100px; height:100px;position:fixed; top:25%;        transform: translate(-50%, -50%);left:41.5%""></img><img src=""media/stimuli/animate_011_right.png"" class=""coveredImage test"" style = ""width:100px; height:100px;position:fixed; top:25%;        transform: translate(-50%, -50%);left:58%""></img><img src=""media/f.png""style = ""width:30px x; height:30px;position:fixed; top:43%;    transform: translate(-50%, -50%);left:40%""></img><img src=""media/j.png""style = ""width:30px; height:30px;position:fixed; top:43%;    transform: translate(-50%, -50%);left:60%""></img>","media/stimuli/inanimate_003_right.png","inanimate","right","single","media/stimuli/inanimate_003_right.png","inanimate","right","pair","media/stimuli/animate_011_right.png","animate","right","single","number_animacy","","","",""
"","","","","","html-keyboard-response","16","85278","0.0-16.0","SS1678233190127","5ef6601481666334a551ebe7","6406d7f26dd5b7fc1e3377bd","6407ce5c1e26741f768a7e99","681","615","","1145","","j","","","<img src=""media/stimuli/inanimate_002_right.png"" class=""coveredImage test"" style = ""width:100px; height:100px; position:fixed; top:10%;    transform: translate(-50%, -50%);left:44.5%""></img><img src=""media/stimuli/inanimate_002_right.png"" class=""coveredImage test"" style = ""width:100px; height:100px; position:fixed; top:10%;    transform: translate(-50%, -50%);left:51.5%""></img><img src=""media/stimuli/inanimate_002_right.png"" class=""coveredImage test"" style = ""width:100px; height:100px;position:fixed; top:25%;        transform: translate(-50%, -50%);left:38%""></img><img src=""media/stimuli/inanimate_002_left.png"" class=""coveredImage test"" style = ""width:100px; height:100px;position:fixed; top:25%;        transform: translate(-50%, -50%);left:54.5%""></img><img src=""media/stimuli/inanimate_002_left.png"" class=""coveredImage test"" style = ""width:100px; height:100px;position:fixed; top:25%;        transform: translate(-50%, -50%);left:61.5%""></img><img src=""media/f.png""style = ""width:30px x; height:30px;position:fixed; top:43%;    transform: translate(-50%, -50%);left:40%""></img><img src=""media/j.png""style = ""width:30px; height:30px;position:fixed; top:43%;    transform: translate(-50%, -50%);left:60%""></img>","media/stimuli/inanimate_002_right.png","inanimate","right","pair","media/stimuli/inanimate_002_right.png","inanimate","right","single","media/stimuli/inanimate_002_left.png","inanimate","left","pair","number_pose","","","",""
"","","","","","html-keyboard-response","17","86448","0.0-17.0","SS1678233190127","5ef6601481666334a551ebe7","6406d7f26dd5b7fc1e3377bd","6407ce5c1e26741f768a7e99","681","615","","1164","","j","","","<img src=""media/stimuli/animate_005_right.png"" class=""coveredImage test"" style = ""width:100px; height:100px; position:fixed; top:10%;    transform: translate(-50%, -50%);left:48%""></img><img src=""media/stimuli/animate_005_left.png"" class=""coveredImage test"" style = ""width:100px; height:100px;position:fixed; top:25%;        transform: translate(-50%, -50%);left:38%""></img><img src=""media/stimuli/animate_005_right.png"" class=""coveredImage test"" style = ""width:100px; height:100px;position:fixed; top:25%;        transform: translate(-50%, -50%);left:54.5%""></img><img src=""media/stimuli/animate_005_right.png"" class=""coveredImage test"" style = ""width:100px; height:100px;position:fixed; top:25%;        transform: translate(-50%, -50%);left:61.5%""></img><img src=""media/f.png""style = ""width:30px x; height:30px;position:fixed; top:43%;    transform: translate(-50%, -50%);left:40%""></img><img src=""media/j.png""style = ""width:30px; height:30px;position:fixed; top:43%;    transform: translate(-50%, -50%);left:60%""></img>","media/stimuli/animate_005_right.png","animate","right","single","media/stimuli/animate_005_left.png","animate","left","single","media/stimuli/animate_005_right.png","animate","right","pair","pose_number","","","",""
"","","","","","html-keyboard-response","18","89230","0.0-18.0","SS1678233190127","5ef6601481666334a551ebe7","6406d7f26dd5b7fc1e3377bd","6407ce5c1e26741f768a7e99","681","615","","2774","","f","","","<img src=""media/stimuli/inanimate_003_right.png"" class=""coveredImage test"" style = ""width:100px; height:100px; position:fixed; top:10%;    transform: translate(-50%, -50%);left:48%""></img><img src=""media/stimuli/inanimate_003_right.png"" class=""coveredImage test"" style = ""width:100px; height:100px;position:fixed; top:25%;        transform: translate(-50%, -50%);left:38%""></img><img src=""media/stimuli/animate_005_left.png"" class=""coveredImage test"" style = ""width:100px; height:100px;position:fixed; top:25%;        transform: translate(-50%, -50%);left:58%""></img><img src=""media/f.png""style = ""width:30px x; height:30px;position:fixed; top:43%;    transform: translate(-50%, -50%);left:40%""></img><img src=""media/j.png""style = ""width:30px; height:30px;position:fixed; top:43%;    transform: translate(-50%, -50%);left:60%""></img>","media/stimuli/inanimate_003_right.png","inanimate","right","single","media/stimuli/inanimate_003_right.png","inanimate","right","single","media/stimuli/animate_005_left.png","animate","left","single","pose_animacy","","","",""
"","","","","","html-keyboard-response","19","90867","0.0-19.0","SS1678233190127","5ef6601481666334a551ebe7","6406d7f26dd5b7fc1e3377bd","6407ce5c1e26741f768a7e99","681","615","","1629","","f","","","<img src=""media/stimuli/animate_003_left.png"" class=""coveredImage test"" style = ""width:100px; height:100px; position:fixed; top:10%;    transform: translate(-50%, -50%);left:44.5%""></img><img src=""media/stimuli/animate_003_left.png"" class=""coveredImage test"" style = ""width:100px; height:100px; position:fixed; top:10%;    transform: translate(-50%, -50%);left:51.5%""></img><img src=""media/stimuli/animate_003_left.png"" class=""coveredImage test"" style = ""width:100px; height:100px;position:fixed; top:25%;        transform: translate(-50%, -50%);left:38%""></img><img src=""media/stimuli/inanimate_001_left.png"" class=""coveredImage test"" style = ""width:100px; height:100px;position:fixed; top:25%;        transform: translate(-50%, -50%);left:54.5%""></img><img src=""media/stimuli/inanimate_001_left.png"" class=""coveredImage test"" style = ""width:100px; height:100px;position:fixed; top:25%;        transform: translate(-50%, -50%);left:61.5%""></img><img src=""media/f.png""style = ""width:30px x; height:30px;position:fixed; top:43%;    transform: translate(-50%, -50%);left:40%""></img><img src=""media/j.png""style = ""width:30px; height:30px;position:fixed; top:43%;    transform: translate(-50%, -50%);left:60%""></img>","media/stimuli/animate_003_left.png","animate","left","pair","media/stimuli/animate_003_left.png","animate","left","single","media/stimuli/inanimate_001_left.png","inanimate","left","pair","number_animacy","","","",""
"","","","","","html-keyboard-response","20","91873","0.0-20.0","SS1678233190127","5ef6601481666334a551ebe7","6406d7f26dd5b7fc1e3377bd","6407ce5c1e26741f768a7e99","681","615","","998","","j","","","<img src=""media/stimuli/animate_002_right.png"" class=""coveredImage test"" style = ""width:100px; height:100px; position:fixed; top:10%;    transform: translate(-50%, -50%);left:48%""></img><img src=""media/stimuli/animate_010_right.png"" class=""coveredImage test"" style = ""width:100px; height:100px;position:fixed; top:25%;        transform: translate(-50%, -50%);left:38%""></img><img src=""media/stimuli/animate_002_right.png"" class=""coveredImage test"" style = ""width:100px; height:100px;position:fixed; top:25%;        transform: translate(-50%, -50%);left:54.5%""></img><img src=""media/stimuli/animate_002_right.png"" class=""coveredImage test"" style = ""width:100px; height:100px;position:fixed; top:25%;        transform: translate(-50%, -50%);left:61.5%""></img><img src=""media/f.png""style = ""width:30px x; height:30px;position:fixed; top:43%;    transform: translate(-50%, -50%);left:40%""></img><img src=""media/j.png""style = ""width:30px; height:30px;position:fixed; top:43%;    transform: translate(-50%, -50%);left:60%""></img>","media/stimuli/animate_002_right.png","animate","right","single","media/stimuli/animate_010_right.png","animate","right","single","media/stimuli/animate_002_right.png","animate","right","pair","identity_number","","","",""
"","","","","","html-keyboard-response","21","93071","0.0-21.0","SS1678233190127","5ef6601481666334a551ebe7","6406d7f26dd5b7fc1e3377bd","6407ce5c1e26741f768a7e99","681","615","","1191","","f","","","<img src=""media/stimuli/animate_003_left.png"" class=""coveredImage test"" style = ""width:100px; height:100px; position:fixed; top:10%;    transform: translate(-50%, -50%);left:44.5%""></img><img src=""media/stimuli/animate_003_left.png"" class=""coveredImage test"" style = ""width:100px; height:100px; position:fixed; top:10%;    transform: translate(-50%, -50%);left:51.5%""></img><img src=""media/stimuli/animate_003_left.png"" class=""coveredImage test"" style = ""width:100px; height:100px;position:fixed; top:25%;        transform: translate(-50%, -50%);left:38%""></img><img src=""media/stimuli/inanimate_011_left.png"" class=""coveredImage test"" style = ""width:100px; height:100px;position:fixed; top:25%;        transform: translate(-50%, -50%);left:54.5%""></img><img src=""media/stimuli/inanimate_011_left.png"" class=""coveredImage test"" style = ""width:100px; height:100px;position:fixed; top:25%;        transform: translate(-50%, -50%);left:61.5%""></img><img src=""media/f.png""style = ""width:30px x; height:30px;position:fixed; top:43%;    transform: translate(-50%, -50%);left:40%""></img><img src=""media/j.png""style = ""width:30px; height:30px;position:fixed; top:43%;    transform: translate(-50%, -50%);left:60%""></img>","media/stimuli/animate_003_left.png","animate","left","pair","media/stimuli/animate_003_left.png","animate","left","single","media/stimuli/inanimate_011_left.png","inanimate","left","pair","number_animacy","","","",""
"","","","","","html-keyboard-response","22","95404","0.0-22.0","SS1678233190127","5ef6601481666334a551ebe7","6406d7f26dd5b7fc1e3377bd","6407ce5c1e26741f768a7e99","681","615","","2329","","f","","","<img src=""media/stimuli/inanimate_004_left.png"" class=""coveredImage test"" style = ""width:100px; height:100px; position:fixed; top:10%;    transform: translate(-50%, -50%);left:44.5%""></img><img src=""media/stimuli/inanimate_004_left.png"" class=""coveredImage test"" style = ""width:100px; height:100px; position:fixed; top:10%;    transform: translate(-50%, -50%);left:51.5%""></img><img src=""media/stimuli/inanimate_004_left.png"" class=""coveredImage test"" style = ""width:100px; height:100px;position:fixed; top:25%;        transform: translate(-50%, -50%);left:38%""></img><img src=""media/stimuli/animate_009_left.png"" class=""coveredImage test"" style = ""width:100px; height:100px;position:fixed; top:25%;        transform: translate(-50%, -50%);left:54.5%""></img><img src=""media/stimuli/animate_009_left.png"" class=""coveredImage test"" style = ""width:100px; height:100px;position:fixed; top:25%;        transform: translate(-50%, -50%);left:61.5%""></img><img src=""media/f.png""style = ""width:30px x; height:30px;position:fixed; top:43%;    transform: translate(-50%, -50%);left:40%""></img><img src=""media/j.png""style = ""width:30px; height:30px;position:fixed; top:43%;    transform: translate(-50%, -50%);left:60%""></img>","media/stimuli/inanimate_004_left.png","inanimate","left","pair","media/stimuli/inanimate_004_left.png","inanimate","left","single","media/stimuli/animate_009_left.png","animate","left","pair","number_animacy","","","",""
"","","","","","html-keyboard-response","23","96724","0.0-23.0","SS1678233190127","5ef6601481666334a551ebe7","6406d7f26dd5b7fc1e3377bd","6407ce5c1e26741f768a7e99","681","615","","1316","","j","","","<img src=""media/stimuli/inanimate_005_left.png"" class=""coveredImage test"" style = ""width:100px; height:100px; position:fixed; top:10%;    transform: translate(-50%, -50%);left:44.5%""></img><img src=""media/stimuli/inanimate_005_left.png"" class=""coveredImage test"" style = ""width:100px; height:100px; position:fixed; top:10%;    transform: translate(-50%, -50%);left:51.5%""></img><img src=""media/stimuli/inanimate_012_left.png"" class=""coveredImage test"" style = ""width:100px; height:100px;position:fixed; top:25%;        transform: translate(-50%, -50%);left:34.5%""></img><img src=""media/stimuli/inanimate_012_left.png"" class=""coveredImage test"" style = ""width:100px; height:100px;position:fixed; top:25%;        transform: translate(-50%, -50%);left:41.5%""></img><img src=""media/stimuli/inanimate_005_right.png"" class=""coveredImage test"" style = ""width:100px; height:100px;position:fixed; top:25%;        transform: translate(-50%, -50%);left:54.5%""></img><img src=""media/stimuli/inanimate_005_right.png"" class=""coveredImage test"" style = ""width:100px; height:100px;position:fixed; top:25%;        transform: translate(-50%, -50%);left:61.5%""></img><img src=""media/f.png""style = ""width:30px x; height:30px;position:fixed; top:43%;    transform: translate(-50%, -50%);left:40%""></img><img src=""media/j.png""style = ""width:30px; height:30px;position:fixed; top:43%;    transform: translate(-50%, -50%);left:60%""></img>","media/stimuli/inanimate_005_left.png","inanimate","left","pair","media/stimuli/inanimate_012_left.png","inanimate","left","pair","media/stimuli/inanimate_005_right.png","inanimate","right","pair","identity_pose","","","",""
"","","","","","html-keyboard-response","24","99116","0.0-24.0","SS1678233190127","5ef6601481666334a551ebe7","6406d7f26dd5b7fc1e3377bd","6407ce5c1e26741f768a7e99","681","615","","2388",""," ","","","","","","","","","","","","","","","","","","","",""
"","","","","","survey-likert","25","105615","0.0-25.0","SS1678233190127","5ef6601481666334a551ebe7","6406d7f26dd5b7fc1e3377bd","6407ce5c1e26741f768a7e99","681","615","","6490","","{""Q0"":2}","[0]","complexity","","","","","","","","","","","","","","","media/stimuli/inanimate_008_left.png","inanimate","single","left"
"","","","","","survey-likert","26","111948","0.0-26.0","SS1678233190127","5ef6601481666334a551ebe7","6406d7f26dd5b7fc1e3377bd","6407ce5c1e26741f768a7e99","681","615","","6325","","{""Q0"":4}","[0]","complexity","","","","","","","","","","","","","","","media/stimuli/animate_008_right.png","animate","pair","right"
"","","","","","survey-likert","27","116101","0.0-27.0","SS1678233190127","5ef6601481666334a551ebe7","6406d7f26dd5b7fc1e3377bd","6407ce5c1e26741f768a7e99","681","615","","4146","","{""Q0"":1}","[0]","complexity","","","","","","","","","","","","","","","media/stimuli/inanimate_001_right.png","inanimate","single","right"
"","","","","","survey-likert","28","120124","0.0-28.0","SS1678233190127","5ef6601481666334a551ebe7","6406d7f26dd5b7fc1e3377bd","6407ce5c1e26741f768a7e99","681","615","","4014","","{""Q0"":2}","[0]","complexity","","","","","","","","","","","","","","","media/stimuli/inanimate_003_left.png","inanimate","pair","left"
"","","","","","survey-likert","29","125618","0.0-29.0","SS1678233190127","5ef6601481666334a551ebe7","6406d7f26dd5b7fc1e3377bd","6407ce5c1e26741f768a7e99","681","615","","5484","","{""Q0"":2}","[0]","complexity","","","","","","","","","","","","","","","media/stimuli/inanimate_004_left.png","inanimate","pair","left"
"","","","","","survey-likert","30","128686","0.0-30.0","SS1678233190127","5ef6601481666334a551ebe7","6406d7f26dd5b7fc1e3377bd","6407ce5c1e26741f768a7e99","681","615","","3058","","{""Q0"":4}","[0]","complexity","","","","","","","","","","","","","","","media/stimuli/inanimate_011_right.png","inanimate","pair","right"
"","","","","","survey-likert","31","134216","0.0-31.0","SS1678233190127","5ef6601481666334a551ebe7","6406d7f26dd5b7fc1e3377bd","6407ce5c1e26741f768a7e99","681","615","","5521","","{""Q0"":4}","[0]","complexity","","","","","","","","","","","","","","","media/stimuli/animate_012_left.png","animate","single","left"
"","","","","","survey-likert","32","137679","0.0-32.0","SS1678233190127","5ef6601481666334a551ebe7","6406d7f26dd5b7fc1e3377bd","6407ce5c1e26741f768a7e99","681","615","","3453","","{""Q0"":4}","[0]","complexity","","","","","","","","","","","","","","","media/stimuli/animate_011_left.png","animate","single","left"
"","","","","","survey-likert","33","144272","0.0-33.0","SS1678233190127","5ef6601481666334a551ebe7","6406d7f26dd5b7fc1e3377bd","6407ce5c1e26741f768a7e99","681","615","","6585","","{""Q0"":2}","[0]","complexity","","","","","","","","","","","","","","","media/stimuli/animate_010_right.png","animate","single","right"
"","","","","","survey-likert","34","147554","0.0-34.0","SS1678233190127","5ef6601481666334a551ebe7","6406d7f26dd5b7fc1e3377bd","6407ce5c1e26741f768a7e99","681","615","","3270","","{""Q0"":4}","[0]","complexity","","","","","","","","","","","","","","","media/stimuli/animate_008_left.png","animate","pair","left"
"","","","","","survey-likert","35","150960","0.0-35.0","SS1678233190127","5ef6601481666334a551ebe7","6406d7f26dd5b7fc1e3377bd","6407ce5c1e26741f768a7e99","681","615","","3397","","{""Q0"":4}","[0]","complexity","","","","","","","","","","","","","","","media/stimuli/animate_005_right.png","animate","pair","right"
"","","","","","survey-likert","36","158678","0.0-36.0","SS1678233190127","5ef6601481666334a551ebe7","6406d7f26dd5b7fc1e3377bd","6407ce5c1e26741f768a7e99","681","615","","7711","","{""Q0"":4}","[0]","complexity","","","","","","","","","","","","","","","media/stimuli/inanimate_005_left.png","inanimate","pair","left"
"","","","","","html-keyboard-response","37","160702","0.0-37.0","SS1678233190127","5ef6601481666334a551ebe7","6406d7f26dd5b7fc1e3377bd","6407ce5c1e26741f768a7e99","681","615","","2016",""," ","","","","","","","","","","","","","","","","","","","",""
"","","","","","html-keyboard-response","38","166355","0.0-38.0","SS1678233190127","5ef6601481666334a551ebe7","6406d7f26dd5b7fc1e3377bd","6407ce5c1e26741f768a7e99","681","615","","5641","","f","","","<img src=""media/stimuli/inanimate_003_right.png"" class=""coveredImage test"" style = ""width:100px; height:100px; position:fixed; top:10%;    transform: translate(-50%, -50%);left:48%""></img><img src=""media/stimuli/inanimate_003_right.png"" class=""coveredImage test"" style = ""width:100px; height:100px;position:fixed; top:25%;        transform: translate(-50%, -50%);left:34.5%""></img><img src=""media/stimuli/inanimate_003_right.png"" class=""coveredImage test"" style = ""width:100px; height:100px;position:fixed; top:25%;        transform: translate(-50%, -50%);left:41.5%""></img><img src=""media/stimuli/inanimate_003_left.png"" class=""coveredImage test"" style = ""width:100px; height:100px;position:fixed; top:25%;        transform: translate(-50%, -50%);left:58%""></img><img src=""media/f.png""style = ""width:30px x; height:30px;position:fixed; top:43%;    transform: translate(-50%, -50%);left:40%""></img><img src=""media/j.png""style = ""width:30px; height:30px;position:fixed; top:43%;    transform: translate(-50%, -50%);left:60%""></img>","media/stimuli/inanimate_003_right.png","inanimate","right","single","media/stimuli/inanimate_003_right.png","inanimate","right","pair","media/stimuli/inanimate_003_left.png","inanimate","left","single","number_pose","","","",""
"","","","","","html-keyboard-response","39","167406","0.0-39.0","SS1678233190127","5ef6601481666334a551ebe7","6406d7f26dd5b7fc1e3377bd","6407ce5c1e26741f768a7e99","681","615","","1044","","j","","","<img src=""media/stimuli/animate_009_left.png"" class=""coveredImage test"" style = ""width:100px; height:100px; position:fixed; top:10%;    transform: translate(-50%, -50%);left:48%""></img><img src=""media/stimuli/inanimate_006_right.png"" class=""coveredImage test"" style = ""width:100px; height:100px;position:fixed; top:25%;        transform: translate(-50%, -50%);left:34.5%""></img><img src=""media/stimuli/inanimate_006_right.png"" class=""coveredImage test"" style = ""width:100px; height:100px;position:fixed; top:25%;        transform: translate(-50%, -50%);left:41.5%""></img><img src=""media/stimuli/animate_009_left.png"" class=""coveredImage test"" style = ""width:100px; height:100px;position:fixed; top:25%;        transform: translate(-50%, -50%);left:54.5%""></img><img src=""media/stimuli/animate_009_left.png"" class=""coveredImage test"" style = ""width:100px; height:100px;position:fixed; top:25%;        transform: translate(-50%, -50%);left:61.5%""></img><img src=""media/f.png""style = ""width:30px x; height:30px;position:fixed; top:43%;    transform: translate(-50%, -50%);left:40%""></img><img src=""media/j.png""style = ""width:30px; height:30px;position:fixed; top:43%;    transform: translate(-50%, -50%);left:60%""></img>","media/stimuli/animate_009_left.png","animate","left","single","media/stimuli/inanimate_006_right.png","inanimate","right","pair","media/stimuli/animate_009_left.png","animate","left","pair","animacy_pose","","","",""
"","","","","","html-keyboard-response","40","168423","0.0-40.0","SS1678233190127","5ef6601481666334a551ebe7","6406d7f26dd5b7fc1e3377bd","6407ce5c1e26741f768a7e99","681","615","","1004","","f","","","<img src=""media/stimuli/animate_005_right.png"" class=""coveredImage test"" style = ""width:100px; height:100px; position:fixed; top:10%;    transform: translate(-50%, -50%);left:44.5%""></img><img src=""media/stimuli/animate_005_right.png"" class=""coveredImage test"" style = ""width:100px; height:100px; position:fixed; top:10%;    transform: translate(-50%, -50%);left:51.5%""></img><img src=""media/stimuli/animate_005_right.png"" class=""coveredImage test"" style = ""width:100px; height:100px;position:fixed; top:25%;        transform: translate(-50%, -50%);left:38%""></img><img src=""media/stimuli/inanimate_011_right.png"" class=""coveredImage test"" style = ""width:100px; height:100px;position:fixed; top:25%;        transform: translate(-50%, -50%);left:54.5%""></img><img src=""media/stimuli/inanimate_011_right.png"" class=""coveredImage test"" style = ""width:100px; height:100px;position:fixed; top:25%;        transform: translate(-50%, -50%);left:61.5%""></img><img src=""media/f.png""style = ""width:30px x; height:30px;position:fixed; top:43%;    transform: translate(-50%, -50%);left:40%""></img><img src=""media/j.png""style = ""width:30px; height:30px;position:fixed; top:43%;    transform: translate(-50%, -50%);left:60%""></img>","media/stimuli/animate_005_right.png","animate","right","pair","media/stimuli/animate_005_right.png","animate","right","single","media/stimuli/inanimate_011_right.png","inanimate","right","pair","number_animacy","","","",""
"","","","","","html-keyboard-response","41","169949","0.0-41.0","SS1678233190127","5ef6601481666334a551ebe7","6406d7f26dd5b7fc1e3377bd","6407ce5c1e26741f768a7e99","681","615","","1510","","f","","","<img src=""media/stimuli/inanimate_007_left.png"" class=""coveredImage test"" style = ""width:100px; height:100px; position:fixed; top:10%;    transform: translate(-50%, -50%);left:44.5%""></img><img src=""media/stimuli/inanimate_007_left.png"" class=""coveredImage test"" style = ""width:100px; height:100px; position:fixed; top:10%;    transform: translate(-50%, -50%);left:51.5%""></img><img src=""media/stimuli/inanimate_007_left.png"" class=""coveredImage test"" style = ""width:100px; height:100px;position:fixed; top:25%;        transform: translate(-50%, -50%);left:38%""></img><img src=""media/stimuli/inanimate_005_left.png"" class=""coveredImage test"" style = ""width:100px; height:100px;position:fixed; top:25%;        transform: translate(-50%, -50%);left:54.5%""></img><img src=""media/stimuli/inanimate_005_left.png"" class=""coveredImage test"" style = ""width:100px; height:100px;position:fixed; top:25%;        transform: translate(-50%, -50%);left:61.5%""></img><img src=""media/f.png""style = ""width:30px x; height:30px;position:fixed; top:43%;    transform: translate(-50%, -50%);left:40%""></img><img src=""media/j.png""style = ""width:30px; height:30px;position:fixed; top:43%;    transform: translate(-50%, -50%);left:60%""></img>","media/stimuli/inanimate_007_left.png","inanimate","left","pair","media/stimuli/inanimate_007_left.png","inanimate","left","single","media/stimuli/inanimate_005_left.png","inanimate","left","pair","number_identity","","","",""
"","","","","","html-keyboard-response","42","171176","0.0-42.0","SS1678233190127","5ef6601481666334a551ebe7","6406d7f26dd5b7fc1e3377bd","6407ce5c1e26741f768a7e99","681","615","","1220","","j","","","<img src=""media/stimuli/animate_006_left.png"" class=""coveredImage test"" style = ""width:100px; height:100px; position:fixed; top:10%;    transform: translate(-50%, -50%);left:48%""></img><img src=""media/stimuli/animate_011_left.png"" class=""coveredImage test"" style = ""width:100px; height:100px;position:fixed; top:25%;        transform: translate(-50%, -50%);left:38%""></img><img src=""media/stimuli/animate_006_right.png"" class=""coveredImage test"" style = ""width:100px; height:100px;position:fixed; top:25%;        transform: translate(-50%, -50%);left:58%""></img><img src=""media/f.png""style = ""width:30px x; height:30px;position:fixed; top:43%;    transform: translate(-50%, -50%);left:40%""></img><img src=""media/j.png""style = ""width:30px; height:30px;position:fixed; top:43%;    transform: translate(-50%, -50%);left:60%""></img>","media/stimuli/animate_006_left.png","animate","left","single","media/stimuli/animate_011_left.png","animate","left","single","media/stimuli/animate_006_right.png","animate","right","single","identity_pose","","","",""
"","","","","","html-keyboard-response","43","173248","0.0-43.0","SS1678233190127","5ef6601481666334a551ebe7","6406d7f26dd5b7fc1e3377bd","6407ce5c1e26741f768a7e99","681","615","","2060","","f","","","<img src=""media/stimuli/animate_010_right.png"" class=""coveredImage test"" style = ""width:100px; height:100px; position:fixed; top:10%;    transform: translate(-50%, -50%);left:48%""></img><img src=""media/stimuli/animate_010_right.png"" class=""coveredImage test"" style = ""width:100px; height:100px;position:fixed; top:25%;        transform: translate(-50%, -50%);left:34.5%""></img><img src=""media/stimuli/animate_010_right.png"" class=""coveredImage test"" style = ""width:100px; height:100px;position:fixed; top:25%;        transform: translate(-50%, -50%);left:41.5%""></img><img src=""media/stimuli/inanimate_002_right.png"" class=""coveredImage test"" style = ""width:100px; height:100px;position:fixed; top:25%;        transform: translate(-50%, -50%);left:58%""></img><img src=""media/f.png""style = ""width:30px x; height:30px;position:fixed; top:43%;    transform: translate(-50%, -50%);left:40%""></img><img src=""media/j.png""style = ""width:30px; height:30px;position:fixed; top:43%;    transform: translate(-50%, -50%);left:60%""></img>","media/stimuli/animate_010_right.png","animate","right","single","media/stimuli/animate_010_right.png","animate","right","pair","media/stimuli/inanimate_002_right.png","inanimate","right","single","number_animacy","","","",""
"","","","","","html-keyboard-response","44","177355","0.0-44.0","SS1678233190127","5ef6601481666334a551ebe7","6406d7f26dd5b7fc1e3377bd","6407ce5c1e26741f768a7e99","681","615","","4096","","f","","","<img src=""media/stimuli/inanimate_001_left.png"" class=""coveredImage test"" style = ""width:100px; height:100px; position:fixed; top:10%;    transform: translate(-50%, -50%);left:44.5%""></img><img src=""media/stimuli/inanimate_001_left.png"" class=""coveredImage test"" style = ""width:100px; height:100px; position:fixed; top:10%;    transform: translate(-50%, -50%);left:51.5%""></img><img src=""media/stimuli/inanimate_009_left.png"" class=""coveredImage test"" style = ""width:100px; height:100px;position:fixed; top:25%;        transform: translate(-50%, -50%);left:34.5%""></img><img src=""media/stimuli/inanimate_009_left.png"" class=""coveredImage test"" style = ""width:100px; height:100px;position:fixed; top:25%;        transform: translate(-50%, -50%);left:41.5%""></img><img src=""media/stimuli/animate_010_left.png"" class=""coveredImage test"" style = ""width:100px; height:100px;position:fixed; top:25%;        transform: translate(-50%, -50%);left:54.5%""></img><img src=""media/stimuli/animate_010_left.png"" class=""coveredImage test"" style = ""width:100px; height:100px;position:fixed; top:25%;        transform: translate(-50%, -50%);left:61.5%""></img><img src=""media/f.png""style = ""width:30px x; height:30px;position:fixed; top:43%;    transform: translate(-50%, -50%);left:40%""></img><img src=""media/j.png""style = ""width:30px; height:30px;position:fixed; top:43%;    transform: translate(-50%, -50%);left:60%""></img>","media/stimuli/inanimate_001_left.png","inanimate","left","pair","media/stimuli/inanimate_009_left.png","inanimate","left","pair","media/stimuli/animate_010_left.png","animate","left","pair","identity_animacy","","","",""
"","","","","","html-keyboard-response","45","179232","0.0-45.0","SS1678233190127","5ef6601481666334a551ebe7","6406d7f26dd5b7fc1e3377bd","6407ce5c1e26741f768a7e99","681","615","","1872","","j","","","<img src=""media/stimuli/animate_008_right.png"" class=""coveredImage test"" style = ""width:100px; height:100px; position:fixed; top:10%;    transform: translate(-50%, -50%);left:48%""></img><img src=""media/stimuli/animate_009_right.png"" class=""coveredImage test"" style = ""width:100px; height:100px;position:fixed; top:25%;        transform: translate(-50%, -50%);left:38%""></img><img src=""media/stimuli/animate_008_right.png"" class=""coveredImage test"" style = ""width:100px; height:100px;position:fixed; top:25%;        transform: translate(-50%, -50%);left:54.5%""></img><img src=""media/stimuli/animate_008_right.png"" class=""coveredImage test"" style = ""width:100px; height:100px;position:fixed; top:25%;        transform: translate(-50%, -50%);left:61.5%""></img><img src=""media/f.png""style = ""width:30px x; height:30px;position:fixed; top:43%;    transform: translate(-50%, -50%);left:40%""></img><img src=""media/j.png""style = ""width:30px; height:30px;position:fixed; top:43%;    transform: translate(-50%, -50%);left:60%""></img>","media/stimuli/animate_008_right.png","animate","right","single","media/stimuli/animate_009_right.png","animate","right","single","media/stimuli/animate_008_right.png","animate","right","pair","identity_number","","","",""
"","","","","","html-keyboard-response","46","182502","0.0-46.0","SS1678233190127","5ef6601481666334a551ebe7","6406d7f26dd5b7fc1e3377bd","6407ce5c1e26741f768a7e99","681","615","","3254","","j","","","<img src=""media/stimuli/inanimate_007_right.png"" class=""coveredImage test"" style = ""width:100px; height:100px; position:fixed; top:10%;    transform: translate(-50%, -50%);left:48%""></img><img src=""media/stimuli/animate_004_right.png"" class=""coveredImage test"" style = ""width:100px; height:100px;position:fixed; top:25%;        transform: translate(-50%, -50%);left:38%""></img><img src=""media/stimuli/inanimate_004_right.png"" class=""coveredImage test"" style = ""width:100px; height:100px;position:fixed; top:25%;        transform: translate(-50%, -50%);left:58%""></img><img src=""media/f.png""style = ""width:30px x; height:30px;position:fixed; top:43%;    transform: translate(-50%, -50%);left:40%""></img><img src=""media/j.png""style = ""width:30px; height:30px;position:fixed; top:43%;    transform: translate(-50%, -50%);left:60%""></img>","media/stimuli/inanimate_007_right.png","inanimate","right","single","media/stimuli/animate_004_right.png","animate","right","single","media/stimuli/inanimate_004_right.png","inanimate","right","single","animacy_identity","","","",""
"","","","","","html-keyboard-response","47","183634","0.0-47.0","SS1678233190127","5ef6601481666334a551ebe7","6406d7f26dd5b7fc1e3377bd","6407ce5c1e26741f768a7e99","681","615","","1120","","f","","","<img src=""media/stimuli/inanimate_004_right.png"" class=""coveredImage test"" style = ""width:100px; height:100px; position:fixed; top:10%;    transform: translate(-50%, -50%);left:48%""></img><img src=""media/stimuli/inanimate_004_right.png"" class=""coveredImage test"" style = ""width:100px; height:100px;position:fixed; top:25%;        transform: translate(-50%, -50%);left:34.5%""></img><img src=""media/stimuli/inanimate_004_right.png"" class=""coveredImage test"" style = ""width:100px; height:100px;position:fixed; top:25%;        transform: translate(-50%, -50%);left:41.5%""></img><img src=""media/stimuli/inanimate_006_right.png"" class=""coveredImage test"" style = ""width:100px; height:100px;position:fixed; top:25%;        transform: translate(-50%, -50%);left:58%""></img><img src=""media/f.png""style = ""width:30px x; height:30px;position:fixed; top:43%;    transform: translate(-50%, -50%);left:40%""></img><img src=""media/j.png""style = ""width:30px; height:30px;position:fixed; top:43%;    transform: translate(-50%, -50%);left:60%""></img>","media/stimuli/inanimate_004_right.png","inanimate","right","single","media/stimuli/inanimate_004_right.png","inanimate","right","pair","media/stimuli/inanimate_006_right.png","inanimate","right","single","number_identity","","","",""
"","","","","","html-keyboard-response","48","186148","0.0-48.0","SS1678233190127","5ef6601481666334a551ebe7","6406d7f26dd5b7fc1e3377bd","6407ce5c1e26741f768a7e99","681","615","","2499","","j","","","<img src=""media/stimuli/inanimate_008_right.png"" class=""coveredImage test"" style = ""width:100px; height:100px; position:fixed; top:10%;    transform: translate(-50%, -50%);left:44.5%""></img><img src=""media/stimuli/inanimate_008_right.png"" class=""coveredImage test"" style = ""width:100px; height:100px; position:fixed; top:10%;    transform: translate(-50%, -50%);left:51.5%""></img><img src=""media/stimuli/animate_004_right.png"" class=""coveredImage test"" style = ""width:100px; height:100px;position:fixed; top:25%;        transform: translate(-50%, -50%);left:34.5%""></img><img src=""media/stimuli/animate_004_right.png"" class=""coveredImage test"" style = ""width:100px; height:100px;position:fixed; top:25%;        transform: translate(-50%, -50%);left:41.5%""></img><img src=""media/stimuli/inanimate_006_right.png"" class=""coveredImage test"" style = ""width:100px; height:100px;position:fixed; top:25%;        transform: translate(-50%, -50%);left:54.5%""></img><img src=""media/stimuli/inanimate_006_right.png"" class=""coveredImage test"" style = ""width:100px; height:100px;position:fixed; top:25%;        transform: translate(-50%, -50%);left:61.5%""></img><img src=""media/f.png""style = ""width:30px x; height:30px;position:fixed; top:43%;    transform: translate(-50%, -50%);left:40%""></img><img src=""media/j.png""style = ""width:30px; height:30px;position:fixed; top:43%;    transform: translate(-50%, -50%);left:60%""></img>","media/stimuli/inanimate_008_right.png","inanimate","right","pair","media/stimuli/animate_004_right.png","animate","right","pair","media/stimuli/inanimate_006_right.png","inanimate","right","pair","animacy_identity","","","",""
"","","","","","html-keyboard-response","49","187292","0.0-49.0","SS1678233190127","5ef6601481666334a551ebe7","6406d7f26dd5b7fc1e3377bd","6407ce5c1e26741f768a7e99","681","615","","1125","","j","","","<img src=""media/stimuli/inanimate_005_right.png"" class=""coveredImage test"" style = ""width:100px; height:100px; position:fixed; top:10%;    transform: translate(-50%, -50%);left:48%""></img><img src=""media/stimuli/inanimate_009_right.png"" class=""coveredImage test"" style = ""width:100px; height:100px;position:fixed; top:25%;        transform: translate(-50%, -50%);left:38%""></img><img src=""media/stimuli/inanimate_005_right.png"" class=""coveredImage test"" style = ""width:100px; height:100px;position:fixed; top:25%;        transform: translate(-50%, -50%);left:54.5%""></img><img src=""media/stimuli/inanimate_005_right.png"" class=""coveredImage test"" style = ""width:100px; height:100px;position:fixed; top:25%;        transform: translate(-50%, -50%);left:61.5%""></img><img src=""media/f.png""style = ""width:30px x; height:30px;position:fixed; top:43%;    transform: translate(-50%, -50%);left:40%""></img><img src=""media/j.png""style = ""width:30px; height:30px;position:fixed; top:43%;    transform: translate(-50%, -50%);left:60%""></img>","media/stimuli/inanimate_005_right.png","inanimate","right","single","media/stimuli/inanimate_009_right.png","inanimate","right","single","media/stimuli/inanimate_005_right.png","inanimate","right","pair","identity_number","","","",""
"","","","","","html-keyboard-response","50","188377","0.0-50.0","SS1678233190127","5ef6601481666334a551ebe7","6406d7f26dd5b7fc1e3377bd","6407ce5c1e26741f768a7e99","681","615","","1080",""," ","","","","","","","","","","","","","","","","","","","",""
"","","","","","survey-likert","51","195411","0.0-51.0","SS1678233190127","5ef6601481666334a551ebe7","6406d7f26dd5b7fc1e3377bd","6407ce5c1e26741f768a7e99","681","615","","7028","","{""Q0"":2}","[0]","complexity","","","","","","","","","","","","","","","media/stimuli/animate_008_left.png","animate","single","left"
"","","","","","survey-likert","52","198553","0.0-52.0","SS1678233190127","5ef6601481666334a551ebe7","6406d7f26dd5b7fc1e3377bd","6407ce5c1e26741f768a7e99","681","615","","3134","","{""Q0"":2}","[0]","complexity","","","","","","","","","","","","","","","media/stimuli/inanimate_012_left.png","inanimate","single","left"
"","","","","","survey-likert","53","202233","0.0-53.0","SS1678233190127","5ef6601481666334a551ebe7","6406d7f26dd5b7fc1e3377bd","6407ce5c1e26741f768a7e99","681","615","","3670","","{""Q0"":4}","[0]","complexity","","","","","","","","","","","","","","","media/stimuli/animate_003_right.png","animate","pair","right"
"","","","","","survey-likert","54","205735","0.0-54.0","SS1678233190127","5ef6601481666334a551ebe7","6406d7f26dd5b7fc1e3377bd","6407ce5c1e26741f768a7e99","681","615","","3489","","{""Q0"":2}","[0]","complexity","","","","","","","","","","","","","","","media/stimuli/animate_002_right.png","animate","single","right"
"","","","","","survey-likert","55","209999","0.0-55.0","SS1678233190127","5ef6601481666334a551ebe7","6406d7f26dd5b7fc1e3377bd","6407ce5c1e26741f768a7e99","681","615","","4252","","{""Q0"":1}","[0]","complexity","","","","","","","","","","","","","","","media/stimuli/inanimate_006_left.png","inanimate","single","left"
"","","","","","survey-likert","56","214331","0.0-56.0","SS1678233190127","5ef6601481666334a551ebe7","6406d7f26dd5b7fc1e3377bd","6407ce5c1e26741f768a7e99","681","615","","4319","","{""Q0"":2}","[0]","complexity","","","","","","","","","","","","","","","media/stimuli/inanimate_007_right.png","inanimate","single","right"
"","","","","","survey-likert","57","218363","0.0-57.0","SS1678233190127","5ef6601481666334a551ebe7","6406d7f26dd5b7fc1e3377bd","6407ce5c1e26741f768a7e99","681","615","","4022","","{""Q0"":1}","[0]","complexity","","","","","","","","","","","","","","","media/stimuli/inanimate_010_right.png","inanimate","single","right"
"","","","","","survey-likert","58","220902","0.0-58.0","SS1678233190127","5ef6601481666334a551ebe7","6406d7f26dd5b7fc1e3377bd","6407ce5c1e26741f768a7e99","681","615","","2528","","{""Q0"":2}","[0]","complexity","","","","","","","","","","","","","","","media/stimuli/inanimate_008_right.png","inanimate","single","right"
"","","","","","survey-likert","59","223319","0.0-59.0","SS1678233190127","5ef6601481666334a551ebe7","6406d7f26dd5b7fc1e3377bd","6407ce5c1e26741f768a7e99","681","615","","2408","","{""Q0"":2}","[0]","complexity","","","","","","","","","","","","","","","media/stimuli/inanimate_005_left.png","inanimate","single","left"
"","","","","","survey-likert","60","226429","0.0-60.0","SS1678233190127","5ef6601481666334a551ebe7","6406d7f26dd5b7fc1e3377bd","6407ce5c1e26741f768a7e99","681","615","","3102","","{""Q0"":4}","[0]","complexity","","","","","","","","","","","","","","","media/stimuli/inanimate_008_left.png","inanimate","pair","left"
"","","","","","survey-likert","61","229145","0.0-61.0","SS1678233190127","5ef6601481666334a551ebe7","6406d7f26dd5b7fc1e3377bd","6407ce5c1e26741f768a7e99","681","615","","2706","","{""Q0"":4}","[0]","complexity","","","","","","","","","","","","","","","media/stimuli/animate_012_right.png","animate","single","right"
"","","","","","survey-likert","62","233759","0.0-62.0","SS1678233190127","5ef6601481666334a551ebe7","6406d7f26dd5b7fc1e3377bd","6407ce5c1e26741f768a7e99","681","615","","4604","","{""Q0"":4}","[0]","complexity","","","","","","","","","","","","","","","media/stimuli/inanimate_009_right.png","inanimate","pair","right"
"","","","","","html-keyboard-response","63","235907","0.0-63.0","SS1678233190127","5ef6601481666334a551ebe7","6406d7f26dd5b7fc1e3377bd","6407ce5c1e26741f768a7e99","681","615","","2137",""," ","","","","","","","","","","","","","","","","","","","",""
"","","","","","survey-likert","64","242732","0.0-64.0","SS1678233190127","5ef6601481666334a551ebe7","6406d7f26dd5b7fc1e3377bd","6407ce5c1e26741f768a7e99","681","615","","6800","","{""Q0"":4}","[0]","complexity","","","","","","","","","","","","","","","media/stimuli/animate_001_right.png","animate","pair","right"
"","","","","","survey-likert","65","248132","0.0-65.0","SS1678233190127","5ef6601481666334a551ebe7","6406d7f26dd5b7fc1e3377bd","6407ce5c1e26741f768a7e99","681","615","","5391","","{""Q0"":4}","[0]","complexity","","","","","","","","","","","","","","","media/stimuli/animate_009_right.png","animate","pair","right"
"","","","","","survey-likert","66","253928","0.0-66.0","SS1678233190127","5ef6601481666334a551ebe7","6406d7f26dd5b7fc1e3377bd","6407ce5c1e26741f768a7e99","681","615","","5787","","{""Q0"":4}","[0]","complexity","","","","","","","","","","","","","","","media/stimuli/animate_011_left.png","animate","pair","left"
"","","","","","survey-likert","67","259991","0.0-67.0","SS1678233190127","5ef6601481666334a551ebe7","6406d7f26dd5b7fc1e3377bd","6407ce5c1e26741f768a7e99","681","615","","6054","","{""Q0"":4}","[0]","complexity","","","","","","","","","","","","","","","media/stimuli/animate_010_left.png","animate","pair","left"
"","","","","","survey-likert","68","262835","0.0-68.0","SS1678233190127","5ef6601481666334a551ebe7","6406d7f26dd5b7fc1e3377bd","6407ce5c1e26741f768a7e99","681","615","","2834","","{""Q0"":1}","[0]","complexity","","","","","","","","","","","","","","","media/stimuli/inanimate_002_left.png","inanimate","single","left"
"","","","","","survey-likert","69","266392","0.0-69.0","SS1678233190127","5ef6601481666334a551ebe7","6406d7f26dd5b7fc1e3377bd","6407ce5c1e26741f768a7e99","681","615","","3544","","{""Q0"":1}","[0]","complexity","","","","","","","","","","","","","","","media/stimuli/inanimate_005_right.png","inanimate","single","right"
"","","","","","survey-likert","70","269431","0.0-70.0","SS1678233190127","5ef6601481666334a551ebe7","6406d7f26dd5b7fc1e3377bd","6407ce5c1e26741f768a7e99","681","615","","3030","","{""Q0"":2}","[0]","complexity","","","","","","","","","","","","","","","media/stimuli/inanimate_011_right.png","inanimate","single","right"
"","","","","","survey-likert","71","275524","0.0-71.0","SS1678233190127","5ef6601481666334a551ebe7","6406d7f26dd5b7fc1e3377bd","6407ce5c1e26741f768a7e99","681","615","","6081","","{""Q0"":4}","[0]","complexity","","","","","","","","","","","","","","","media/stimuli/inanimate_003_right.png","inanimate","pair","right"
"","","","","","survey-likert","72","278371","0.0-72.0","SS1678233190127","5ef6601481666334a551ebe7","6406d7f26dd5b7fc1e3377bd","6407ce5c1e26741f768a7e99","681","615","","2832","","{""Q0"":4}","[0]","complexity","","","","","","","","","","","","","","","media/stimuli/inanimate_006_left.png","inanimate","pair","left"
"","","","","","survey-likert","73","282286","0.0-73.0","SS1678233190127","5ef6601481666334a551ebe7","6406d7f26dd5b7fc1e3377bd","6407ce5c1e26741f768a7e99","681","615","","3906","","{""Q0"":2}","[0]","complexity","","","","","","","","","","","","","","","media/stimuli/animate_008_right.png","animate","single","right"
"","","","","","survey-likert","74","288103","0.0-74.0","SS1678233190127","5ef6601481666334a551ebe7","6406d7f26dd5b7fc1e3377bd","6407ce5c1e26741f768a7e99","681","615","","5806","","{""Q0"":4}","[0]","complexity","","","","","","","","","","","","","","","media/stimuli/animate_010_right.png","animate","pair","right"
"","","","","","survey-likert","75","291245","0.0-75.0","SS1678233190127","5ef6601481666334a551ebe7","6406d7f26dd5b7fc1e3377bd","6407ce5c1e26741f768a7e99","681","615","","3132","","{""Q0"":4}","[0]","complexity","","","","","","","","","","","","","","","media/stimuli/inanimate_012_left.png","inanimate","pair","left"
"","","","","","html-keyboard-response","76","292892","0.0-76.0","SS1678233190127","5ef6601481666334a551ebe7","6406d7f26dd5b7fc1e3377bd","6407ce5c1e26741f768a7e99","681","615","","1637",""," ","","","","","","","","","","","","","","","","","","","",""
"","","","","","survey-likert","77","296721","0.0-77.0","SS1678233190127","5ef6601481666334a551ebe7","6406d7f26dd5b7fc1e3377bd","6407ce5c1e26741f768a7e99","681","615","","3819","","{""Q0"":4}","[0]","complexity","","","","","","","","","","","","","","","media/stimuli/animate_009_left.png","animate","pair","left"
"","","","","","survey-likert","78","299561","0.0-78.0","SS1678233190127","5ef6601481666334a551ebe7","6406d7f26dd5b7fc1e3377bd","6407ce5c1e26741f768a7e99","681","615","","2828","","{""Q0"":2}","[0]","complexity","","","","","","","","","","","","","","","media/stimuli/inanimate_009_right.png","inanimate","single","right"
"","","","","","survey-likert","79","305099","0.0-79.0","SS1678233190127","5ef6601481666334a551ebe7","6406d7f26dd5b7fc1e3377bd","6407ce5c1e26741f768a7e99","681","615","","5524","","{""Q0"":4}","[0]","complexity","","","","","","","","","","","","","","","media/stimuli/inanimate_002_left.png","inanimate","pair","left"
"","","","","","survey-likert","80","308351","0.0-80.0","SS1678233190127","5ef6601481666334a551ebe7","6406d7f26dd5b7fc1e3377bd","6407ce5c1e26741f768a7e99","681","615","","3243","","{""Q0"":4}","[0]","complexity","","","","","","","","","","","","","","","media/stimuli/inanimate_007_right.png","inanimate","pair","right"
"","","","","","survey-likert","81","314078","0.0-81.0","SS1678233190127","5ef6601481666334a551ebe7","6406d7f26dd5b7fc1e3377bd","6407ce5c1e26741f768a7e99","681","615","","5719","","{""Q0"":4}","[0]","complexity","","","","","","","","","","","","","","","media/stimuli/inanimate_010_right.png","inanimate","pair","right"
"","","","","","survey-likert","82","317267","0.0-82.0","SS1678233190127","5ef6601481666334a551ebe7","6406d7f26dd5b7fc1e3377bd","6407ce5c1e26741f768a7e99","681","615","","3181","","{""Q0"":4}","[0]","complexity","","","","","","","","","","","","","","","media/stimuli/animate_006_left.png","animate","pair","left"
"","","","","","survey-likert","83","319960","0.0-83.0","SS1678233190127","5ef6601481666334a551ebe7","6406d7f26dd5b7fc1e3377bd","6407ce5c1e26741f768a7e99","681","615","","2682","","{""Q0"":4}","[0]","complexity","","","","","","","","","","","","","","","media/stimuli/animate_006_right.png","animate","pair","right"
"","","","","","survey-likert","84","323275","0.0-84.0","SS1678233190127","5ef6601481666334a551ebe7","6406d7f26dd5b7fc1e3377bd","6407ce5c1e26741f768a7e99","681","615","","3306","","{""Q0"":2}","[0]","complexity","","","","","","","","","","","","","","","media/stimuli/animate_004_left.png","animate","single","left"
"","","","","","survey-likert","85","327185","0.0-85.0","SS1678233190127","5ef6601481666334a551ebe7","6406d7f26dd5b7fc1e3377bd","6407ce5c1e26741f768a7e99","681","615","","3901","","{""Q0"":2}","[0]","complexity","","","","","","","","","","","","","","","media/stimuli/animate_004_left.png","animate","pair","left"
"","","","","","survey-likert","86","331405","0.0-86.0","SS1678233190127","5ef6601481666334a551ebe7","6406d7f26dd5b7fc1e3377bd","6407ce5c1e26741f768a7e99","681","615","","4205","","{""Q0"":2}","[0]","complexity","","","","","","","","","","","","","","","media/stimuli/inanimate_004_right.png","inanimate","pair","right"
"","","","","","survey-likert","87","335566","0.0-87.0","SS1678233190127","5ef6601481666334a551ebe7","6406d7f26dd5b7fc1e3377bd","6407ce5c1e26741f768a7e99","681","615","","4146","","{""Q0"":2}","[0]","complexity","","","","","","","","","","","","","","","media/stimuli/animate_002_left.png","animate","pair","left"
"","","","","","survey-likert","88","340140","0.0-88.0","SS1678233190127","5ef6601481666334a551ebe7","6406d7f26dd5b7fc1e3377bd","6407ce5c1e26741f768a7e99","681","615","","4564","","{""Q0"":4}","[0]","complexity","","","","","","","","","","","","","","","media/stimuli/animate_011_right.png","animate","pair","right"
"","","","","","html-keyboard-response","89","342088","0.0-89.0","SS1678233190127","5ef6601481666334a551ebe7","6406d7f26dd5b7fc1e3377bd","6407ce5c1e26741f768a7e99","681","615","","1940",""," ","","","","","","","","","","","","","","","","","","","",""
"","","","","","survey-likert","90","345285","0.0-90.0","SS1678233190127","5ef6601481666334a551ebe7","6406d7f26dd5b7fc1e3377bd","6407ce5c1e26741f768a7e99","681","615","","3180","","{""Q0"":2}","[0]","complexity","","","","","","","","","","","","","","","media/stimuli/inanimate_012_right.png","inanimate","single","right"
"","","","","","survey-likert","91","351508","0.0-91.0","SS1678233190127","5ef6601481666334a551ebe7","6406d7f26dd5b7fc1e3377bd","6407ce5c1e26741f768a7e99","681","615","","6213","","{""Q0"":4}","[0]","complexity","","","","","","","","","","","","","","","media/stimuli/animate_007_left.png","animate","pair","left"
"","","","","","survey-likert","92","354043","0.0-92.0","SS1678233190127","5ef6601481666334a551ebe7","6406d7f26dd5b7fc1e3377bd","6407ce5c1e26741f768a7e99","681","615","","2525","","{""Q0"":2}","[0]","complexity","","","","","","","","","","","","","","","media/stimuli/inanimate_006_right.png","inanimate","single","right"
"","","","","","survey-likert","93","356659","0.0-93.0","SS1678233190127","5ef6601481666334a551ebe7","6406d7f26dd5b7fc1e3377bd","6407ce5c1e26741f768a7e99","681","615","","2604","","{""Q0"":2}","[0]","complexity","","","","","","","","","","","","","","","media/stimuli/animate_005_left.png","animate","single","left"
"","","","","","survey-likert","94","359459","0.0-94.0","SS1678233190127","5ef6601481666334a551ebe7","6406d7f26dd5b7fc1e3377bd","6407ce5c1e26741f768a7e99","681","615","","2787","","{""Q0"":2}","[0]","complexity","","","","","","","","","","","","","","","media/stimuli/animate_010_left.png","animate","single","left"
"","","","","","survey-likert","95","364867","0.0-95.0","SS1678233190127","5ef6601481666334a551ebe7","6406d7f26dd5b7fc1e3377bd","6407ce5c1e26741f768a7e99","681","615","","5397","","{""Q0"":4}","[0]","complexity","","","","","","","","","","","","","","","media/stimuli/animate_005_left.png","animate","pair","left"
"","","","","","survey-likert","96","369007","0.0-96.0","SS1678233190127","5ef6601481666334a551ebe7","6406d7f26dd5b7fc1e3377bd","6407ce5c1e26741f768a7e99","681","615","","4130","","{""Q0"":5}","[0]","complexity","","","","","","","","","","","","","","","media/stimuli/inanimate_005_right.png","inanimate","pair","right"
"","","","","","survey-likert","97","374081","0.0-97.0","SS1678233190127","5ef6601481666334a551ebe7","6406d7f26dd5b7fc1e3377bd","6407ce5c1e26741f768a7e99","681","615","","5064","","{""Q0"":4}","[0]","complexity","","","","","","","","","","","","","","","media/stimuli/inanimate_009_left.png","inanimate","pair","left"
"","","","","","survey-likert","98","377077","0.0-98.0","SS1678233190127","5ef6601481666334a551ebe7","6406d7f26dd5b7fc1e3377bd","6407ce5c1e26741f768a7e99","681","615","","2987","","{""Q0"":4}","[0]","complexity","","","","","","","","","","","","","","","media/stimuli/animate_012_left.png","animate","pair","left"
"","","","","","survey-likert","99","382039","0.0-99.0","SS1678233190127","5ef6601481666334a551ebe7","6406d7f26dd5b7fc1e3377bd","6407ce5c1e26741f768a7e99","681","615","","4928","","{""Q0"":2}","[0]","complexity","","","","","","","","","","","","","","","media/stimuli/animate_001_right.png","animate","single","right"
"","","","","","survey-likert","100","386507","0.0-100.0","SS1678233190127","5ef6601481666334a551ebe7","6406d7f26dd5b7fc1e3377bd","6407ce5c1e26741f768a7e99","681","615","","4453","","{""Q0"":4}","[0]","complexity","","","","","","","","","","","","","","","media/stimuli/animate_003_left.png","animate","pair","left"
"","","","","","survey-likert","101","389687","0.0-101.0","SS1678233190127","5ef6601481666334a551ebe7","6406d7f26dd5b7fc1e3377bd","6407ce5c1e26741f768a7e99","681","615","","3169","","{""Q0"":4}","[0]","complexity","","","","","","","","","","","","","","","media/stimuli/inanimate_010_left.png","inanimate","pair","left"
"","","","","","html-keyboard-response","102","393044","0.0-102.0","SS1678233190127","5ef6601481666334a551ebe7","6406d7f26dd5b7fc1e3377bd","6407ce5c1e26741f768a7e99","681","615","","3344",""," ","","","","","","","","","","","","","","","","","","","",""
"","","","","","html-keyboard-response","103","398577","0.0-103.0","SS1678233190127","5ef6601481666334a551ebe7","6406d7f26dd5b7fc1e3377bd","6407ce5c1e26741f768a7e99","681","615","","5518","","j","","","<img src=""media/stimuli/animate_006_left.png"" class=""coveredImage test"" style = ""width:100px; height:100px; position:fixed; top:10%;    transform: translate(-50%, -50%);left:48%""></img><img src=""media/stimuli/inanimate_002_left.png"" class=""coveredImage test"" style = ""width:100px; height:100px;position:fixed; top:25%;        transform: translate(-50%, -50%);left:38%""></img><img src=""media/stimuli/animate_011_left.png"" class=""coveredImage test"" style = ""width:100px; height:100px;position:fixed; top:25%;        transform: translate(-50%, -50%);left:58%""></img><img src=""media/f.png""style = ""width:30px x; height:30px;position:fixed; top:43%;    transform: translate(-50%, -50%);left:40%""></img><img src=""media/j.png""style = ""width:30px; height:30px;position:fixed; top:43%;    transform: translate(-50%, -50%);left:60%""></img>","media/stimuli/animate_006_left.png","animate","left","single","media/stimuli/inanimate_002_left.png","inanimate","left","single","media/stimuli/animate_011_left.png","animate","left","single","animacy_identity","","","",""
"","","","","","html-keyboard-response","104","399825","0.0-104.0","SS1678233190127","5ef6601481666334a551ebe7","6406d7f26dd5b7fc1e3377bd","6407ce5c1e26741f768a7e99","681","615","","1232","","j","","","<img src=""media/stimuli/animate_004_left.png"" class=""coveredImage test"" style = ""width:100px; height:100px; position:fixed; top:10%;    transform: translate(-50%, -50%);left:48%""></img><img src=""media/stimuli/inanimate_005_left.png"" class=""coveredImage test"" style = ""width:100px; height:100px;position:fixed; top:25%;        transform: translate(-50%, -50%);left:38%""></img><img src=""media/stimuli/animate_004_right.png"" class=""coveredImage test"" style = ""width:100px; height:100px;position:fixed; top:25%;        transform: translate(-50%, -50%);left:58%""></img><img src=""media/f.png""style = ""width:30px x; height:30px;position:fixed; top:43%;    transform: translate(-50%, -50%);left:40%""></img><img src=""media/j.png""style = ""width:30px; height:30px;position:fixed; top:43%;    transform: translate(-50%, -50%);left:60%""></img>","media/stimuli/animate_004_left.png","animate","left","single","media/stimuli/inanimate_005_left.png","inanimate","left","single","media/stimuli/animate_004_right.png","animate","right","single","animacy_pose","","","",""
"","","","","","html-keyboard-response","105","400782","0.0-105.0","SS1678233190127","5ef6601481666334a551ebe7","6406d7f26dd5b7fc1e3377bd","6407ce5c1e26741f768a7e99","681","615","","940","","j","","","<img src=""media/stimuli/animate_012_left.png"" class=""coveredImage test"" style = ""width:100px; height:100px; position:fixed; top:10%;    transform: translate(-50%, -50%);left:48%""></img><img src=""media/stimuli/animate_003_left.png"" class=""coveredImage test"" style = ""width:100px; height:100px;position:fixed; top:25%;        transform: translate(-50%, -50%);left:38%""></img><img src=""media/stimuli/animate_012_right.png"" class=""coveredImage test"" style = ""width:100px; height:100px;position:fixed; top:25%;        transform: translate(-50%, -50%);left:58%""></img><img src=""media/f.png""style = ""width:30px x; height:30px;position:fixed; top:43%;    transform: translate(-50%, -50%);left:40%""></img><img src=""media/j.png""style = ""width:30px; height:30px;position:fixed; top:43%;    transform: translate(-50%, -50%);left:60%""></img>","media/stimuli/animate_012_left.png","animate","left","single","media/stimuli/animate_003_left.png","animate","left","single","media/stimuli/animate_012_right.png","animate","right","single","identity_pose","","","",""
"","","","","","html-keyboard-response","106","403011","0.0-106.0","SS1678233190127","5ef6601481666334a551ebe7","6406d7f26dd5b7fc1e3377bd","6407ce5c1e26741f768a7e99","681","615","","2218","","f","","","<img src=""media/stimuli/animate_006_right.png"" class=""coveredImage test"" style = ""width:100px; height:100px; position:fixed; top:10%;    transform: translate(-50%, -50%);left:44.5%""></img><img src=""media/stimuli/animate_006_right.png"" class=""coveredImage test"" style = ""width:100px; height:100px; position:fixed; top:10%;    transform: translate(-50%, -50%);left:51.5%""></img><img src=""media/stimuli/animate_006_right.png"" class=""coveredImage test"" style = ""width:100px; height:100px;position:fixed; top:25%;        transform: translate(-50%, -50%);left:38%""></img><img src=""media/stimuli/animate_004_right.png"" class=""coveredImage test"" style = ""width:100px; height:100px;position:fixed; top:25%;        transform: translate(-50%, -50%);left:54.5%""></img><img src=""media/stimuli/animate_004_right.png"" class=""coveredImage test"" style = ""width:100px; height:100px;position:fixed; top:25%;        transform: translate(-50%, -50%);left:61.5%""></img><img src=""media/f.png""style = ""width:30px x; height:30px;position:fixed; top:43%;    transform: translate(-50%, -50%);left:40%""></img><img src=""media/j.png""style = ""width:30px; height:30px;position:fixed; top:43%;    transform: translate(-50%, -50%);left:60%""></img>","media/stimuli/animate_006_right.png","animate","right","pair","media/stimuli/animate_006_right.png","animate","right","single","media/stimuli/animate_004_right.png","animate","right","pair","number_identity","","","",""
"","","","","","html-keyboard-response","107","404724","0.0-107.0","SS1678233190127","5ef6601481666334a551ebe7","6406d7f26dd5b7fc1e3377bd","6407ce5c1e26741f768a7e99","681","615","","1702","","f","","","<img src=""media/stimuli/animate_006_right.png"" class=""coveredImage test"" style = ""width:100px; height:100px; position:fixed; top:10%;    transform: translate(-50%, -50%);left:48%""></img><img src=""media/stimuli/animate_006_left.png"" class=""coveredImage test"" style = ""width:100px; height:100px;position:fixed; top:25%;        transform: translate(-50%, -50%);left:38%""></img><img src=""media/stimuli/inanimate_009_right.png"" class=""coveredImage test"" style = ""width:100px; height:100px;position:fixed; top:25%;        transform: translate(-50%, -50%);left:58%""></img><img src=""media/f.png""style = ""width:30px x; height:30px;position:fixed; top:43%;    transform: translate(-50%, -50%);left:40%""></img><img src=""media/j.png""style = ""width:30px; height:30px;position:fixed; top:43%;    transform: translate(-50%, -50%);left:60%""></img>","media/stimuli/animate_006_right.png","animate","right","single","media/stimuli/animate_006_left.png","animate","left","single","media/stimuli/inanimate_009_right.png","inanimate","right","single","pose_animacy","","","",""
"","","","","","html-keyboard-response","108","405696","0.0-108.0","SS1678233190127","5ef6601481666334a551ebe7","6406d7f26dd5b7fc1e3377bd","6407ce5c1e26741f768a7e99","681","615","","965","","f","","","<img src=""media/stimuli/animate_008_right.png"" class=""coveredImage test"" style = ""width:100px; height:100px; position:fixed; top:10%;    transform: translate(-50%, -50%);left:48%""></img><img src=""media/stimuli/animate_008_right.png"" class=""coveredImage test"" style = ""width:100px; height:100px;position:fixed; top:25%;        transform: translate(-50%, -50%);left:34.5%""></img><img src=""media/stimuli/animate_008_right.png"" class=""coveredImage test"" style = ""width:100px; height:100px;position:fixed; top:25%;        transform: translate(-50%, -50%);left:41.5%""></img><img src=""media/stimuli/inanimate_001_right.png"" class=""coveredImage test"" style = ""width:100px; height:100px;position:fixed; top:25%;        transform: translate(-50%, -50%);left:58%""></img><img src=""media/f.png""style = ""width:30px x; height:30px;position:fixed; top:43%;    transform: translate(-50%, -50%);left:40%""></img><img src=""media/j.png""style = ""width:30px; height:30px;position:fixed; top:43%;    transform: translate(-50%, -50%);left:60%""></img>","media/stimuli/animate_008_right.png","animate","right","single","media/stimuli/animate_008_right.png","animate","right","pair","media/stimuli/inanimate_001_right.png","inanimate","right","single","number_animacy","","","",""
"","","","","","html-keyboard-response","109","406525","0.0-109.0","SS1678233190127","5ef6601481666334a551ebe7","6406d7f26dd5b7fc1e3377bd","6407ce5c1e26741f768a7e99","681","615","","821","","j","","","<img src=""media/stimuli/animate_002_left.png"" class=""coveredImage test"" style = ""width:100px; height:100px; position:fixed; top:10%;    transform: translate(-50%, -50%);left:44.5%""></img><img src=""media/stimuli/animate_002_left.png"" class=""coveredImage test"" style = ""width:100px; height:100px; position:fixed; top:10%;    transform: translate(-50%, -50%);left:51.5%""></img><img src=""media/stimuli/animate_004_left.png"" class=""coveredImage test"" style = ""width:100px; height:100px;position:fixed; top:25%;        transform: translate(-50%, -50%);left:34.5%""></img><img src=""media/stimuli/animate_004_left.png"" class=""coveredImage test"" style = ""width:100px; height:100px;position:fixed; top:25%;        transform: translate(-50%, -50%);left:41.5%""></img><img src=""media/stimuli/animate_002_right.png"" class=""coveredImage test"" style = ""width:100px; height:100px;position:fixed; top:25%;        transform: translate(-50%, -50%);left:54.5%""></img><img src=""media/stimuli/animate_002_right.png"" class=""coveredImage test"" style = ""width:100px; height:100px;position:fixed; top:25%;        transform: translate(-50%, -50%);left:61.5%""></img><img src=""media/f.png""style = ""width:30px x; height:30px;position:fixed; top:43%;    transform: translate(-50%, -50%);left:40%""></img><img src=""media/j.png""style = ""width:30px; height:30px;position:fixed; top:43%;    transform: translate(-50%, -50%);left:60%""></img>","media/stimuli/animate_002_left.png","animate","left","pair","media/stimuli/animate_004_left.png","animate","left","pair","media/stimuli/animate_002_right.png","animate","right","pair","identity_pose","","","",""
"","","","","","html-keyboard-response","110","407432","0.0-110.0","SS1678233190127","5ef6601481666334a551ebe7","6406d7f26dd5b7fc1e3377bd","6407ce5c1e26741f768a7e99","681","615","","900","","f","","","<img src=""media/stimuli/animate_002_left.png"" class=""coveredImage test"" style = ""width:100px; height:100px; position:fixed; top:10%;    transform: translate(-50%, -50%);left:44.5%""></img><img src=""media/stimuli/animate_002_left.png"" class=""coveredImage test"" style = ""width:100px; height:100px; position:fixed; top:10%;    transform: translate(-50%, -50%);left:51.5%""></img><img src=""media/stimuli/animate_002_left.png"" class=""coveredImage test"" style = ""width:100px; height:100px;position:fixed; top:25%;        transform: translate(-50%, -50%);left:34.5%""></img><img src=""media/stimuli/animate_002_left.png"" class=""coveredImage test"" style = ""width:100px; height:100px;position:fixed; top:25%;        transform: translate(-50%, -50%);left:41.5%""></img><img src=""media/stimuli/animate_003_left.png"" class=""coveredImage test"" style = ""width:100px; height:100px;position:fixed; top:25%;        transform: translate(-50%, -50%);left:54.5%""></img><img src=""media/stimuli/animate_003_left.png"" class=""coveredImage test"" style = ""width:100px; height:100px;position:fixed; top:25%;        transform: translate(-50%, -50%);left:61.5%""></img><img src=""media/f.png""style = ""width:30px x; height:30px;position:fixed; top:43%;    transform: translate(-50%, -50%);left:40%""></img><img src=""media/j.png""style = ""width:30px; height:30px;position:fixed; top:43%;    transform: translate(-50%, -50%);left:60%""></img>","media/stimuli/animate_002_left.png","animate","left","pair","media/stimuli/animate_002_left.png","animate","left","pair","media/stimuli/animate_003_left.png","animate","left","pair","filler_identity","","","",""
"","","","","","html-keyboard-response","111","409843","0.0-111.0","SS1678233190127","5ef6601481666334a551ebe7","6406d7f26dd5b7fc1e3377bd","6407ce5c1e26741f768a7e99","681","615","","2403","","j","","","<img src=""media/stimuli/animate_008_left.png"" class=""coveredImage test"" style = ""width:100px; height:100px; position:fixed; top:10%;    transform: translate(-50%, -50%);left:44.5%""></img><img src=""media/stimuli/animate_008_left.png"" class=""coveredImage test"" style = ""width:100px; height:100px; position:fixed; top:10%;    transform: translate(-50%, -50%);left:51.5%""></img><img src=""media/stimuli/animate_008_right.png"" class=""coveredImage test"" style = ""width:100px; height:100px;position:fixed; top:25%;        transform: translate(-50%, -50%);left:34.5%""></img><img src=""media/stimuli/animate_008_right.png"" class=""coveredImage test"" style = ""width:100px; height:100px;position:fixed; top:25%;        transform: translate(-50%, -50%);left:41.5%""></img><img src=""media/stimuli/animate_008_left.png"" class=""coveredImage test"" style = ""width:100px; height:100px;position:fixed; top:25%;        transform: translate(-50%, -50%);left:58%""></img><img src=""media/f.png""style = ""width:30px x; height:30px;position:fixed; top:43%;    transform: translate(-50%, -50%);left:40%""></img><img src=""media/j.png""style = ""width:30px; height:30px;position:fixed; top:43%;    transform: translate(-50%, -50%);left:60%""></img>","media/stimuli/animate_008_left.png","animate","left","pair","media/stimuli/animate_008_right.png","animate","right","pair","media/stimuli/animate_008_left.png","animate","left","single","pose_number","","","",""
"","","","","","html-keyboard-response","112","411782","0.0-112.0","SS1678233190127","5ef6601481666334a551ebe7","6406d7f26dd5b7fc1e3377bd","6407ce5c1e26741f768a7e99","681","615","","1931","","j","","","<img src=""media/stimuli/animate_005_right.png"" class=""coveredImage test"" style = ""width:100px; height:100px; position:fixed; top:10%;    transform: translate(-50%, -50%);left:44.5%""></img><img src=""media/stimuli/animate_005_right.png"" class=""coveredImage test"" style = ""width:100px; height:100px; position:fixed; top:10%;    transform: translate(-50%, -50%);left:51.5%""></img><img src=""media/stimuli/animate_005_left.png"" class=""coveredImage test"" style = ""width:100px; height:100px;position:fixed; top:25%;        transform: translate(-50%, -50%);left:34.5%""></img><img src=""media/stimuli/animate_005_left.png"" class=""coveredImage test"" style = ""width:100px; height:100px;position:fixed; top:25%;        transform: translate(-50%, -50%);left:41.5%""></img><img src=""media/stimuli/animate_001_right.png"" class=""coveredImage test"" style = ""width:100px; height:100px;position:fixed; top:25%;        transform: translate(-50%, -50%);left:54.5%""></img><img src=""media/stimuli/animate_001_right.png"" class=""coveredImage test"" style = ""width:100px; height:100px;position:fixed; top:25%;        transform: translate(-50%, -50%);left:61.5%""></img><img src=""media/f.png""style = ""width:30px x; height:30px;position:fixed; top:43%;    transform: translate(-50%, -50%);left:40%""></img><img src=""media/j.png""style = ""width:30px; height:30px;position:fixed; top:43%;    transform: translate(-50%, -50%);left:60%""></img>","media/stimuli/animate_005_right.png","animate","right","pair","media/stimuli/animate_005_left.png","animate","left","pair","media/stimuli/animate_001_right.png","animate","right","pair","pose_identity","","","",""
"","","","","","html-keyboard-response","113","413650","0.0-113.0","SS1678233190127","5ef6601481666334a551ebe7","6406d7f26dd5b7fc1e3377bd","6407ce5c1e26741f768a7e99","681","615","","1859","","f","","","<img src=""media/stimuli/animate_002_right.png"" class=""coveredImage test"" style = ""width:100px; height:100px; position:fixed; top:10%;    transform: translate(-50%, -50%);left:48%""></img><img src=""media/stimuli/animate_002_right.png"" class=""coveredImage test"" style = ""width:100px; height:100px;position:fixed; top:25%;        transform: translate(-50%, -50%);left:34.5%""></img><img src=""media/stimuli/animate_002_right.png"" class=""coveredImage test"" style = ""width:100px; height:100px;position:fixed; top:25%;        transform: translate(-50%, -50%);left:41.5%""></img><img src=""media/stimuli/animate_006_right.png"" class=""coveredImage test"" style = ""width:100px; height:100px;position:fixed; top:25%;        transform: translate(-50%, -50%);left:58%""></img><img src=""media/f.png""style = ""width:30px x; height:30px;position:fixed; top:43%;    transform: translate(-50%, -50%);left:40%""></img><img src=""media/j.png""style = ""width:30px; height:30px;position:fixed; top:43%;    transform: translate(-50%, -50%);left:60%""></img>","media/stimuli/animate_002_right.png","animate","right","single","media/stimuli/animate_002_right.png","animate","right","pair","media/stimuli/animate_006_right.png","animate","right","single","number_identity","","","",""
"","","","","","html-keyboard-response","114","415806","0.0-114.0","SS1678233190127","5ef6601481666334a551ebe7","6406d7f26dd5b7fc1e3377bd","6407ce5c1e26741f768a7e99","681","615","","2150","","j","","","<img src=""media/stimuli/animate_004_left.png"" class=""coveredImage test"" style = ""width:100px; height:100px; position:fixed; top:10%;    transform: translate(-50%, -50%);left:48%""></img><img src=""media/stimuli/inanimate_004_left.png"" class=""coveredImage test"" style = ""width:100px; height:100px;position:fixed; top:25%;        transform: translate(-50%, -50%);left:38%""></img><img src=""media/stimuli/animate_003_left.png"" class=""coveredImage test"" style = ""width:100px; height:100px;position:fixed; top:25%;        transform: translate(-50%, -50%);left:58%""></img><img src=""media/f.png""style = ""width:30px x; height:30px;position:fixed; top:43%;    transform: translate(-50%, -50%);left:40%""></img><img src=""media/j.png""style = ""width:30px; height:30px;position:fixed; top:43%;    transform: translate(-50%, -50%);left:60%""></img>","media/stimuli/animate_004_left.png","animate","left","single","media/stimuli/inanimate_004_left.png","inanimate","left","single","media/stimuli/animate_003_left.png","animate","left","single","animacy_identity","","","",""
"","","","","","html-keyboard-response","115","416798","0.0-115.0","SS1678233190127","5ef6601481666334a551ebe7","6406d7f26dd5b7fc1e3377bd","6407ce5c1e26741f768a7e99","681","615","","977",""," ","","","","","","","","","","","","","","","","","","","",""
"","","","","","html-keyboard-response","116","418252","0.0-116.0","SS1678233190127","5ef6601481666334a551ebe7","6406d7f26dd5b7fc1e3377bd","6407ce5c1e26741f768a7e99","681","615","","1433","","j","","","<img src=""media/stimuli/inanimate_010_left.png"" class=""coveredImage test"" style = ""width:100px; height:100px; position:fixed; top:10%;    transform: translate(-50%, -50%);left:48%""></img><img src=""media/stimuli/animate_008_left.png"" class=""coveredImage test"" style = ""width:100px; height:100px;position:fixed; top:25%;        transform: translate(-50%, -50%);left:38%""></img><img src=""media/stimuli/inanimate_010_left.png"" class=""coveredImage test"" style = ""width:100px; height:100px;position:fixed; top:25%;        transform: translate(-50%, -50%);left:54.5%""></img><img src=""media/stimuli/inanimate_010_left.png"" class=""coveredImage test"" style = ""width:100px; height:100px;position:fixed; top:25%;        transform: translate(-50%, -50%);left:61.5%""></img><img src=""media/f.png""style = ""width:30px x; height:30px;position:fixed; top:43%;    transform: translate(-50%, -50%);left:40%""></img><img src=""media/j.png""style = ""width:30px; height:30px;position:fixed; top:43%;    transform: translate(-50%, -50%);left:60%""></img>","media/stimuli/inanimate_010_left.png","inanimate","left","single","media/stimuli/animate_008_left.png","animate","left","single","media/stimuli/inanimate_010_left.png","inanimate","left","pair","animacy_number","","","",""
"","","","","","html-keyboard-response","117","419142","0.0-117.0","SS1678233190127","5ef6601481666334a551ebe7","6406d7f26dd5b7fc1e3377bd","6407ce5c1e26741f768a7e99","681","615","","883","","f","","","<img src=""media/stimuli/inanimate_011_left.png"" class=""coveredImage test"" style = ""width:100px; height:100px; position:fixed; top:10%;    transform: translate(-50%, -50%);left:48%""></img><img src=""media/stimuli/inanimate_011_left.png"" class=""coveredImage test"" style = ""width:100px; height:100px;position:fixed; top:25%;        transform: translate(-50%, -50%);left:34.5%""></img><img src=""media/stimuli/inanimate_011_left.png"" class=""coveredImage test"" style = ""width:100px; height:100px;position:fixed; top:25%;        transform: translate(-50%, -50%);left:41.5%""></img><img src=""media/stimuli/inanimate_001_left.png"" class=""coveredImage test"" style = ""width:100px; height:100px;position:fixed; top:25%;        transform: translate(-50%, -50%);left:58%""></img><img src=""media/f.png""style = ""width:30px x; height:30px;position:fixed; top:43%;    transform: translate(-50%, -50%);left:40%""></img><img src=""media/j.png""style = ""width:30px; height:30px;position:fixed; top:43%;    transform: translate(-50%, -50%);left:60%""></img>","media/stimuli/inanimate_011_left.png","inanimate","left","single","media/stimuli/inanimate_011_left.png","inanimate","left","pair","media/stimuli/inanimate_001_left.png","inanimate","left","single","number_identity","","","",""
"","","","","","html-keyboard-response","118","428115","0.0-118.0","SS1678233190127","5ef6601481666334a551ebe7","6406d7f26dd5b7fc1e3377bd","6407ce5c1e26741f768a7e99","681","615","","8963","","j","","","<img src=""media/stimuli/animate_009_left.png"" class=""coveredImage test"" style = ""width:100px; height:100px; position:fixed; top:10%;    transform: translate(-50%, -50%);left:44.5%""></img><img src=""media/stimuli/animate_009_left.png"" class=""coveredImage test"" style = ""width:100px; height:100px; position:fixed; top:10%;    transform: translate(-50%, -50%);left:51.5%""></img><img src=""media/stimuli/animate_009_right.png"" class=""coveredImage test"" style = ""width:100px; height:100px;position:fixed; top:25%;        transform: translate(-50%, -50%);left:34.5%""></img><img src=""media/stimuli/animate_009_right.png"" class=""coveredImage test"" style = ""width:100px; height:100px;position:fixed; top:25%;        transform: translate(-50%, -50%);left:41.5%""></img><img src=""media/stimuli/animate_007_left.png"" class=""coveredImage test"" style = ""width:100px; height:100px;position:fixed; top:25%;        transform: translate(-50%, -50%);left:54.5%""></img><img src=""media/stimuli/animate_007_left.png"" class=""coveredImage test"" style = ""width:100px; height:100px;position:fixed; top:25%;        transform: translate(-50%, -50%);left:61.5%""></img><img src=""media/f.png""style = ""width:30px x; height:30px;position:fixed; top:43%;    transform: translate(-50%, -50%);left:40%""></img><img src=""media/j.png""style = ""width:30px; height:30px;position:fixed; top:43%;    transform: translate(-50%, -50%);left:60%""></img>","media/stimuli/animate_009_left.png","animate","left","pair","media/stimuli/animate_009_right.png","animate","right","pair","media/stimuli/animate_007_left.png","animate","left","pair","pose_identity","","","",""
"","","","","","html-keyboard-response","119","429110","0.0-119.0","SS1678233190127","5ef6601481666334a551ebe7","6406d7f26dd5b7fc1e3377bd","6407ce5c1e26741f768a7e99","681","615","","985","","j","","","<img src=""media/stimuli/inanimate_009_left.png"" class=""coveredImage test"" style = ""width:100px; height:100px; position:fixed; top:10%;    transform: translate(-50%, -50%);left:44.5%""></img><img src=""media/stimuli/inanimate_009_left.png"" class=""coveredImage test"" style = ""width:100px; height:100px; position:fixed; top:10%;    transform: translate(-50%, -50%);left:51.5%""></img><img src=""media/stimuli/animate_008_right.png"" class=""coveredImage test"" style = ""width:100px; height:100px;position:fixed; top:25%;        transform: translate(-50%, -50%);left:34.5%""></img><img src=""media/stimuli/animate_008_right.png"" class=""coveredImage test"" style = ""width:100px; height:100px;position:fixed; top:25%;        transform: translate(-50%, -50%);left:41.5%""></img><img src=""media/stimuli/inanimate_009_left.png"" class=""coveredImage test"" style = ""width:100px; height:100px;position:fixed; top:25%;        transform: translate(-50%, -50%);left:54.5%""></img><img src=""media/stimuli/inanimate_009_left.png"" class=""coveredImage test"" style = ""width:100px; height:100px;position:fixed; top:25%;        transform: translate(-50%, -50%);left:61.5%""></img><img src=""media/f.png""style = ""width:30px x; height:30px;position:fixed; top:43%;    transform: translate(-50%, -50%);left:40%""></img><img src=""media/j.png""style = ""width:30px; height:30px;position:fixed; top:43%;    transform: translate(-50%, -50%);left:60%""></img>","media/stimuli/inanimate_009_left.png","inanimate","left","pair","media/stimuli/animate_008_right.png","animate","right","pair","media/stimuli/inanimate_009_left.png","inanimate","left","pair","animacy_pose","","","",""
"","","","","","html-keyboard-response","120","431357","0.0-120.0","SS1678233190127","5ef6601481666334a551ebe7","6406d7f26dd5b7fc1e3377bd","6407ce5c1e26741f768a7e99","681","615","","2235","","j","","","<img src=""media/stimuli/inanimate_007_left.png"" class=""coveredImage test"" style = ""width:100px; height:100px; position:fixed; top:10%;    transform: translate(-50%, -50%);left:44.5%""></img><img src=""media/stimuli/inanimate_007_left.png"" class=""coveredImage test"" style = ""width:100px; height:100px; position:fixed; top:10%;    transform: translate(-50%, -50%);left:51.5%""></img><img src=""media/stimuli/animate_004_left.png"" class=""coveredImage test"" style = ""width:100px; height:100px;position:fixed; top:25%;        transform: translate(-50%, -50%);left:38%""></img><img src=""media/stimuli/inanimate_007_right.png"" class=""coveredImage test"" style = ""width:100px; height:100px;position:fixed; top:25%;        transform: translate(-50%, -50%);left:58%""></img><img src=""media/f.png""style = ""width:30px x; height:30px;position:fixed; top:43%;    transform: translate(-50%, -50%);left:40%""></img><img src=""media/j.png""style = ""width:30px; height:30px;position:fixed; top:43%;    transform: translate(-50%, -50%);left:60%""></img>","media/stimuli/inanimate_007_left.png","inanimate","left","pair","media/stimuli/animate_004_left.png","animate","left","single","media/stimuli/inanimate_007_right.png","inanimate","right","single","animacy_pose","","","",""
"","","","","","html-keyboard-response","121","435842","0.0-121.0","SS1678233190127","5ef6601481666334a551ebe7","6406d7f26dd5b7fc1e3377bd","6407ce5c1e26741f768a7e99","681","615","","4474","","f","","","<img src=""media/stimuli/inanimate_010_right.png"" class=""coveredImage test"" style = ""width:100px; height:100px; position:fixed; top:10%;    transform: translate(-50%, -50%);left:44.5%""></img><img src=""media/stimuli/inanimate_010_right.png"" class=""coveredImage test"" style = ""width:100px; height:100px; position:fixed; top:10%;    transform: translate(-50%, -50%);left:51.5%""></img><img src=""media/stimuli/inanimate_009_right.png"" class=""coveredImage test"" style = ""width:100px; height:100px;position:fixed; top:25%;        transform: translate(-50%, -50%);left:34.5%""></img><img src=""media/stimuli/inanimate_009_right.png"" class=""coveredImage test"" style = ""width:100px; height:100px;position:fixed; top:25%;        transform: translate(-50%, -50%);left:41.5%""></img><img src=""media/stimuli/animate_002_right.png"" class=""coveredImage test"" style = ""width:100px; height:100px;position:fixed; top:25%;        transform: translate(-50%, -50%);left:54.5%""></img><img src=""media/stimuli/animate_002_right.png"" class=""coveredImage test"" style = ""width:100px; height:100px;position:fixed; top:25%;        transform: translate(-50%, -50%);left:61.5%""></img><img src=""media/f.png""style = ""width:30px x; height:30px;position:fixed; top:43%;    transform: translate(-50%, -50%);left:40%""></img><img src=""media/j.png""style = ""width:30px; height:30px;position:fixed; top:43%;    transform: translate(-50%, -50%);left:60%""></img>","media/stimuli/inanimate_010_right.png","inanimate","right","pair","media/stimuli/inanimate_009_right.png","inanimate","right","pair","media/stimuli/animate_002_right.png","animate","right","pair","identity_animacy","","","",""
"","","","","","html-keyboard-response","122","437671","0.0-122.0","SS1678233190127","5ef6601481666334a551ebe7","6406d7f26dd5b7fc1e3377bd","6407ce5c1e26741f768a7e99","681","615","","1818","","j","","","<img src=""media/stimuli/animate_003_left.png"" class=""coveredImage test"" style = ""width:100px; height:100px; position:fixed; top:10%;    transform: translate(-50%, -50%);left:48%""></img><img src=""media/stimuli/animate_003_right.png"" class=""coveredImage test"" style = ""width:100px; height:100px;position:fixed; top:25%;        transform: translate(-50%, -50%);left:38%""></img><img src=""media/stimuli/animate_005_left.png"" class=""coveredImage test"" style = ""width:100px; height:100px;position:fixed; top:25%;        transform: translate(-50%, -50%);left:58%""></img><img src=""media/f.png""style = ""width:30px x; height:30px;position:fixed; top:43%;    transform: translate(-50%, -50%);left:40%""></img><img src=""media/j.png""style = ""width:30px; height:30px;position:fixed; top:43%;    transform: translate(-50%, -50%);left:60%""></img>","media/stimuli/animate_003_left.png","animate","left","single","media/stimuli/animate_003_right.png","animate","right","single","media/stimuli/animate_005_left.png","animate","left","single","pose_identity","","","",""
"","","","","","html-keyboard-response","123","439246","0.0-123.0","SS1678233190127","5ef6601481666334a551ebe7","6406d7f26dd5b7fc1e3377bd","6407ce5c1e26741f768a7e99","681","615","","1566","","f","","","<img src=""media/stimuli/inanimate_012_right.png"" class=""coveredImage test"" style = ""width:100px; height:100px; position:fixed; top:10%;    transform: translate(-50%, -50%);left:44.5%""></img><img src=""media/stimuli/inanimate_012_right.png"" class=""coveredImage test"" style = ""width:100px; height:100px; position:fixed; top:10%;    transform: translate(-50%, -50%);left:51.5%""></img><img src=""media/stimuli/inanimate_012_right.png"" class=""coveredImage test"" style = ""width:100px; height:100px;position:fixed; top:25%;        transform: translate(-50%, -50%);left:34.5%""></img><img src=""media/stimuli/inanimate_012_right.png"" class=""coveredImage test"" style = ""width:100px; height:100px;position:fixed; top:25%;        transform: translate(-50%, -50%);left:41.5%""></img><img src=""media/stimuli/animate_002_left.png"" class=""coveredImage test"" style = ""width:100px; height:100px;position:fixed; top:25%;        transform: translate(-50%, -50%);left:54.5%""></img><img src=""media/stimuli/animate_002_left.png"" class=""coveredImage test"" style = ""width:100px; height:100px;position:fixed; top:25%;        transform: translate(-50%, -50%);left:61.5%""></img><img src=""media/f.png""style = ""width:30px x; height:30px;position:fixed; top:43%;    transform: translate(-50%, -50%);left:40%""></img><img src=""media/j.png""style = ""width:30px; height:30px;position:fixed; top:43%;    transform: translate(-50%, -50%);left:60%""></img>","media/stimuli/inanimate_012_right.png","inanimate","right","pair","media/stimuli/inanimate_012_right.png","inanimate","right","pair","media/stimuli/animate_002_left.png","animate","left","pair","pose_animacy","","","",""
