"success","timeout","failed_images","failed_audio","failed_video","trial_type","trial_index","time_elapsed","internal_node_id","subject","prolific_id","study","session","window_width","window_height","view_history","rt","stimulus_type","response","question_order","rating_type","stimulus","target","target_animacy","target_pose","target_number","left","left_animacy","left_pose","left_number","right","right_animacy","right_pose","right_number","comparison_type","rating_stimulus","rating_animacy","rating_number","rating_pose"
"true","false","[]","[]","[]","preload","0","5401","0.0-0.0","SS1678233207922","63d7b1a77e23b5460ab88069","6406d7f26dd5b7fc1e3377bd","6407ce4dbd9e3fb95f83a09a","1277","610","","","","","","","","","","","","","","","","","","","","","","","",""
"","","","","","instructions","1","105944","0.0-1.0","SS1678233207922","63d7b1a77e23b5460ab88069","6406d7f26dd5b7fc1e3377bd","6407ce4dbd9e3fb95f83a09a","1277","610","[{""page_index"":0,""viewing_time"":100539}]","100541","","","","","","","","","","","","","","","","","","","","","",""
"","","","","","instructions","2","113582","0.0-2.0","SS1678233207922","63d7b1a77e23b5460ab88069","6406d7f26dd5b7fc1e3377bd","6407ce4dbd9e3fb95f83a09a","1277","610","[{""page_index"":0,""viewing_time"":5620}]","5621","instructions","","","","","","","","","","","","","","","","","","","","",""
"","","","","","instructions","3","242816","0.0-3.0","SS1678233207922","63d7b1a77e23b5460ab88069","6406d7f26dd5b7fc1e3377bd","6407ce4dbd9e3fb95f83a09a","1277","610","[{""page_index"":0,""viewing_time"":129228}]","129229","instructions","","","","","","","","","","","","","","","","","","","","",""
"","","","","","survey-likert","4","252276","0.0-4.0","SS1678233207922","63d7b1a77e23b5460ab88069","6406d7f26dd5b7fc1e3377bd","6407ce4dbd9e3fb95f83a09a","1277","610","","9455","","{""Q0"":5}","[0]","anchoring","","","","","","","","","","","","","","","","","",""
"","","","","","survey-likert","5","257186","0.0-5.0","SS1678233207922","63d7b1a77e23b5460ab88069","6406d7f26dd5b7fc1e3377bd","6407ce4dbd9e3fb95f83a09a","1277","610","","4908","","{""Q0"":2}","[0]","anchoring","","","","","","","","","","","","","","","","","",""
"","","","","","instructions","6","258786","0.0-6.0","SS1678233207922","63d7b1a77e23b5460ab88069","6406d7f26dd5b7fc1e3377bd","6407ce4dbd9e3fb95f83a09a","1277","610","[{""page_index"":0,""viewing_time"":1595}]","1595","instructions","","","","","","","","","","","","","","","","","","","","",""
"true","","","","","fullscreen","7","272670","0.0-7.0","SS1678233207922","63d7b1a77e23b5460ab88069","6406d7f26dd5b7fc1e3377bd","6407ce4dbd9e3fb95f83a09a","1277","610","","","","","","","","","","","","","","","","","","","","","","","",""
"","","","","","html-keyboard-response","8","288706","0.0-8.0","SS1678233207922","63d7b1a77e23b5460ab88069","6406d7f26dd5b7fc1e3377bd","6407ce4dbd9e3fb95f83a09a","1277","610","","16033","","f","","","<img src=""media/stimuli/animate_002_right.png"" class=""coveredImage test"" style = ""width:100px; height:100px; position:fixed; top:10%;    transform: translate(-50%, -50%);left:48%""></img><img src=""media/stimuli/animate_002_right.png"" class=""coveredImage test"" style = ""width:100px; height:100px;position:fixed; top:25%;        transform: translate(-50%, -50%);left:34.5%""></img><img src=""media/stimuli/animate_002_right.png"" class=""coveredImage test"" style = ""width:100px; height:100px;position:fixed; top:25%;        transform: translate(-50%, -50%);left:41.5%""></img><img src=""media/stimuli/animate_002_right.png"" class=""coveredImage test"" style = ""width:100px; height:100px;position:fixed; top:25%;        transform: translate(-50%, -50%);left:58%""></img><img src=""media/f.png""style = ""width:30px x; height:30px;position:fixed; top:43%;    transform: translate(-50%, -50%);left:40%""></img><img src=""media/j.png""style = ""width:30px; height:30px;position:fixed; top:43%;    transform: translate(-50%, -50%);left:60%""></img>","media/stimuli/animate_002_right.png","animate","right","single","media/stimuli/animate_002_right.png","animate","right","pair","media/stimuli/animate_002_right.png","animate","right","single","number_filler","","","",""
"","","","","","html-keyboard-response","9","302362","0.0-9.0","SS1678233207922","63d7b1a77e23b5460ab88069","6406d7f26dd5b7fc1e3377bd","6407ce4dbd9e3fb95f83a09a","1277","610","","13654","","j","","","<img src=""media/stimuli/animate_006_left.png"" class=""coveredImage test"" style = ""width:100px; height:100px; position:fixed; top:10%;    transform: translate(-50%, -50%);left:48%""></img><img src=""media/stimuli/animate_006_left.png"" class=""coveredImage test"" style = ""width:100px; height:100px;position:fixed; top:25%;        transform: translate(-50%, -50%);left:34.5%""></img><img src=""media/stimuli/animate_006_left.png"" class=""coveredImage test"" style = ""width:100px; height:100px;position:fixed; top:25%;        transform: translate(-50%, -50%);left:41.5%""></img><img src=""media/stimuli/animate_006_right.png"" class=""coveredImage test"" style = ""width:100px; height:100px;position:fixed; top:25%;        transform: translate(-50%, -50%);left:58%""></img><img src=""media/f.png""style = ""width:30px x; height:30px;position:fixed; top:43%;    transform: translate(-50%, -50%);left:40%""></img><img src=""media/j.png""style = ""width:30px; height:30px;position:fixed; top:43%;    transform: translate(-50%, -50%);left:60%""></img>","media/stimuli/animate_006_left.png","animate","left","single","media/stimuli/animate_006_left.png","animate","left","pair","media/stimuli/animate_006_right.png","animate","right","single","number_pose","","","",""
"","","","","","html-keyboard-response","10","308814","0.0-10.0","SS1678233207922","63d7b1a77e23b5460ab88069","6406d7f26dd5b7fc1e3377bd","6407ce4dbd9e3fb95f83a09a","1277","610","","6448","","j","","","<img src=""media/stimuli/inanimate_005_left.png"" class=""coveredImage test"" style = ""width:100px; height:100px; position:fixed; top:10%;    transform: translate(-50%, -50%);left:48%""></img><img src=""media/stimuli/inanimate_001_left.png"" class=""coveredImage test"" style = ""width:100px; height:100px;position:fixed; top:25%;        transform: translate(-50%, -50%);left:38%""></img><img src=""media/stimuli/animate_004_left.png"" class=""coveredImage test"" style = ""width:100px; height:100px;position:fixed; top:25%;        transform: translate(-50%, -50%);left:58%""></img><img src=""media/f.png""style = ""width:30px x; height:30px;position:fixed; top:43%;    transform: translate(-50%, -50%);left:40%""></img><img src=""media/j.png""style = ""width:30px; height:30px;position:fixed; top:43%;    transform: translate(-50%, -50%);left:60%""></img>","media/stimuli/inanimate_005_left.png","inanimate","left","single","media/stimuli/inanimate_001_left.png","inanimate","left","single","media/stimuli/animate_004_left.png","animate","left","single","identity_animacy","","","",""
"","","","","","html-keyboard-response","11","310902","0.0-11.0","SS1678233207922","63d7b1a77e23b5460ab88069","6406d7f26dd5b7fc1e3377bd","6407ce4dbd9e3fb95f83a09a","1277","610","","2085","","f","","","<img src=""media/stimuli/animate_001_right.png"" class=""coveredImage test"" style = ""width:100px; height:100px; position:fixed; top:10%;    transform: translate(-50%, -50%);left:48%""></img><img src=""media/stimuli/animate_001_left.png"" class=""coveredImage test"" style = ""width:100px; height:100px;position:fixed; top:25%;        transform: translate(-50%, -50%);left:38%""></img><img src=""media/stimuli/animate_001_right.png"" class=""coveredImage test"" style = ""width:100px; height:100px;position:fixed; top:25%;        transform: translate(-50%, -50%);left:54.5%""></img><img src=""media/stimuli/animate_001_right.png"" class=""coveredImage test"" style = ""width:100px; height:100px;position:fixed; top:25%;        transform: translate(-50%, -50%);left:61.5%""></img><img src=""media/f.png""style = ""width:30px x; height:30px;position:fixed; top:43%;    transform: translate(-50%, -50%);left:40%""></img><img src=""media/j.png""style = ""width:30px; height:30px;position:fixed; top:43%;    transform: translate(-50%, -50%);left:60%""></img>","media/stimuli/animate_001_right.png","animate","right","single","media/stimuli/animate_001_left.png","animate","left","single","media/stimuli/animate_001_right.png","animate","right","pair","pose_number","","","",""
"","","","","","html-keyboard-response","12","318875","0.0-12.0","SS1678233207922","63d7b1a77e23b5460ab88069","6406d7f26dd5b7fc1e3377bd","6407ce4dbd9e3fb95f83a09a","1277","610","","7972","","f","","","<img src=""media/stimuli/animate_007_right.png"" class=""coveredImage test"" style = ""width:100px; height:100px; position:fixed; top:10%;    transform: translate(-50%, -50%);left:48%""></img><img src=""media/stimuli/animate_007_right.png"" class=""coveredImage test"" style = ""width:100px; height:100px;position:fixed; top:25%;        transform: translate(-50%, -50%);left:34.5%""></img><img src=""media/stimuli/animate_007_right.png"" class=""coveredImage test"" style = ""width:100px; height:100px;position:fixed; top:25%;        transform: translate(-50%, -50%);left:41.5%""></img><img src=""media/stimuli/inanimate_001_right.png"" class=""coveredImage test"" style = ""width:100px; height:100px;position:fixed; top:25%;        transform: translate(-50%, -50%);left:58%""></img><img src=""media/f.png""style = ""width:30px x; height:30px;position:fixed; top:43%;    transform: translate(-50%, -50%);left:40%""></img><img src=""media/j.png""style = ""width:30px; height:30px;position:fixed; top:43%;    transform: translate(-50%, -50%);left:60%""></img>","media/stimuli/animate_007_right.png","animate","right","single","media/stimuli/animate_007_right.png","animate","right","pair","media/stimuli/inanimate_001_right.png","inanimate","right","single","number_animacy","","","",""
"","","","","","html-keyboard-response","13","320249","0.0-13.0","SS1678233207922","63d7b1a77e23b5460ab88069","6406d7f26dd5b7fc1e3377bd","6407ce4dbd9e3fb95f83a09a","1277","610","","1373","","j","","","<img src=""media/stimuli/animate_009_left.png"" class=""coveredImage test"" style = ""width:100px; height:100px; position:fixed; top:10%;    transform: translate(-50%, -50%);left:44.5%""></img><img src=""media/stimuli/animate_009_left.png"" class=""coveredImage test"" style = ""width:100px; height:100px; position:fixed; top:10%;    transform: translate(-50%, -50%);left:51.5%""></img><img src=""media/stimuli/inanimate_006_left.png"" class=""coveredImage test"" style = ""width:100px; height:100px;position:fixed; top:25%;        transform: translate(-50%, -50%);left:34.5%""></img><img src=""media/stimuli/inanimate_006_left.png"" class=""coveredImage test"" style = ""width:100px; height:100px;position:fixed; top:25%;        transform: translate(-50%, -50%);left:41.5%""></img><img src=""media/stimuli/animate_009_left.png"" class=""coveredImage test"" style = ""width:100px; height:100px;position:fixed; top:25%;        transform: translate(-50%, -50%);left:58%""></img><img src=""media/f.png""style = ""width:30px x; height:30px;position:fixed; top:43%;    transform: translate(-50%, -50%);left:40%""></img><img src=""media/j.png""style = ""width:30px; height:30px;position:fixed; top:43%;    transform: translate(-50%, -50%);left:60%""></img>","media/stimuli/animate_009_left.png","animate","left","pair","media/stimuli/inanimate_006_left.png","inanimate","left","pair","media/stimuli/animate_009_left.png","animate","left","single","animacy_number","","","",""
"","","","","","html-keyboard-response","14","322295","0.0-14.0","SS1678233207922","63d7b1a77e23b5460ab88069","6406d7f26dd5b7fc1e3377bd","6407ce4dbd9e3fb95f83a09a","1277","610","","2045","","j","","","<img src=""media/stimuli/animate_002_right.png"" class=""coveredImage test"" style = ""width:100px; height:100px; position:fixed; top:10%;    transform: translate(-50%, -50%);left:44.5%""></img><img src=""media/stimuli/animate_002_right.png"" class=""coveredImage test"" style = ""width:100px; height:100px; position:fixed; top:10%;    transform: translate(-50%, -50%);left:51.5%""></img><img src=""media/stimuli/animate_002_left.png"" class=""coveredImage test"" style = ""width:100px; height:100px;position:fixed; top:25%;        transform: translate(-50%, -50%);left:34.5%""></img><img src=""media/stimuli/animate_002_left.png"" class=""coveredImage test"" style = ""width:100px; height:100px;position:fixed; top:25%;        transform: translate(-50%, -50%);left:41.5%""></img><img src=""media/stimuli/animate_002_right.png"" class=""coveredImage test"" style = ""width:100px; height:100px;position:fixed; top:25%;        transform: translate(-50%, -50%);left:58%""></img><img src=""media/f.png""style = ""width:30px x; height:30px;position:fixed; top:43%;    transform: translate(-50%, -50%);left:40%""></img><img src=""media/j.png""style = ""width:30px; height:30px;position:fixed; top:43%;    transform: translate(-50%, -50%);left:60%""></img>","media/stimuli/animate_002_right.png","animate","right","pair","media/stimuli/animate_002_left.png","animate","left","pair","media/stimuli/animate_002_right.png","animate","right","single","pose_number","","","",""
"","","","","","html-keyboard-response","15","324632","0.0-15.0","SS1678233207922","63d7b1a77e23b5460ab88069","6406d7f26dd5b7fc1e3377bd","6407ce4dbd9e3fb95f83a09a","1277","610","","2334","","j","","","<img src=""media/stimuli/animate_009_left.png"" class=""coveredImage test"" style = ""width:100px; height:100px; position:fixed; top:10%;    transform: translate(-50%, -50%);left:44.5%""></img><img src=""media/stimuli/animate_009_left.png"" class=""coveredImage test"" style = ""width:100px; height:100px; position:fixed; top:10%;    transform: translate(-50%, -50%);left:51.5%""></img><img src=""media/stimuli/animate_004_left.png"" class=""coveredImage test"" style = ""width:100px; height:100px;position:fixed; top:25%;        transform: translate(-50%, -50%);left:34.5%""></img><img src=""media/stimuli/animate_004_left.png"" class=""coveredImage test"" style = ""width:100px; height:100px;position:fixed; top:25%;        transform: translate(-50%, -50%);left:41.5%""></img><img src=""media/stimuli/animate_009_right.png"" class=""coveredImage test"" style = ""width:100px; height:100px;position:fixed; top:25%;        transform: translate(-50%, -50%);left:54.5%""></img><img src=""media/stimuli/animate_009_right.png"" class=""coveredImage test"" style = ""width:100px; height:100px;position:fixed; top:25%;        transform: translate(-50%, -50%);left:61.5%""></img><img src=""media/f.png""style = ""width:30px x; height:30px;position:fixed; top:43%;    transform: translate(-50%, -50%);left:40%""></img><img src=""media/j.png""style = ""width:30px; height:30px;position:fixed; top:43%;    transform: translate(-50%, -50%);left:60%""></img>","media/stimuli/animate_009_left.png","animate","left","pair","media/stimuli/animate_004_left.png","animate","left","pair","media/stimuli/animate_009_right.png","animate","right","pair","identity_pose","","","",""
"","","","","","html-keyboard-response","16","326399","0.0-16.0","SS1678233207922","63d7b1a77e23b5460ab88069","6406d7f26dd5b7fc1e3377bd","6407ce4dbd9e3fb95f83a09a","1277","610","","1765","","f","","","<img src=""media/stimuli/inanimate_011_left.png"" class=""coveredImage test"" style = ""width:100px; height:100px; position:fixed; top:10%;    transform: translate(-50%, -50%);left:48%""></img><img src=""media/stimuli/inanimate_003_left.png"" class=""coveredImage test"" style = ""width:100px; height:100px;position:fixed; top:25%;        transform: translate(-50%, -50%);left:38%""></img><img src=""media/stimuli/animate_002_left.png"" class=""coveredImage test"" style = ""width:100px; height:100px;position:fixed; top:25%;        transform: translate(-50%, -50%);left:58%""></img><img src=""media/f.png""style = ""width:30px x; height:30px;position:fixed; top:43%;    transform: translate(-50%, -50%);left:40%""></img><img src=""media/j.png""style = ""width:30px; height:30px;position:fixed; top:43%;    transform: translate(-50%, -50%);left:60%""></img>","media/stimuli/inanimate_011_left.png","inanimate","left","single","media/stimuli/inanimate_003_left.png","inanimate","left","single","media/stimuli/animate_002_left.png","animate","left","single","identity_animacy","","","",""
"","","","","","html-keyboard-response","17","328661","0.0-17.0","SS1678233207922","63d7b1a77e23b5460ab88069","6406d7f26dd5b7fc1e3377bd","6407ce4dbd9e3fb95f83a09a","1277","610","","2261","","f","","","<img src=""media/stimuli/animate_004_right.png"" class=""coveredImage test"" style = ""width:100px; height:100px; position:fixed; top:10%;    transform: translate(-50%, -50%);left:44.5%""></img><img src=""media/stimuli/animate_004_right.png"" class=""coveredImage test"" style = ""width:100px; height:100px; position:fixed; top:10%;    transform: translate(-50%, -50%);left:51.5%""></img><img src=""media/stimuli/animate_005_right.png"" class=""coveredImage test"" style = ""width:100px; height:100px;position:fixed; top:25%;        transform: translate(-50%, -50%);left:34.5%""></img><img src=""media/stimuli/animate_005_right.png"" class=""coveredImage test"" style = ""width:100px; height:100px;position:fixed; top:25%;        transform: translate(-50%, -50%);left:41.5%""></img><img src=""media/stimuli/inanimate_007_right.png"" class=""coveredImage test"" style = ""width:100px; height:100px;position:fixed; top:25%;        transform: translate(-50%, -50%);left:54.5%""></img><img src=""media/stimuli/inanimate_007_right.png"" class=""coveredImage test"" style = ""width:100px; height:100px;position:fixed; top:25%;        transform: translate(-50%, -50%);left:61.5%""></img><img src=""media/f.png""style = ""width:30px x; height:30px;position:fixed; top:43%;    transform: translate(-50%, -50%);left:40%""></img><img src=""media/j.png""style = ""width:30px; height:30px;position:fixed; top:43%;    transform: translate(-50%, -50%);left:60%""></img>","media/stimuli/animate_004_right.png","animate","right","pair","media/stimuli/animate_005_right.png","animate","right","pair","media/stimuli/inanimate_007_right.png","inanimate","right","pair","identity_animacy","","","",""
"","","","","","html-keyboard-response","18","329573","0.0-18.0","SS1678233207922","63d7b1a77e23b5460ab88069","6406d7f26dd5b7fc1e3377bd","6407ce4dbd9e3fb95f83a09a","1277","610","","908","","j","","","<img src=""media/stimuli/animate_009_left.png"" class=""coveredImage test"" style = ""width:100px; height:100px; position:fixed; top:10%;    transform: translate(-50%, -50%);left:48%""></img><img src=""media/stimuli/animate_002_left.png"" class=""coveredImage test"" style = ""width:100px; height:100px;position:fixed; top:25%;        transform: translate(-50%, -50%);left:38%""></img><img src=""media/stimuli/animate_009_left.png"" class=""coveredImage test"" style = ""width:100px; height:100px;position:fixed; top:25%;        transform: translate(-50%, -50%);left:54.5%""></img><img src=""media/stimuli/animate_009_left.png"" class=""coveredImage test"" style = ""width:100px; height:100px;position:fixed; top:25%;        transform: translate(-50%, -50%);left:61.5%""></img><img src=""media/f.png""style = ""width:30px x; height:30px;position:fixed; top:43%;    transform: translate(-50%, -50%);left:40%""></img><img src=""media/j.png""style = ""width:30px; height:30px;position:fixed; top:43%;    transform: translate(-50%, -50%);left:60%""></img>","media/stimuli/animate_009_left.png","animate","left","single","media/stimuli/animate_002_left.png","animate","left","single","media/stimuli/animate_009_left.png","animate","left","pair","identity_number","","","",""
"","","","","","html-keyboard-response","19","331054","0.0-19.0","SS1678233207922","63d7b1a77e23b5460ab88069","6406d7f26dd5b7fc1e3377bd","6407ce4dbd9e3fb95f83a09a","1277","610","","1478","","j","","","<img src=""media/stimuli/animate_005_left.png"" class=""coveredImage test"" style = ""width:100px; height:100px; position:fixed; top:10%;    transform: translate(-50%, -50%);left:44.5%""></img><img src=""media/stimuli/animate_005_left.png"" class=""coveredImage test"" style = ""width:100px; height:100px; position:fixed; top:10%;    transform: translate(-50%, -50%);left:51.5%""></img><img src=""media/stimuli/inanimate_008_left.png"" class=""coveredImage test"" style = ""width:100px; height:100px;position:fixed; top:25%;        transform: translate(-50%, -50%);left:38%""></img><img src=""media/stimuli/animate_005_right.png"" class=""coveredImage test"" style = ""width:100px; height:100px;position:fixed; top:25%;        transform: translate(-50%, -50%);left:58%""></img><img src=""media/f.png""style = ""width:30px x; height:30px;position:fixed; top:43%;    transform: translate(-50%, -50%);left:40%""></img><img src=""media/j.png""style = ""width:30px; height:30px;position:fixed; top:43%;    transform: translate(-50%, -50%);left:60%""></img>","media/stimuli/animate_005_left.png","animate","left","pair","media/stimuli/inanimate_008_left.png","inanimate","left","single","media/stimuli/animate_005_right.png","animate","right","single","animacy_pose","","","",""
"","","","","","html-keyboard-response","20","333649","0.0-20.0","SS1678233207922","63d7b1a77e23b5460ab88069","6406d7f26dd5b7fc1e3377bd","6407ce4dbd9e3fb95f83a09a","1277","610","","2592",""," ","","","","","","","","","","","","","","","","","","","",""
"","","","","","survey-likert","21","341125","0.0-21.0","SS1678233207922","63d7b1a77e23b5460ab88069","6406d7f26dd5b7fc1e3377bd","6407ce4dbd9e3fb95f83a09a","1277","610","","7474","","{""Q0"":2}","[0]","complexity","","","","","","","","","","","","","","","media/stimuli/inanimate_009_left.png","inanimate","single","left"
"","","","","","survey-likert","22","348906","0.0-22.0","SS1678233207922","63d7b1a77e23b5460ab88069","6406d7f26dd5b7fc1e3377bd","6407ce4dbd9e3fb95f83a09a","1277","610","","7771","","{""Q0"":2}","[0]","complexity","","","","","","","","","","","","","","","media/stimuli/animate_006_left.png","animate","single","left"
"","","","","","survey-likert","23","351568","0.0-23.0","SS1678233207922","63d7b1a77e23b5460ab88069","6406d7f26dd5b7fc1e3377bd","6407ce4dbd9e3fb95f83a09a","1277","610","","2659","","{""Q0"":2}","[0]","complexity","","","","","","","","","","","","","","","media/stimuli/animate_010_left.png","animate","single","left"
"","","","","","survey-likert","24","354324","0.0-24.0","SS1678233207922","63d7b1a77e23b5460ab88069","6406d7f26dd5b7fc1e3377bd","6407ce4dbd9e3fb95f83a09a","1277","610","","2754","","{""Q0"":2}","[0]","complexity","","","","","","","","","","","","","","","media/stimuli/inanimate_012_left.png","inanimate","pair","left"
"","","","","","survey-likert","25","360160","0.0-25.0","SS1678233207922","63d7b1a77e23b5460ab88069","6406d7f26dd5b7fc1e3377bd","6407ce4dbd9e3fb95f83a09a","1277","610","","5830","","{""Q0"":2}","[0]","complexity","","","","","","","","","","","","","","","media/stimuli/animate_004_right.png","animate","single","right"
"","","","","","survey-likert","26","362571","0.0-26.0","SS1678233207922","63d7b1a77e23b5460ab88069","6406d7f26dd5b7fc1e3377bd","6407ce4dbd9e3fb95f83a09a","1277","610","","2409","","{""Q0"":2}","[0]","complexity","","","","","","","","","","","","","","","media/stimuli/animate_008_left.png","animate","pair","left"
"","","","","","survey-likert","27","364898","0.0-27.0","SS1678233207922","63d7b1a77e23b5460ab88069","6406d7f26dd5b7fc1e3377bd","6407ce4dbd9e3fb95f83a09a","1277","610","","2325","","{""Q0"":2}","[0]","complexity","","","","","","","","","","","","","","","media/stimuli/inanimate_012_right.png","inanimate","single","right"
"","","","","","survey-likert","28","368939","0.0-28.0","SS1678233207922","63d7b1a77e23b5460ab88069","6406d7f26dd5b7fc1e3377bd","6407ce4dbd9e3fb95f83a09a","1277","610","","4039","","{""Q0"":0}","[0]","complexity","","","","","","","","","","","","","","","media/stimuli/inanimate_001_right.png","inanimate","single","right"
"","","","","","survey-likert","29","371662","0.0-29.0","SS1678233207922","63d7b1a77e23b5460ab88069","6406d7f26dd5b7fc1e3377bd","6407ce4dbd9e3fb95f83a09a","1277","610","","2720","","{""Q0"":2}","[0]","complexity","","","","","","","","","","","","","","","media/stimuli/animate_012_left.png","animate","pair","left"
"","","","","","survey-likert","30","375091","0.0-30.0","SS1678233207922","63d7b1a77e23b5460ab88069","6406d7f26dd5b7fc1e3377bd","6407ce4dbd9e3fb95f83a09a","1277","610","","3428","","{""Q0"":2}","[0]","complexity","","","","","","","","","","","","","","","media/stimuli/inanimate_007_left.png","inanimate","pair","left"
"","","","","","survey-likert","31","380886","0.0-31.0","SS1678233207922","63d7b1a77e23b5460ab88069","6406d7f26dd5b7fc1e3377bd","6407ce4dbd9e3fb95f83a09a","1277","610","","5792","","{""Q0"":4}","[0]","complexity","","","","","","","","","","","","","","","media/stimuli/animate_003_left.png","animate","pair","left"
"","","","","","survey-likert","32","383958","0.0-32.0","SS1678233207922","63d7b1a77e23b5460ab88069","6406d7f26dd5b7fc1e3377bd","6407ce4dbd9e3fb95f83a09a","1277","610","","3067","","{""Q0"":4}","[0]","complexity","","","","","","","","","","","","","","","media/stimuli/animate_012_right.png","animate","pair","right"
"","","","","","html-keyboard-response","33","386405","0.0-33.0","SS1678233207922","63d7b1a77e23b5460ab88069","6406d7f26dd5b7fc1e3377bd","6407ce4dbd9e3fb95f83a09a","1277","610","","2443",""," ","","","","","","","","","","","","","","","","","","","",""
