"success","timeout","failed_images","failed_audio","failed_video","trial_type","trial_index","time_elapsed","internal_node_id","subject","prolific_id","study","session","window_width","window_height","view_history","rt","stimulus_type","response","question_order","rating_type","rating_stimulus","rating_animacy","rating_number","rating_pose","stimulus","target","target_animacy","target_pose","target_number","left","left_animacy","left_pose","left_number","right","right_animacy","right_pose","right_number","comparison_type"
"true","false","[]","[]","[]","preload","0","2928","0.0-0.0","SS1678233210993","62ff8aa20b2d8c0e359e9799","6406d7f26dd5b7fc1e3377bd","6407ce6d1f2d08b7d72c75d4","1440","759","","","","","","","","","","","","","","","","","","","","","","","",""
"","","","","","instructions","1","15812","0.0-1.0","SS1678233210993","62ff8aa20b2d8c0e359e9799","6406d7f26dd5b7fc1e3377bd","6407ce6d1f2d08b7d72c75d4","1440","759","[{""page_index"":0,""viewing_time"":12879}]","12880","","","","","","","","","","","","","","","","","","","","","",""
"","","","","","instructions","2","35023","0.0-2.0","SS1678233210993","62ff8aa20b2d8c0e359e9799","6406d7f26dd5b7fc1e3377bd","6407ce6d1f2d08b7d72c75d4","1440","759","[{""page_index"":0,""viewing_time"":17174}]","17174","instructions","","","","","","","","","","","","","","","","","","","","",""
"","","","","","instructions","3","39771","0.0-3.0","SS1678233210993","62ff8aa20b2d8c0e359e9799","6406d7f26dd5b7fc1e3377bd","6407ce6d1f2d08b7d72c75d4","1440","759","[{""page_index"":0,""viewing_time"":4746}]","4746","instructions","","","","","","","","","","","","","","","","","","","","",""
"","","","","","survey-likert","4","55586","0.0-4.0","SS1678233210993","62ff8aa20b2d8c0e359e9799","6406d7f26dd5b7fc1e3377bd","6407ce6d1f2d08b7d72c75d4","1440","759","","15796","","{""Q0"":3}","[0]","anchoring","","","","","","","","","","","","","","","","","",""
"","","","","","survey-likert","5","64898","0.0-5.0","SS1678233210993","62ff8aa20b2d8c0e359e9799","6406d7f26dd5b7fc1e3377bd","6407ce6d1f2d08b7d72c75d4","1440","759","","9306","","{""Q0"":1}","[0]","anchoring","","","","","","","","","","","","","","","","","",""
"","","","","","instructions","6","69522","0.0-6.0","SS1678233210993","62ff8aa20b2d8c0e359e9799","6406d7f26dd5b7fc1e3377bd","6407ce6d1f2d08b7d72c75d4","1440","759","[{""page_index"":0,""viewing_time"":4619}]","4619","instructions","","","","","","","","","","","","","","","","","","","","",""
"true","","","","","fullscreen","7","72978","0.0-7.0","SS1678233210993","62ff8aa20b2d8c0e359e9799","6406d7f26dd5b7fc1e3377bd","6407ce6d1f2d08b7d72c75d4","1440","759","","","","","","","","","","","","","","","","","","","","","","","",""
"","","","","","survey-likert","8","82504","0.0-8.0","SS1678233210993","62ff8aa20b2d8c0e359e9799","6406d7f26dd5b7fc1e3377bd","6407ce6d1f2d08b7d72c75d4","1440","759","","9522","","{""Q0"":3}","[0]","complexity","media/stimuli/animate_002_right.png","animate","pair","right","","","","","","","","","","","","","",""
"","","","","","survey-likert","9","86123","0.0-9.0","SS1678233210993","62ff8aa20b2d8c0e359e9799","6406d7f26dd5b7fc1e3377bd","6407ce6d1f2d08b7d72c75d4","1440","759","","3612","","{""Q0"":3}","[0]","complexity","media/stimuli/animate_010_right.png","animate","pair","right","","","","","","","","","","","","","",""
"","","","","","survey-likert","10","94142","0.0-10.0","SS1678233210993","62ff8aa20b2d8c0e359e9799","6406d7f26dd5b7fc1e3377bd","6407ce6d1f2d08b7d72c75d4","1440","759","","8014","","{""Q0"":3}","[0]","complexity","media/stimuli/animate_007_left.png","animate","pair","left","","","","","","","","","","","","","",""
"","","","","","survey-likert","11","103309","0.0-11.0","SS1678233210993","62ff8aa20b2d8c0e359e9799","6406d7f26dd5b7fc1e3377bd","6407ce6d1f2d08b7d72c75d4","1440","759","","9161","","{""Q0"":3}","[0]","complexity","media/stimuli/inanimate_006_left.png","inanimate","pair","left","","","","","","","","","","","","","",""
"","","","","","survey-likert","12","109185","0.0-12.0","SS1678233210993","62ff8aa20b2d8c0e359e9799","6406d7f26dd5b7fc1e3377bd","6407ce6d1f2d08b7d72c75d4","1440","759","","5870","","{""Q0"":2}","[0]","complexity","media/stimuli/animate_004_right.png","animate","single","right","","","","","","","","","","","","","",""
"","","","","","survey-likert","13","113029","0.0-13.0","SS1678233210993","62ff8aa20b2d8c0e359e9799","6406d7f26dd5b7fc1e3377bd","6407ce6d1f2d08b7d72c75d4","1440","759","","3831","","{""Q0"":2}","[0]","complexity","media/stimuli/animate_011_left.png","animate","single","left","","","","","","","","","","","","","",""
"","","","","","survey-likert","14","117659","0.0-14.0","SS1678233210993","62ff8aa20b2d8c0e359e9799","6406d7f26dd5b7fc1e3377bd","6407ce6d1f2d08b7d72c75d4","1440","759","","4622","","{""Q0"":1}","[0]","complexity","media/stimuli/inanimate_003_right.png","inanimate","single","right","","","","","","","","","","","","","",""
"","","","","","survey-likert","15","120729","0.0-15.0","SS1678233210993","62ff8aa20b2d8c0e359e9799","6406d7f26dd5b7fc1e3377bd","6407ce6d1f2d08b7d72c75d4","1440","759","","3063","","{""Q0"":1}","[0]","complexity","media/stimuli/inanimate_012_left.png","inanimate","single","left","","","","","","","","","","","","","",""
"","","","","","survey-likert","16","126316","0.0-16.0","SS1678233210993","62ff8aa20b2d8c0e359e9799","6406d7f26dd5b7fc1e3377bd","6407ce6d1f2d08b7d72c75d4","1440","759","","5583","","{""Q0"":2}","[0]","complexity","media/stimuli/inanimate_002_left.png","inanimate","pair","left","","","","","","","","","","","","","",""
"","","","","","survey-likert","17","132439","0.0-17.0","SS1678233210993","62ff8aa20b2d8c0e359e9799","6406d7f26dd5b7fc1e3377bd","6407ce6d1f2d08b7d72c75d4","1440","759","","6116","","{""Q0"":3}","[0]","complexity","media/stimuli/inanimate_007_left.png","inanimate","pair","left","","","","","","","","","","","","","",""
"","","","","","survey-likert","18","139990","0.0-18.0","SS1678233210993","62ff8aa20b2d8c0e359e9799","6406d7f26dd5b7fc1e3377bd","6407ce6d1f2d08b7d72c75d4","1440","759","","7545","","{""Q0"":2}","[0]","complexity","media/stimuli/animate_009_right.png","animate","single","right","","","","","","","","","","","","","",""
"","","","","","survey-likert","19","144604","0.0-19.0","SS1678233210993","62ff8aa20b2d8c0e359e9799","6406d7f26dd5b7fc1e3377bd","6407ce6d1f2d08b7d72c75d4","1440","759","","4606","","{""Q0"":2}","[0]","complexity","media/stimuli/inanimate_008_right.png","inanimate","single","right","","","","","","","","","","","","","",""
"","","","","","html-keyboard-response","20","148103","0.0-20.0","SS1678233210993","62ff8aa20b2d8c0e359e9799","6406d7f26dd5b7fc1e3377bd","6407ce6d1f2d08b7d72c75d4","1440","759","","3492",""," ","","","","","","","","","","","","","","","","","","","",""
"","","","","","html-keyboard-response","21","155708","0.0-21.0","SS1678233210993","62ff8aa20b2d8c0e359e9799","6406d7f26dd5b7fc1e3377bd","6407ce6d1f2d08b7d72c75d4","1440","759","","7602","","f","","","","","","","<img src=""media/stimuli/inanimate_007_right.png"" class=""coveredImage test"" style = ""width:100px; height:100px; position:fixed; top:10%;    transform: translate(-50%, -50%);left:48%""></img><img src=""media/stimuli/inanimate_007_right.png"" class=""coveredImage test"" style = ""width:100px; height:100px;position:fixed; top:25%;        transform: translate(-50%, -50%);left:34.5%""></img><img src=""media/stimuli/inanimate_007_right.png"" class=""coveredImage test"" style = ""width:100px; height:100px;position:fixed; top:25%;        transform: translate(-50%, -50%);left:41.5%""></img><img src=""media/stimuli/inanimate_004_right.png"" class=""coveredImage test"" style = ""width:100px; height:100px;position:fixed; top:25%;        transform: translate(-50%, -50%);left:58%""></img><img src=""media/f.png""style = ""width:30px x; height:30px;position:fixed; top:43%;    transform: translate(-50%, -50%);left:40%""></img><img src=""media/j.png""style = ""width:30px; height:30px;position:fixed; top:43%;    transform: translate(-50%, -50%);left:60%""></img>","media/stimuli/inanimate_007_right.png","inanimate","right","single","media/stimuli/inanimate_007_right.png","inanimate","right","pair","media/stimuli/inanimate_004_right.png","inanimate","right","single","number_identity"
"","","","","","html-keyboard-response","22","158002","0.0-22.0","SS1678233210993","62ff8aa20b2d8c0e359e9799","6406d7f26dd5b7fc1e3377bd","6407ce6d1f2d08b7d72c75d4","1440","759","","2290","","f","","","","","","","<img src=""media/stimuli/animate_006_left.png"" class=""coveredImage test"" style = ""width:100px; height:100px; position:fixed; top:10%;    transform: translate(-50%, -50%);left:48%""></img><img src=""media/stimuli/animate_006_right.png"" class=""coveredImage test"" style = ""width:100px; height:100px;position:fixed; top:25%;        transform: translate(-50%, -50%);left:38%""></img><img src=""media/stimuli/animate_012_left.png"" class=""coveredImage test"" style = ""width:100px; height:100px;position:fixed; top:25%;        transform: translate(-50%, -50%);left:58%""></img><img src=""media/f.png""style = ""width:30px x; height:30px;position:fixed; top:43%;    transform: translate(-50%, -50%);left:40%""></img><img src=""media/j.png""style = ""width:30px; height:30px;position:fixed; top:43%;    transform: translate(-50%, -50%);left:60%""></img>","media/stimuli/animate_006_left.png","animate","left","single","media/stimuli/animate_006_right.png","animate","right","single","media/stimuli/animate_012_left.png","animate","left","single","pose_identity"
"","","","","","html-keyboard-response","23","159163","0.0-23.0","SS1678233210993","62ff8aa20b2d8c0e359e9799","6406d7f26dd5b7fc1e3377bd","6407ce6d1f2d08b7d72c75d4","1440","759","","1159","","f","","","","","","","<img src=""media/stimuli/animate_007_left.png"" class=""coveredImage test"" style = ""width:100px; height:100px; position:fixed; top:10%;    transform: translate(-50%, -50%);left:44.5%""></img><img src=""media/stimuli/animate_007_left.png"" class=""coveredImage test"" style = ""width:100px; height:100px; position:fixed; top:10%;    transform: translate(-50%, -50%);left:51.5%""></img><img src=""media/stimuli/animate_007_left.png"" class=""coveredImage test"" style = ""width:100px; height:100px;position:fixed; top:25%;        transform: translate(-50%, -50%);left:38%""></img><img src=""media/stimuli/animate_012_left.png"" class=""coveredImage test"" style = ""width:100px; height:100px;position:fixed; top:25%;        transform: translate(-50%, -50%);left:54.5%""></img><img src=""media/stimuli/animate_012_left.png"" class=""coveredImage test"" style = ""width:100px; height:100px;position:fixed; top:25%;        transform: translate(-50%, -50%);left:61.5%""></img><img src=""media/f.png""style = ""width:30px x; height:30px;position:fixed; top:43%;    transform: translate(-50%, -50%);left:40%""></img><img src=""media/j.png""style = ""width:30px; height:30px;position:fixed; top:43%;    transform: translate(-50%, -50%);left:60%""></img>","media/stimuli/animate_007_left.png","animate","left","pair","media/stimuli/animate_007_left.png","animate","left","single","media/stimuli/animate_012_left.png","animate","left","pair","number_identity"
"","","","","","html-keyboard-response","24","161887","0.0-24.0","SS1678233210993","62ff8aa20b2d8c0e359e9799","6406d7f26dd5b7fc1e3377bd","6407ce6d1f2d08b7d72c75d4","1440","759","","2720","","j","","","","","","","<img src=""media/stimuli/animate_005_left.png"" class=""coveredImage test"" style = ""width:100px; height:100px; position:fixed; top:10%;    transform: translate(-50%, -50%);left:44.5%""></img><img src=""media/stimuli/animate_005_left.png"" class=""coveredImage test"" style = ""width:100px; height:100px; position:fixed; top:10%;    transform: translate(-50%, -50%);left:51.5%""></img><img src=""media/stimuli/inanimate_009_left.png"" class=""coveredImage test"" style = ""width:100px; height:100px;position:fixed; top:25%;        transform: translate(-50%, -50%);left:34.5%""></img><img src=""media/stimuli/inanimate_009_left.png"" class=""coveredImage test"" style = ""width:100px; height:100px;position:fixed; top:25%;        transform: translate(-50%, -50%);left:41.5%""></img><img src=""media/stimuli/animate_005_left.png"" class=""coveredImage test"" style = ""width:100px; height:100px;position:fixed; top:25%;        transform: translate(-50%, -50%);left:58%""></img><img src=""media/f.png""style = ""width:30px x; height:30px;position:fixed; top:43%;    transform: translate(-50%, -50%);left:40%""></img><img src=""media/j.png""style = ""width:30px; height:30px;position:fixed; top:43%;    transform: translate(-50%, -50%);left:60%""></img>","media/stimuli/animate_005_left.png","animate","left","pair","media/stimuli/inanimate_009_left.png","inanimate","left","pair","media/stimuli/animate_005_left.png","animate","left","single","animacy_number"
"","","","","","html-keyboard-response","25","162993","0.0-25.0","SS1678233210993","62ff8aa20b2d8c0e359e9799","6406d7f26dd5b7fc1e3377bd","6407ce6d1f2d08b7d72c75d4","1440","759","","1102","","f","","","","","","","<img src=""media/stimuli/inanimate_012_left.png"" class=""coveredImage test"" style = ""width:100px; height:100px; position:fixed; top:10%;    transform: translate(-50%, -50%);left:48%""></img><img src=""media/stimuli/inanimate_012_left.png"" class=""coveredImage test"" style = ""width:100px; height:100px;position:fixed; top:25%;        transform: translate(-50%, -50%);left:34.5%""></img><img src=""media/stimuli/inanimate_012_left.png"" class=""coveredImage test"" style = ""width:100px; height:100px;position:fixed; top:25%;        transform: translate(-50%, -50%);left:41.5%""></img><img src=""media/stimuli/animate_005_left.png"" class=""coveredImage test"" style = ""width:100px; height:100px;position:fixed; top:25%;        transform: translate(-50%, -50%);left:58%""></img><img src=""media/f.png""style = ""width:30px x; height:30px;position:fixed; top:43%;    transform: translate(-50%, -50%);left:40%""></img><img src=""media/j.png""style = ""width:30px; height:30px;position:fixed; top:43%;    transform: translate(-50%, -50%);left:60%""></img>","media/stimuli/inanimate_012_left.png","inanimate","left","single","media/stimuli/inanimate_012_left.png","inanimate","left","pair","media/stimuli/animate_005_left.png","animate","left","single","number_animacy"
"","","","","","html-keyboard-response","26","165386","0.0-26.0","SS1678233210993","62ff8aa20b2d8c0e359e9799","6406d7f26dd5b7fc1e3377bd","6407ce6d1f2d08b7d72c75d4","1440","759","","2389","","j","","","","","","","<img src=""media/stimuli/animate_012_left.png"" class=""coveredImage test"" style = ""width:100px; height:100px; position:fixed; top:10%;    transform: translate(-50%, -50%);left:48%""></img><img src=""media/stimuli/animate_002_left.png"" class=""coveredImage test"" style = ""width:100px; height:100px;position:fixed; top:25%;        transform: translate(-50%, -50%);left:38%""></img><img src=""media/stimuli/animate_012_left.png"" class=""coveredImage test"" style = ""width:100px; height:100px;position:fixed; top:25%;        transform: translate(-50%, -50%);left:54.5%""></img><img src=""media/stimuli/animate_012_left.png"" class=""coveredImage test"" style = ""width:100px; height:100px;position:fixed; top:25%;        transform: translate(-50%, -50%);left:61.5%""></img><img src=""media/f.png""style = ""width:30px x; height:30px;position:fixed; top:43%;    transform: translate(-50%, -50%);left:40%""></img><img src=""media/j.png""style = ""width:30px; height:30px;position:fixed; top:43%;    transform: translate(-50%, -50%);left:60%""></img>","media/stimuli/animate_012_left.png","animate","left","single","media/stimuli/animate_002_left.png","animate","left","single","media/stimuli/animate_012_left.png","animate","left","pair","identity_number"
"","","","","","html-keyboard-response","27","166372","0.0-27.0","SS1678233210993","62ff8aa20b2d8c0e359e9799","6406d7f26dd5b7fc1e3377bd","6407ce6d1f2d08b7d72c75d4","1440","759","","983","","f","","","","","","","<img src=""media/stimuli/inanimate_004_left.png"" class=""coveredImage test"" style = ""width:100px; height:100px; position:fixed; top:10%;    transform: translate(-50%, -50%);left:48%""></img><img src=""media/stimuli/inanimate_004_right.png"" class=""coveredImage test"" style = ""width:100px; height:100px;position:fixed; top:25%;        transform: translate(-50%, -50%);left:38%""></img><img src=""media/stimuli/inanimate_010_left.png"" class=""coveredImage test"" style = ""width:100px; height:100px;position:fixed; top:25%;        transform: translate(-50%, -50%);left:58%""></img><img src=""media/f.png""style = ""width:30px x; height:30px;position:fixed; top:43%;    transform: translate(-50%, -50%);left:40%""></img><img src=""media/j.png""style = ""width:30px; height:30px;position:fixed; top:43%;    transform: translate(-50%, -50%);left:60%""></img>","media/stimuli/inanimate_004_left.png","inanimate","left","single","media/stimuli/inanimate_004_right.png","inanimate","right","single","media/stimuli/inanimate_010_left.png","inanimate","left","single","pose_identity"
"","","","","","html-keyboard-response","28","167586","0.0-28.0","SS1678233210993","62ff8aa20b2d8c0e359e9799","6406d7f26dd5b7fc1e3377bd","6407ce6d1f2d08b7d72c75d4","1440","759","","1211","","f","","","","","","","<img src=""media/stimuli/animate_009_left.png"" class=""coveredImage test"" style = ""width:100px; height:100px; position:fixed; top:10%;    transform: translate(-50%, -50%);left:44.5%""></img><img src=""media/stimuli/animate_009_left.png"" class=""coveredImage test"" style = ""width:100px; height:100px; position:fixed; top:10%;    transform: translate(-50%, -50%);left:51.5%""></img><img src=""media/stimuli/animate_009_left.png"" class=""coveredImage test"" style = ""width:100px; height:100px;position:fixed; top:25%;        transform: translate(-50%, -50%);left:38%""></img><img src=""media/stimuli/animate_007_left.png"" class=""coveredImage test"" style = ""width:100px; height:100px;position:fixed; top:25%;        transform: translate(-50%, -50%);left:54.5%""></img><img src=""media/stimuli/animate_007_left.png"" class=""coveredImage test"" style = ""width:100px; height:100px;position:fixed; top:25%;        transform: translate(-50%, -50%);left:61.5%""></img><img src=""media/f.png""style = ""width:30px x; height:30px;position:fixed; top:43%;    transform: translate(-50%, -50%);left:40%""></img><img src=""media/j.png""style = ""width:30px; height:30px;position:fixed; top:43%;    transform: translate(-50%, -50%);left:60%""></img>","media/stimuli/animate_009_left.png","animate","left","pair","media/stimuli/animate_009_left.png","animate","left","single","media/stimuli/animate_007_left.png","animate","left","pair","number_identity"
"","","","","","html-keyboard-response","29","169579","0.0-29.0","SS1678233210993","62ff8aa20b2d8c0e359e9799","6406d7f26dd5b7fc1e3377bd","6407ce6d1f2d08b7d72c75d4","1440","759","","1989","","j","","","","","","","<img src=""media/stimuli/animate_002_right.png"" class=""coveredImage test"" style = ""width:100px; height:100px; position:fixed; top:10%;    transform: translate(-50%, -50%);left:48%""></img><img src=""media/stimuli/animate_002_right.png"" class=""coveredImage test"" style = ""width:100px; height:100px;position:fixed; top:25%;        transform: translate(-50%, -50%);left:34.5%""></img><img src=""media/stimuli/animate_002_right.png"" class=""coveredImage test"" style = ""width:100px; height:100px;position:fixed; top:25%;        transform: translate(-50%, -50%);left:41.5%""></img><img src=""media/stimuli/animate_002_left.png"" class=""coveredImage test"" style = ""width:100px; height:100px;position:fixed; top:25%;        transform: translate(-50%, -50%);left:58%""></img><img src=""media/f.png""style = ""width:30px x; height:30px;position:fixed; top:43%;    transform: translate(-50%, -50%);left:40%""></img><img src=""media/j.png""style = ""width:30px; height:30px;position:fixed; top:43%;    transform: translate(-50%, -50%);left:60%""></img>","media/stimuli/animate_002_right.png","animate","right","single","media/stimuli/animate_002_right.png","animate","right","pair","media/stimuli/animate_002_left.png","animate","left","single","number_pose"
"","","","","","html-keyboard-response","30","170883","0.0-30.0","SS1678233210993","62ff8aa20b2d8c0e359e9799","6406d7f26dd5b7fc1e3377bd","6407ce6d1f2d08b7d72c75d4","1440","759","","1302","","f","","","","","","","<img src=""media/stimuli/inanimate_004_left.png"" class=""coveredImage test"" style = ""width:100px; height:100px; position:fixed; top:10%;    transform: translate(-50%, -50%);left:44.5%""></img><img src=""media/stimuli/inanimate_004_left.png"" class=""coveredImage test"" style = ""width:100px; height:100px; position:fixed; top:10%;    transform: translate(-50%, -50%);left:51.5%""></img><img src=""media/stimuli/inanimate_004_left.png"" class=""coveredImage test"" style = ""width:100px; height:100px;position:fixed; top:25%;        transform: translate(-50%, -50%);left:38%""></img><img src=""media/stimuli/animate_012_left.png"" class=""coveredImage test"" style = ""width:100px; height:100px;position:fixed; top:25%;        transform: translate(-50%, -50%);left:54.5%""></img><img src=""media/stimuli/animate_012_left.png"" class=""coveredImage test"" style = ""width:100px; height:100px;position:fixed; top:25%;        transform: translate(-50%, -50%);left:61.5%""></img><img src=""media/f.png""style = ""width:30px x; height:30px;position:fixed; top:43%;    transform: translate(-50%, -50%);left:40%""></img><img src=""media/j.png""style = ""width:30px; height:30px;position:fixed; top:43%;    transform: translate(-50%, -50%);left:60%""></img>","media/stimuli/inanimate_004_left.png","inanimate","left","pair","media/stimuli/inanimate_004_left.png","inanimate","left","single","media/stimuli/animate_012_left.png","animate","left","pair","number_animacy"
"","","","","","html-keyboard-response","31","172486","0.0-31.0","SS1678233210993","62ff8aa20b2d8c0e359e9799","6406d7f26dd5b7fc1e3377bd","6407ce6d1f2d08b7d72c75d4","1440","759","","1600","","f","","","","","","","<img src=""media/stimuli/inanimate_006_left.png"" class=""coveredImage test"" style = ""width:100px; height:100px; position:fixed; top:10%;    transform: translate(-50%, -50%);left:48%""></img><img src=""media/stimuli/inanimate_006_right.png"" class=""coveredImage test"" style = ""width:100px; height:100px;position:fixed; top:25%;        transform: translate(-50%, -50%);left:38%""></img><img src=""media/stimuli/inanimate_006_left.png"" class=""coveredImage test"" style = ""width:100px; height:100px;position:fixed; top:25%;        transform: translate(-50%, -50%);left:54.5%""></img><img src=""media/stimuli/inanimate_006_left.png"" class=""coveredImage test"" style = ""width:100px; height:100px;position:fixed; top:25%;        transform: translate(-50%, -50%);left:61.5%""></img><img src=""media/f.png""style = ""width:30px x; height:30px;position:fixed; top:43%;    transform: translate(-50%, -50%);left:40%""></img><img src=""media/j.png""style = ""width:30px; height:30px;position:fixed; top:43%;    transform: translate(-50%, -50%);left:60%""></img>","media/stimuli/inanimate_006_left.png","inanimate","left","single","media/stimuli/inanimate_006_right.png","inanimate","right","single","media/stimuli/inanimate_006_left.png","inanimate","left","pair","pose_number"
"","","","","","html-keyboard-response","32","173727","0.0-32.0","SS1678233210993","62ff8aa20b2d8c0e359e9799","6406d7f26dd5b7fc1e3377bd","6407ce6d1f2d08b7d72c75d4","1440","759","","1237","","f","","","","","","","<img src=""media/stimuli/animate_010_right.png"" class=""coveredImage test"" style = ""width:100px; height:100px; position:fixed; top:10%;    transform: translate(-50%, -50%);left:44.5%""></img><img src=""media/stimuli/animate_010_right.png"" class=""coveredImage test"" style = ""width:100px; height:100px; position:fixed; top:10%;    transform: translate(-50%, -50%);left:51.5%""></img><img src=""media/stimuli/animate_010_left.png"" class=""coveredImage test"" style = ""width:100px; height:100px;position:fixed; top:25%;        transform: translate(-50%, -50%);left:34.5%""></img><img src=""media/stimuli/animate_010_left.png"" class=""coveredImage test"" style = ""width:100px; height:100px;position:fixed; top:25%;        transform: translate(-50%, -50%);left:41.5%""></img><img src=""media/stimuli/animate_010_right.png"" class=""coveredImage test"" style = ""width:100px; height:100px;position:fixed; top:25%;        transform: translate(-50%, -50%);left:58%""></img><img src=""media/f.png""style = ""width:30px x; height:30px;position:fixed; top:43%;    transform: translate(-50%, -50%);left:40%""></img><img src=""media/j.png""style = ""width:30px; height:30px;position:fixed; top:43%;    transform: translate(-50%, -50%);left:60%""></img>","media/stimuli/animate_010_right.png","animate","right","pair","media/stimuli/animate_010_left.png","animate","left","pair","media/stimuli/animate_010_right.png","animate","right","single","pose_number"
"","","","","","html-keyboard-response","33","175733","0.0-33.0","SS1678233210993","62ff8aa20b2d8c0e359e9799","6406d7f26dd5b7fc1e3377bd","6407ce6d1f2d08b7d72c75d4","1440","759","","2004",""," ","","","","","","","","","","","","","","","","","","","",""
"","","","","","html-keyboard-response","34","179857","0.0-34.0","SS1678233210993","62ff8aa20b2d8c0e359e9799","6406d7f26dd5b7fc1e3377bd","6407ce6d1f2d08b7d72c75d4","1440","759","","4120","","f","","","","","","","<img src=""media/stimuli/inanimate_012_right.png"" class=""coveredImage test"" style = ""width:100px; height:100px; position:fixed; top:10%;    transform: translate(-50%, -50%);left:48%""></img><img src=""media/stimuli/inanimate_012_right.png"" class=""coveredImage test"" style = ""width:100px; height:100px;position:fixed; top:25%;        transform: translate(-50%, -50%);left:34.5%""></img><img src=""media/stimuli/inanimate_012_right.png"" class=""coveredImage test"" style = ""width:100px; height:100px;position:fixed; top:25%;        transform: translate(-50%, -50%);left:41.5%""></img><img src=""media/stimuli/inanimate_006_right.png"" class=""coveredImage test"" style = ""width:100px; height:100px;position:fixed; top:25%;        transform: translate(-50%, -50%);left:58%""></img><img src=""media/f.png""style = ""width:30px x; height:30px;position:fixed; top:43%;    transform: translate(-50%, -50%);left:40%""></img><img src=""media/j.png""style = ""width:30px; height:30px;position:fixed; top:43%;    transform: translate(-50%, -50%);left:60%""></img>","media/stimuli/inanimate_012_right.png","inanimate","right","single","media/stimuli/inanimate_012_right.png","inanimate","right","pair","media/stimuli/inanimate_006_right.png","inanimate","right","single","number_identity"
"","","","","","html-keyboard-response","35","181176","0.0-35.0","SS1678233210993","62ff8aa20b2d8c0e359e9799","6406d7f26dd5b7fc1e3377bd","6407ce6d1f2d08b7d72c75d4","1440","759","","1315","","f","","","","","","","<img src=""media/stimuli/inanimate_009_left.png"" class=""coveredImage test"" style = ""width:100px; height:100px; position:fixed; top:10%;    transform: translate(-50%, -50%);left:44.5%""></img><img src=""media/stimuli/inanimate_009_left.png"" class=""coveredImage test"" style = ""width:100px; height:100px; position:fixed; top:10%;    transform: translate(-50%, -50%);left:51.5%""></img><img src=""media/stimuli/inanimate_009_right.png"" class=""coveredImage test"" style = ""width:100px; height:100px;position:fixed; top:25%;        transform: translate(-50%, -50%);left:34.5%""></img><img src=""media/stimuli/inanimate_009_right.png"" class=""coveredImage test"" style = ""width:100px; height:100px;position:fixed; top:25%;        transform: translate(-50%, -50%);left:41.5%""></img><img src=""media/stimuli/animate_005_left.png"" class=""coveredImage test"" style = ""width:100px; height:100px;position:fixed; top:25%;        transform: translate(-50%, -50%);left:54.5%""></img><img src=""media/stimuli/animate_005_left.png"" class=""coveredImage test"" style = ""width:100px; height:100px;position:fixed; top:25%;        transform: translate(-50%, -50%);left:61.5%""></img><img src=""media/f.png""style = ""width:30px x; height:30px;position:fixed; top:43%;    transform: translate(-50%, -50%);left:40%""></img><img src=""media/j.png""style = ""width:30px; height:30px;position:fixed; top:43%;    transform: translate(-50%, -50%);left:60%""></img>","media/stimuli/inanimate_009_left.png","inanimate","left","pair","media/stimuli/inanimate_009_right.png","inanimate","right","pair","media/stimuli/animate_005_left.png","animate","left","pair","pose_animacy"
"","","","","","html-keyboard-response","36","187885","0.0-36.0","SS1678233210993","62ff8aa20b2d8c0e359e9799","6406d7f26dd5b7fc1e3377bd","6407ce6d1f2d08b7d72c75d4","1440","759","","6704","","f","","","","","","","<img src=""media/stimuli/inanimate_006_right.png"" class=""coveredImage test"" style = ""width:100px; height:100px; position:fixed; top:10%;    transform: translate(-50%, -50%);left:48%""></img><img src=""media/stimuli/inanimate_003_right.png"" class=""coveredImage test"" style = ""width:100px; height:100px;position:fixed; top:25%;        transform: translate(-50%, -50%);left:38%""></img><img src=""media/stimuli/animate_002_right.png"" class=""coveredImage test"" style = ""width:100px; height:100px;position:fixed; top:25%;        transform: translate(-50%, -50%);left:58%""></img><img src=""media/f.png""style = ""width:30px x; height:30px;position:fixed; top:43%;    transform: translate(-50%, -50%);left:40%""></img><img src=""media/j.png""style = ""width:30px; height:30px;position:fixed; top:43%;    transform: translate(-50%, -50%);left:60%""></img>","media/stimuli/inanimate_006_right.png","inanimate","right","single","media/stimuli/inanimate_003_right.png","inanimate","right","single","media/stimuli/animate_002_right.png","animate","right","single","identity_animacy"
"","","","","","html-keyboard-response","37","189891","0.0-37.0","SS1678233210993","62ff8aa20b2d8c0e359e9799","6406d7f26dd5b7fc1e3377bd","6407ce6d1f2d08b7d72c75d4","1440","759","","2002","","f","","","","","","","<img src=""media/stimuli/animate_009_right.png"" class=""coveredImage test"" style = ""width:100px; height:100px; position:fixed; top:10%;    transform: translate(-50%, -50%);left:44.5%""></img><img src=""media/stimuli/animate_009_right.png"" class=""coveredImage test"" style = ""width:100px; height:100px; position:fixed; top:10%;    transform: translate(-50%, -50%);left:51.5%""></img><img src=""media/stimuli/animate_011_right.png"" class=""coveredImage test"" style = ""width:100px; height:100px;position:fixed; top:25%;        transform: translate(-50%, -50%);left:34.5%""></img><img src=""media/stimuli/animate_011_right.png"" class=""coveredImage test"" style = ""width:100px; height:100px;position:fixed; top:25%;        transform: translate(-50%, -50%);left:41.5%""></img><img src=""media/stimuli/inanimate_004_right.png"" class=""coveredImage test"" style = ""width:100px; height:100px;position:fixed; top:25%;        transform: translate(-50%, -50%);left:54.5%""></img><img src=""media/stimuli/inanimate_004_right.png"" class=""coveredImage test"" style = ""width:100px; height:100px;position:fixed; top:25%;        transform: translate(-50%, -50%);left:61.5%""></img><img src=""media/f.png""style = ""width:30px x; height:30px;position:fixed; top:43%;    transform: translate(-50%, -50%);left:40%""></img><img src=""media/j.png""style = ""width:30px; height:30px;position:fixed; top:43%;    transform: translate(-50%, -50%);left:60%""></img>","media/stimuli/animate_009_right.png","animate","right","pair","media/stimuli/animate_011_right.png","animate","right","pair","media/stimuli/inanimate_004_right.png","inanimate","right","pair","identity_animacy"
"","","","","","html-keyboard-response","38","191236","0.0-38.0","SS1678233210993","62ff8aa20b2d8c0e359e9799","6406d7f26dd5b7fc1e3377bd","6407ce6d1f2d08b7d72c75d4","1440","759","","1342","","j","","","","","","","<img src=""media/stimuli/animate_005_left.png"" class=""coveredImage test"" style = ""width:100px; height:100px; position:fixed; top:10%;    transform: translate(-50%, -50%);left:48%""></img><img src=""media/stimuli/animate_004_left.png"" class=""coveredImage test"" style = ""width:100px; height:100px;position:fixed; top:25%;        transform: translate(-50%, -50%);left:38%""></img><img src=""media/stimuli/animate_005_right.png"" class=""coveredImage test"" style = ""width:100px; height:100px;position:fixed; top:25%;        transform: translate(-50%, -50%);left:58%""></img><img src=""media/f.png""style = ""width:30px x; height:30px;position:fixed; top:43%;    transform: translate(-50%, -50%);left:40%""></img><img src=""media/j.png""style = ""width:30px; height:30px;position:fixed; top:43%;    transform: translate(-50%, -50%);left:60%""></img>","media/stimuli/animate_005_left.png","animate","left","single","media/stimuli/animate_004_left.png","animate","left","single","media/stimuli/animate_005_right.png","animate","right","single","identity_pose"
"","","","","","html-keyboard-response","39","192196","0.0-39.0","SS1678233210993","62ff8aa20b2d8c0e359e9799","6406d7f26dd5b7fc1e3377bd","6407ce6d1f2d08b7d72c75d4","1440","759","","956","","f","","","","","","","<img src=""media/stimuli/inanimate_006_right.png"" class=""coveredImage test"" style = ""width:100px; height:100px; position:fixed; top:10%;    transform: translate(-50%, -50%);left:44.5%""></img><img src=""media/stimuli/inanimate_006_right.png"" class=""coveredImage test"" style = ""width:100px; height:100px; position:fixed; top:10%;    transform: translate(-50%, -50%);left:51.5%""></img><img src=""media/stimuli/inanimate_006_left.png"" class=""coveredImage test"" style = ""width:100px; height:100px;position:fixed; top:25%;        transform: translate(-50%, -50%);left:34.5%""></img><img src=""media/stimuli/inanimate_006_left.png"" class=""coveredImage test"" style = ""width:100px; height:100px;position:fixed; top:25%;        transform: translate(-50%, -50%);left:41.5%""></img><img src=""media/stimuli/animate_003_right.png"" class=""coveredImage test"" style = ""width:100px; height:100px;position:fixed; top:25%;        transform: translate(-50%, -50%);left:54.5%""></img><img src=""media/stimuli/animate_003_right.png"" class=""coveredImage test"" style = ""width:100px; height:100px;position:fixed; top:25%;        transform: translate(-50%, -50%);left:61.5%""></img><img src=""media/f.png""style = ""width:30px x; height:30px;position:fixed; top:43%;    transform: translate(-50%, -50%);left:40%""></img><img src=""media/j.png""style = ""width:30px; height:30px;position:fixed; top:43%;    transform: translate(-50%, -50%);left:60%""></img>","media/stimuli/inanimate_006_right.png","inanimate","right","pair","media/stimuli/inanimate_006_left.png","inanimate","left","pair","media/stimuli/animate_003_right.png","animate","right","pair","pose_animacy"
"","","","","","html-keyboard-response","40","193563","0.0-40.0","SS1678233210993","62ff8aa20b2d8c0e359e9799","6406d7f26dd5b7fc1e3377bd","6407ce6d1f2d08b7d72c75d4","1440","759","","1362","","j","","","","","","","<img src=""media/stimuli/animate_008_right.png"" class=""coveredImage test"" style = ""width:100px; height:100px; position:fixed; top:10%;    transform: translate(-50%, -50%);left:48%""></img><img src=""media/stimuli/animate_002_right.png"" class=""coveredImage test"" style = ""width:100px; height:100px;position:fixed; top:25%;        transform: translate(-50%, -50%);left:38%""></img><img src=""media/stimuli/animate_008_right.png"" class=""coveredImage test"" style = ""width:100px; height:100px;position:fixed; top:25%;        transform: translate(-50%, -50%);left:54.5%""></img><img src=""media/stimuli/animate_008_right.png"" class=""coveredImage test"" style = ""width:100px; height:100px;position:fixed; top:25%;        transform: translate(-50%, -50%);left:61.5%""></img><img src=""media/f.png""style = ""width:30px x; height:30px;position:fixed; top:43%;    transform: translate(-50%, -50%);left:40%""></img><img src=""media/j.png""style = ""width:30px; height:30px;position:fixed; top:43%;    transform: translate(-50%, -50%);left:60%""></img>","media/stimuli/animate_008_right.png","animate","right","single","media/stimuli/animate_002_right.png","animate","right","single","media/stimuli/animate_008_right.png","animate","right","pair","identity_number"
"","","","","","html-keyboard-response","41","196066","0.0-41.0","SS1678233210993","62ff8aa20b2d8c0e359e9799","6406d7f26dd5b7fc1e3377bd","6407ce6d1f2d08b7d72c75d4","1440","759","","2500","","f","","","","","","","<img src=""media/stimuli/animate_011_left.png"" class=""coveredImage test"" style = ""width:100px; height:100px; position:fixed; top:10%;    transform: translate(-50%, -50%);left:48%""></img><img src=""media/stimuli/animate_011_right.png"" class=""coveredImage test"" style = ""width:100px; height:100px;position:fixed; top:25%;        transform: translate(-50%, -50%);left:38%""></img><img src=""media/stimuli/animate_012_left.png"" class=""coveredImage test"" style = ""width:100px; height:100px;position:fixed; top:25%;        transform: translate(-50%, -50%);left:58%""></img><img src=""media/f.png""style = ""width:30px x; height:30px;position:fixed; top:43%;    transform: translate(-50%, -50%);left:40%""></img><img src=""media/j.png""style = ""width:30px; height:30px;position:fixed; top:43%;    transform: translate(-50%, -50%);left:60%""></img>","media/stimuli/animate_011_left.png","animate","left","single","media/stimuli/animate_011_right.png","animate","right","single","media/stimuli/animate_012_left.png","animate","left","single","pose_identity"
"","","","","","html-keyboard-response","42","197690","0.0-42.0","SS1678233210993","62ff8aa20b2d8c0e359e9799","6406d7f26dd5b7fc1e3377bd","6407ce6d1f2d08b7d72c75d4","1440","759","","1621","","j","","","","","","","<img src=""media/stimuli/animate_007_left.png"" class=""coveredImage test"" style = ""width:100px; height:100px; position:fixed; top:10%;    transform: translate(-50%, -50%);left:44.5%""></img><img src=""media/stimuli/animate_007_left.png"" class=""coveredImage test"" style = ""width:100px; height:100px; position:fixed; top:10%;    transform: translate(-50%, -50%);left:51.5%""></img><img src=""media/stimuli/animate_011_left.png"" class=""coveredImage test"" style = ""width:100px; height:100px;position:fixed; top:25%;        transform: translate(-50%, -50%);left:34.5%""></img><img src=""media/stimuli/animate_011_left.png"" class=""coveredImage test"" style = ""width:100px; height:100px;position:fixed; top:25%;        transform: translate(-50%, -50%);left:41.5%""></img><img src=""media/stimuli/animate_007_right.png"" class=""coveredImage test"" style = ""width:100px; height:100px;position:fixed; top:25%;        transform: translate(-50%, -50%);left:54.5%""></img><img src=""media/stimuli/animate_007_right.png"" class=""coveredImage test"" style = ""width:100px; height:100px;position:fixed; top:25%;        transform: translate(-50%, -50%);left:61.5%""></img><img src=""media/f.png""style = ""width:30px x; height:30px;position:fixed; top:43%;    transform: translate(-50%, -50%);left:40%""></img><img src=""media/j.png""style = ""width:30px; height:30px;position:fixed; top:43%;    transform: translate(-50%, -50%);left:60%""></img>","media/stimuli/animate_007_left.png","animate","left","pair","media/stimuli/animate_011_left.png","animate","left","pair","media/stimuli/animate_007_right.png","animate","right","pair","identity_pose"
"","","","","","html-keyboard-response","43","200514","0.0-43.0","SS1678233210993","62ff8aa20b2d8c0e359e9799","6406d7f26dd5b7fc1e3377bd","6407ce6d1f2d08b7d72c75d4","1440","759","","2820","","f","","","","","","","<img src=""media/stimuli/inanimate_012_right.png"" class=""coveredImage test"" style = ""width:100px; height:100px; position:fixed; top:10%;    transform: translate(-50%, -50%);left:48%""></img><img src=""media/stimuli/inanimate_012_left.png"" class=""coveredImage test"" style = ""width:100px; height:100px;position:fixed; top:25%;        transform: translate(-50%, -50%);left:38%""></img><img src=""media/stimuli/inanimate_012_right.png"" class=""coveredImage test"" style = ""width:100px; height:100px;position:fixed; top:25%;        transform: translate(-50%, -50%);left:54.5%""></img><img src=""media/stimuli/inanimate_012_right.png"" class=""coveredImage test"" style = ""width:100px; height:100px;position:fixed; top:25%;        transform: translate(-50%, -50%);left:61.5%""></img><img src=""media/f.png""style = ""width:30px x; height:30px;position:fixed; top:43%;    transform: translate(-50%, -50%);left:40%""></img><img src=""media/j.png""style = ""width:30px; height:30px;position:fixed; top:43%;    transform: translate(-50%, -50%);left:60%""></img>","media/stimuli/inanimate_012_right.png","inanimate","right","single","media/stimuli/inanimate_012_left.png","inanimate","left","single","media/stimuli/inanimate_012_right.png","inanimate","right","pair","pose_number"
"","","","","","html-keyboard-response","44","203102","0.0-44.0","SS1678233210993","62ff8aa20b2d8c0e359e9799","6406d7f26dd5b7fc1e3377bd","6407ce6d1f2d08b7d72c75d4","1440","759","","2584","","j","","","","","","","<img src=""media/stimuli/inanimate_003_left.png"" class=""coveredImage test"" style = ""width:100px; height:100px; position:fixed; top:10%;    transform: translate(-50%, -50%);left:48%""></img><img src=""media/stimuli/animate_001_left.png"" class=""coveredImage test"" style = ""width:100px; height:100px;position:fixed; top:25%;        transform: translate(-50%, -50%);left:38%""></img><img src=""media/stimuli/inanimate_010_left.png"" class=""coveredImage test"" style = ""width:100px; height:100px;position:fixed; top:25%;        transform: translate(-50%, -50%);left:58%""></img><img src=""media/f.png""style = ""width:30px x; height:30px;position:fixed; top:43%;    transform: translate(-50%, -50%);left:40%""></img><img src=""media/j.png""style = ""width:30px; height:30px;position:fixed; top:43%;    transform: translate(-50%, -50%);left:60%""></img>","media/stimuli/inanimate_003_left.png","inanimate","left","single","media/stimuli/animate_001_left.png","animate","left","single","media/stimuli/inanimate_010_left.png","inanimate","left","single","animacy_identity"
"","","","","","html-keyboard-response","45","204900","0.0-45.0","SS1678233210993","62ff8aa20b2d8c0e359e9799","6406d7f26dd5b7fc1e3377bd","6407ce6d1f2d08b7d72c75d4","1440","759","","1793","","f","","","","","","","<img src=""media/stimuli/animate_005_left.png"" class=""coveredImage test"" style = ""width:100px; height:100px; position:fixed; top:10%;    transform: translate(-50%, -50%);left:44.5%""></img><img src=""media/stimuli/animate_005_left.png"" class=""coveredImage test"" style = ""width:100px; height:100px; position:fixed; top:10%;    transform: translate(-50%, -50%);left:51.5%""></img><img src=""media/stimuli/animate_005_left.png"" class=""coveredImage test"" style = ""width:100px; height:100px;position:fixed; top:25%;        transform: translate(-50%, -50%);left:38%""></img><img src=""media/stimuli/inanimate_007_left.png"" class=""coveredImage test"" style = ""width:100px; height:100px;position:fixed; top:25%;        transform: translate(-50%, -50%);left:54.5%""></img><img src=""media/stimuli/inanimate_007_left.png"" class=""coveredImage test"" style = ""width:100px; height:100px;position:fixed; top:25%;        transform: translate(-50%, -50%);left:61.5%""></img><img src=""media/f.png""style = ""width:30px x; height:30px;position:fixed; top:43%;    transform: translate(-50%, -50%);left:40%""></img><img src=""media/j.png""style = ""width:30px; height:30px;position:fixed; top:43%;    transform: translate(-50%, -50%);left:60%""></img>","media/stimuli/animate_005_left.png","animate","left","pair","media/stimuli/animate_005_left.png","animate","left","single","media/stimuli/inanimate_007_left.png","inanimate","left","pair","number_animacy"
"","","","","","html-keyboard-response","46","206421","0.0-46.0","SS1678233210993","62ff8aa20b2d8c0e359e9799","6406d7f26dd5b7fc1e3377bd","6407ce6d1f2d08b7d72c75d4","1440","759","","1515",""," ","","","","","","","","","","","","","","","","","","","",""
"","","","","","html-keyboard-response","47","209287","0.0-47.0","SS1678233210993","62ff8aa20b2d8c0e359e9799","6406d7f26dd5b7fc1e3377bd","6407ce6d1f2d08b7d72c75d4","1440","759","","2863","","j","","","","","","","<img src=""media/stimuli/inanimate_011_left.png"" class=""coveredImage test"" style = ""width:100px; height:100px; position:fixed; top:10%;    transform: translate(-50%, -50%);left:48%""></img><img src=""media/stimuli/animate_009_left.png"" class=""coveredImage test"" style = ""width:100px; height:100px;position:fixed; top:25%;        transform: translate(-50%, -50%);left:38%""></img><img src=""media/stimuli/inanimate_011_right.png"" class=""coveredImage test"" style = ""width:100px; height:100px;position:fixed; top:25%;        transform: translate(-50%, -50%);left:58%""></img><img src=""media/f.png""style = ""width:30px x; height:30px;position:fixed; top:43%;    transform: translate(-50%, -50%);left:40%""></img><img src=""media/j.png""style = ""width:30px; height:30px;position:fixed; top:43%;    transform: translate(-50%, -50%);left:60%""></img>","media/stimuli/inanimate_011_left.png","inanimate","left","single","media/stimuli/animate_009_left.png","animate","left","single","media/stimuli/inanimate_011_right.png","inanimate","right","single","animacy_pose"
"","","","","","html-keyboard-response","48","210791","0.0-48.0","SS1678233210993","62ff8aa20b2d8c0e359e9799","6406d7f26dd5b7fc1e3377bd","6407ce6d1f2d08b7d72c75d4","1440","759","","1500","","f","","","","","","","<img src=""media/stimuli/animate_012_left.png"" class=""coveredImage test"" style = ""width:100px; height:100px; position:fixed; top:10%;    transform: translate(-50%, -50%);left:48%""></img><img src=""media/stimuli/animate_002_left.png"" class=""coveredImage test"" style = ""width:100px; height:100px;position:fixed; top:25%;        transform: translate(-50%, -50%);left:38%""></img><img src=""media/stimuli/inanimate_004_left.png"" class=""coveredImage test"" style = ""width:100px; height:100px;position:fixed; top:25%;        transform: translate(-50%, -50%);left:58%""></img><img src=""media/f.png""style = ""width:30px x; height:30px;position:fixed; top:43%;    transform: translate(-50%, -50%);left:40%""></img><img src=""media/j.png""style = ""width:30px; height:30px;position:fixed; top:43%;    transform: translate(-50%, -50%);left:60%""></img>","media/stimuli/animate_012_left.png","animate","left","single","media/stimuli/animate_002_left.png","animate","left","single","media/stimuli/inanimate_004_left.png","inanimate","left","single","identity_animacy"
"","","","","","html-keyboard-response","49","212513","0.0-49.0","SS1678233210993","62ff8aa20b2d8c0e359e9799","6406d7f26dd5b7fc1e3377bd","6407ce6d1f2d08b7d72c75d4","1440","759","","1718","","f","","","","","","","<img src=""media/stimuli/inanimate_006_left.png"" class=""coveredImage test"" style = ""width:100px; height:100px; position:fixed; top:10%;    transform: translate(-50%, -50%);left:48%""></img><img src=""media/stimuli/inanimate_006_left.png"" class=""coveredImage test"" style = ""width:100px; height:100px;position:fixed; top:25%;        transform: translate(-50%, -50%);left:34.5%""></img><img src=""media/stimuli/inanimate_006_left.png"" class=""coveredImage test"" style = ""width:100px; height:100px;position:fixed; top:25%;        transform: translate(-50%, -50%);left:41.5%""></img><img src=""media/stimuli/inanimate_001_left.png"" class=""coveredImage test"" style = ""width:100px; height:100px;position:fixed; top:25%;        transform: translate(-50%, -50%);left:58%""></img><img src=""media/f.png""style = ""width:30px x; height:30px;position:fixed; top:43%;    transform: translate(-50%, -50%);left:40%""></img><img src=""media/j.png""style = ""width:30px; height:30px;position:fixed; top:43%;    transform: translate(-50%, -50%);left:60%""></img>","media/stimuli/inanimate_006_left.png","inanimate","left","single","media/stimuli/inanimate_006_left.png","inanimate","left","pair","media/stimuli/inanimate_001_left.png","inanimate","left","single","number_identity"
"","","","","","html-keyboard-response","50","214800","0.0-50.0","SS1678233210993","62ff8aa20b2d8c0e359e9799","6406d7f26dd5b7fc1e3377bd","6407ce6d1f2d08b7d72c75d4","1440","759","","2283","","f","","","","","","","<img src=""media/stimuli/animate_001_left.png"" class=""coveredImage test"" style = ""width:100px; height:100px; position:fixed; top:10%;    transform: translate(-50%, -50%);left:44.5%""></img><img src=""media/stimuli/animate_001_left.png"" class=""coveredImage test"" style = ""width:100px; height:100px; position:fixed; top:10%;    transform: translate(-50%, -50%);left:51.5%""></img><img src=""media/stimuli/animate_001_right.png"" class=""coveredImage test"" style = ""width:100px; height:100px;position:fixed; top:25%;        transform: translate(-50%, -50%);left:34.5%""></img><img src=""media/stimuli/animate_001_right.png"" class=""coveredImage test"" style = ""width:100px; height:100px;position:fixed; top:25%;        transform: translate(-50%, -50%);left:41.5%""></img><img src=""media/stimuli/animate_001_left.png"" class=""coveredImage test"" style = ""width:100px; height:100px;position:fixed; top:25%;        transform: translate(-50%, -50%);left:58%""></img><img src=""media/f.png""style = ""width:30px x; height:30px;position:fixed; top:43%;    transform: translate(-50%, -50%);left:40%""></img><img src=""media/j.png""style = ""width:30px; height:30px;position:fixed; top:43%;    transform: translate(-50%, -50%);left:60%""></img>","media/stimuli/animate_001_left.png","animate","left","pair","media/stimuli/animate_001_right.png","animate","right","pair","media/stimuli/animate_001_left.png","animate","left","single","pose_number"
"","","","","","html-keyboard-response","51","215969","0.0-51.0","SS1678233210993","62ff8aa20b2d8c0e359e9799","6406d7f26dd5b7fc1e3377bd","6407ce6d1f2d08b7d72c75d4","1440","759","","1165","","j","","","","","","","<img src=""media/stimuli/inanimate_010_left.png"" class=""coveredImage test"" style = ""width:100px; height:100px; position:fixed; top:10%;    transform: translate(-50%, -50%);left:48%""></img><img src=""media/stimuli/animate_009_left.png"" class=""coveredImage test"" style = ""width:100px; height:100px;position:fixed; top:25%;        transform: translate(-50%, -50%);left:34.5%""></img><img src=""media/stimuli/animate_009_left.png"" class=""coveredImage test"" style = ""width:100px; height:100px;position:fixed; top:25%;        transform: translate(-50%, -50%);left:41.5%""></img><img src=""media/stimuli/inanimate_010_right.png"" class=""coveredImage test"" style = ""width:100px; height:100px;position:fixed; top:25%;        transform: translate(-50%, -50%);left:54.5%""></img><img src=""media/stimuli/inanimate_010_right.png"" class=""coveredImage test"" style = ""width:100px; height:100px;position:fixed; top:25%;        transform: translate(-50%, -50%);left:61.5%""></img><img src=""media/f.png""style = ""width:30px x; height:30px;position:fixed; top:43%;    transform: translate(-50%, -50%);left:40%""></img><img src=""media/j.png""style = ""width:30px; height:30px;position:fixed; top:43%;    transform: translate(-50%, -50%);left:60%""></img>","media/stimuli/inanimate_010_left.png","inanimate","left","single","media/stimuli/animate_009_left.png","animate","left","pair","media/stimuli/inanimate_010_right.png","inanimate","right","pair","animacy_pose"
"","","","","","html-keyboard-response","52","216923","0.0-52.0","SS1678233210993","62ff8aa20b2d8c0e359e9799","6406d7f26dd5b7fc1e3377bd","6407ce6d1f2d08b7d72c75d4","1440","759","","949","","j","","","","","","","<img src=""media/stimuli/inanimate_010_right.png"" class=""coveredImage test"" style = ""width:100px; height:100px; position:fixed; top:10%;    transform: translate(-50%, -50%);left:48%""></img><img src=""media/stimuli/inanimate_003_right.png"" class=""coveredImage test"" style = ""width:100px; height:100px;position:fixed; top:25%;        transform: translate(-50%, -50%);left:38%""></img><img src=""media/stimuli/inanimate_010_left.png"" class=""coveredImage test"" style = ""width:100px; height:100px;position:fixed; top:25%;        transform: translate(-50%, -50%);left:58%""></img><img src=""media/f.png""style = ""width:30px x; height:30px;position:fixed; top:43%;    transform: translate(-50%, -50%);left:40%""></img><img src=""media/j.png""style = ""width:30px; height:30px;position:fixed; top:43%;    transform: translate(-50%, -50%);left:60%""></img>","media/stimuli/inanimate_010_right.png","inanimate","right","single","media/stimuli/inanimate_003_right.png","inanimate","right","single","media/stimuli/inanimate_010_left.png","inanimate","left","single","identity_pose"
"","","","","","html-keyboard-response","53","218075","0.0-53.0","SS1678233210993","62ff8aa20b2d8c0e359e9799","6406d7f26dd5b7fc1e3377bd","6407ce6d1f2d08b7d72c75d4","1440","759","","1148","","f","","","","","","","<img src=""media/stimuli/animate_006_left.png"" class=""coveredImage test"" style = ""width:100px; height:100px; position:fixed; top:10%;    transform: translate(-50%, -50%);left:44.5%""></img><img src=""media/stimuli/animate_006_left.png"" class=""coveredImage test"" style = ""width:100px; height:100px; position:fixed; top:10%;    transform: translate(-50%, -50%);left:51.5%""></img><img src=""media/stimuli/animate_006_right.png"" class=""coveredImage test"" style = ""width:100px; height:100px;position:fixed; top:25%;        transform: translate(-50%, -50%);left:38%""></img><img src=""media/stimuli/inanimate_010_left.png"" class=""coveredImage test"" style = ""width:100px; height:100px;position:fixed; top:25%;        transform: translate(-50%, -50%);left:58%""></img><img src=""media/f.png""style = ""width:30px x; height:30px;position:fixed; top:43%;    transform: translate(-50%, -50%);left:40%""></img><img src=""media/j.png""style = ""width:30px; height:30px;position:fixed; top:43%;    transform: translate(-50%, -50%);left:60%""></img>","media/stimuli/animate_006_left.png","animate","left","pair","media/stimuli/animate_006_right.png","animate","right","single","media/stimuli/inanimate_010_left.png","inanimate","left","single","pose_animacy"
"","","","","","html-keyboard-response","54","219869","0.0-54.0","SS1678233210993","62ff8aa20b2d8c0e359e9799","6406d7f26dd5b7fc1e3377bd","6407ce6d1f2d08b7d72c75d4","1440","759","","1790","","j","","","","","","","<img src=""media/stimuli/animate_007_left.png"" class=""coveredImage test"" style = ""width:100px; height:100px; position:fixed; top:10%;    transform: translate(-50%, -50%);left:48%""></img><img src=""media/stimuli/animate_007_left.png"" class=""coveredImage test"" style = ""width:100px; height:100px;position:fixed; top:25%;        transform: translate(-50%, -50%);left:34.5%""></img><img src=""media/stimuli/animate_007_left.png"" class=""coveredImage test"" style = ""width:100px; height:100px;position:fixed; top:25%;        transform: translate(-50%, -50%);left:41.5%""></img><img src=""media/stimuli/animate_007_right.png"" class=""coveredImage test"" style = ""width:100px; height:100px;position:fixed; top:25%;        transform: translate(-50%, -50%);left:58%""></img><img src=""media/f.png""style = ""width:30px x; height:30px;position:fixed; top:43%;    transform: translate(-50%, -50%);left:40%""></img><img src=""media/j.png""style = ""width:30px; height:30px;position:fixed; top:43%;    transform: translate(-50%, -50%);left:60%""></img>","media/stimuli/animate_007_left.png","animate","left","single","media/stimuli/animate_007_left.png","animate","left","pair","media/stimuli/animate_007_right.png","animate","right","single","number_pose"
"","","","","","html-keyboard-response","55","221137","0.0-55.0","SS1678233210993","62ff8aa20b2d8c0e359e9799","6406d7f26dd5b7fc1e3377bd","6407ce6d1f2d08b7d72c75d4","1440","759","","1262","","j","","","","","","","<img src=""media/stimuli/animate_002_right.png"" class=""coveredImage test"" style = ""width:100px; height:100px; position:fixed; top:10%;    transform: translate(-50%, -50%);left:48%""></img><img src=""media/stimuli/animate_005_right.png"" class=""coveredImage test"" style = ""width:100px; height:100px;position:fixed; top:25%;        transform: translate(-50%, -50%);left:38%""></img><img src=""media/stimuli/animate_002_left.png"" class=""coveredImage test"" style = ""width:100px; height:100px;position:fixed; top:25%;        transform: translate(-50%, -50%);left:58%""></img><img src=""media/f.png""style = ""width:30px x; height:30px;position:fixed; top:43%;    transform: translate(-50%, -50%);left:40%""></img><img src=""media/j.png""style = ""width:30px; height:30px;position:fixed; top:43%;    transform: translate(-50%, -50%);left:60%""></img>","media/stimuli/animate_002_right.png","animate","right","single","media/stimuli/animate_005_right.png","animate","right","single","media/stimuli/animate_002_left.png","animate","left","single","identity_pose"
"","","","","","html-keyboard-response","56","223216","0.0-56.0","SS1678233210993","62ff8aa20b2d8c0e359e9799","6406d7f26dd5b7fc1e3377bd","6407ce6d1f2d08b7d72c75d4","1440","759","","2075","","j","","","","","","","<img src=""media/stimuli/inanimate_004_right.png"" class=""coveredImage test"" style = ""width:100px; height:100px; position:fixed; top:10%;    transform: translate(-50%, -50%);left:48%""></img><img src=""media/stimuli/animate_001_right.png"" class=""coveredImage test"" style = ""width:100px; height:100px;position:fixed; top:25%;        transform: translate(-50%, -50%);left:38%""></img><img src=""media/stimuli/inanimate_008_right.png"" class=""coveredImage test"" style = ""width:100px; height:100px;position:fixed; top:25%;        transform: translate(-50%, -50%);left:58%""></img><img src=""media/f.png""style = ""width:30px x; height:30px;position:fixed; top:43%;    transform: translate(-50%, -50%);left:40%""></img><img src=""media/j.png""style = ""width:30px; height:30px;position:fixed; top:43%;    transform: translate(-50%, -50%);left:60%""></img>","media/stimuli/inanimate_004_right.png","inanimate","right","single","media/stimuli/animate_001_right.png","animate","right","single","media/stimuli/inanimate_008_right.png","inanimate","right","single","animacy_identity"
"","","","","","html-keyboard-response","57","225096","0.0-57.0","SS1678233210993","62ff8aa20b2d8c0e359e9799","6406d7f26dd5b7fc1e3377bd","6407ce6d1f2d08b7d72c75d4","1440","759","","1875","","f","","","","","","","<img src=""media/stimuli/animate_005_right.png"" class=""coveredImage test"" style = ""width:100px; height:100px; position:fixed; top:10%;    transform: translate(-50%, -50%);left:44.5%""></img><img src=""media/stimuli/animate_005_right.png"" class=""coveredImage test"" style = ""width:100px; height:100px; position:fixed; top:10%;    transform: translate(-50%, -50%);left:51.5%""></img><img src=""media/stimuli/animate_005_right.png"" class=""coveredImage test"" style = ""width:100px; height:100px;position:fixed; top:25%;        transform: translate(-50%, -50%);left:38%""></img><img src=""media/stimuli/inanimate_012_left.png"" class=""coveredImage test"" style = ""width:100px; height:100px;position:fixed; top:25%;        transform: translate(-50%, -50%);left:58%""></img><img src=""media/f.png""style = ""width:30px x; height:30px;position:fixed; top:43%;    transform: translate(-50%, -50%);left:40%""></img><img src=""media/j.png""style = ""width:30px; height:30px;position:fixed; top:43%;    transform: translate(-50%, -50%);left:60%""></img>","media/stimuli/animate_005_right.png","animate","right","pair","media/stimuli/animate_005_right.png","animate","right","single","media/stimuli/inanimate_012_left.png","inanimate","left","single","pose_animacy"
"","","","","","html-keyboard-response","58","228938","0.0-58.0","SS1678233210993","62ff8aa20b2d8c0e359e9799","6406d7f26dd5b7fc1e3377bd","6407ce6d1f2d08b7d72c75d4","1440","759","","3839","","j","","","","","","","<img src=""media/stimuli/inanimate_009_right.png"" class=""coveredImage test"" style = ""width:100px; height:100px; position:fixed; top:10%;    transform: translate(-50%, -50%);left:48%""></img><img src=""media/stimuli/inanimate_009_right.png"" class=""coveredImage test"" style = ""width:100px; height:100px;position:fixed; top:25%;        transform: translate(-50%, -50%);left:34.5%""></img><img src=""media/stimuli/inanimate_009_right.png"" class=""coveredImage test"" style = ""width:100px; height:100px;position:fixed; top:25%;        transform: translate(-50%, -50%);left:41.5%""></img><img src=""media/stimuli/inanimate_009_left.png"" class=""coveredImage test"" style = ""width:100px; height:100px;position:fixed; top:25%;        transform: translate(-50%, -50%);left:58%""></img><img src=""media/f.png""style = ""width:30px x; height:30px;position:fixed; top:43%;    transform: translate(-50%, -50%);left:40%""></img><img src=""media/j.png""style = ""width:30px; height:30px;position:fixed; top:43%;    transform: translate(-50%, -50%);left:60%""></img>","media/stimuli/inanimate_009_right.png","inanimate","right","single","media/stimuli/inanimate_009_right.png","inanimate","right","pair","media/stimuli/inanimate_009_left.png","inanimate","left","single","number_pose"
"","","","","","html-keyboard-response","59","230264","0.0-59.0","SS1678233210993","62ff8aa20b2d8c0e359e9799","6406d7f26dd5b7fc1e3377bd","6407ce6d1f2d08b7d72c75d4","1440","759","","1322",""," ","","","","","","","","","","","","","","","","","","","",""
"","","","","","survey-likert","60","236820","0.0-60.0","SS1678233210993","62ff8aa20b2d8c0e359e9799","6406d7f26dd5b7fc1e3377bd","6407ce6d1f2d08b7d72c75d4","1440","759","","6548","","{""Q0"":2}","[0]","complexity","media/stimuli/animate_006_left.png","animate","single","left","","","","","","","","","","","","","",""
"","","","","","survey-likert","61","240321","0.0-61.0","SS1678233210993","62ff8aa20b2d8c0e359e9799","6406d7f26dd5b7fc1e3377bd","6407ce6d1f2d08b7d72c75d4","1440","759","","3485","","{""Q0"":1}","[0]","complexity","media/stimuli/inanimate_005_left.png","inanimate","single","left","","","","","","","","","","","","","",""
"","","","","","survey-likert","62","242590","0.0-62.0","SS1678233210993","62ff8aa20b2d8c0e359e9799","6406d7f26dd5b7fc1e3377bd","6407ce6d1f2d08b7d72c75d4","1440","759","","2257","","{""Q0"":2}","[0]","complexity","media/stimuli/inanimate_011_left.png","inanimate","single","left","","","","","","","","","","","","","",""
"","","","","","survey-likert","63","249525","0.0-63.0","SS1678233210993","62ff8aa20b2d8c0e359e9799","6406d7f26dd5b7fc1e3377bd","6407ce6d1f2d08b7d72c75d4","1440","759","","6926","","{""Q0"":1}","[0]","complexity","media/stimuli/inanimate_004_right.png","inanimate","single","right","","","","","","","","","","","","","",""
"","","","","","survey-likert","64","253947","0.0-64.0","SS1678233210993","62ff8aa20b2d8c0e359e9799","6406d7f26dd5b7fc1e3377bd","6407ce6d1f2d08b7d72c75d4","1440","759","","4414","","{""Q0"":2}","[0]","complexity","media/stimuli/inanimate_004_left.png","inanimate","pair","left","","","","","","","","","","","","","",""
"","","","","","survey-likert","65","257086","0.0-65.0","SS1678233210993","62ff8aa20b2d8c0e359e9799","6406d7f26dd5b7fc1e3377bd","6407ce6d1f2d08b7d72c75d4","1440","759","","3128","","{""Q0"":1}","[0]","complexity","media/stimuli/inanimate_009_right.png","inanimate","single","right","","","","","","","","","","","","","",""
"","","","","","survey-likert","66","260724","0.0-66.0","SS1678233210993","62ff8aa20b2d8c0e359e9799","6406d7f26dd5b7fc1e3377bd","6407ce6d1f2d08b7d72c75d4","1440","759","","3626","","{""Q0"":3}","[0]","complexity","media/stimuli/animate_012_left.png","animate","pair","left","","","","","","","","","","","","","",""
"","","","","","survey-likert","67","263478","0.0-67.0","SS1678233210993","62ff8aa20b2d8c0e359e9799","6406d7f26dd5b7fc1e3377bd","6407ce6d1f2d08b7d72c75d4","1440","759","","2747","","{""Q0"":2}","[0]","complexity","media/stimuli/animate_004_left.png","animate","single","left","","","","","","","","","","","","","",""
"","","","","","survey-likert","68","266091","0.0-68.0","SS1678233210993","62ff8aa20b2d8c0e359e9799","6406d7f26dd5b7fc1e3377bd","6407ce6d1f2d08b7d72c75d4","1440","759","","2604","","{""Q0"":3}","[0]","complexity","media/stimuli/animate_004_right.png","animate","pair","right","","","","","","","","","","","","","",""
"","","","","","survey-likert","69","268184","0.0-69.0","SS1678233210993","62ff8aa20b2d8c0e359e9799","6406d7f26dd5b7fc1e3377bd","6407ce6d1f2d08b7d72c75d4","1440","759","","2081","","{""Q0"":3}","[0]","complexity","media/stimuli/animate_005_left.png","animate","pair","left","","","","","","","","","","","","","",""
"","","","","","survey-likert","70","271338","0.0-70.0","SS1678233210993","62ff8aa20b2d8c0e359e9799","6406d7f26dd5b7fc1e3377bd","6407ce6d1f2d08b7d72c75d4","1440","759","","3144","","{""Q0"":2}","[0]","complexity","media/stimuli/inanimate_007_right.png","inanimate","single","right","","","","","","","","","","","","","",""
"","","","","","survey-likert","71","273800","0.0-71.0","SS1678233210993","62ff8aa20b2d8c0e359e9799","6406d7f26dd5b7fc1e3377bd","6407ce6d1f2d08b7d72c75d4","1440","759","","2453","","{""Q0"":2}","[0]","complexity","media/stimuli/animate_001_right.png","animate","single","right","","","","","","","","","","","","","",""
"","","","","","html-keyboard-response","72","275693","0.0-72.0","SS1678233210993","62ff8aa20b2d8c0e359e9799","6406d7f26dd5b7fc1e3377bd","6407ce6d1f2d08b7d72c75d4","1440","759","","1884",""," ","","","","","","","","","","","","","","","","","","","",""
"","","","","","html-keyboard-response","73","278860","0.0-73.0","SS1678233210993","62ff8aa20b2d8c0e359e9799","6406d7f26dd5b7fc1e3377bd","6407ce6d1f2d08b7d72c75d4","1440","759","","3161","","j","","","","","","","<img src=""media/stimuli/inanimate_012_right.png"" class=""coveredImage test"" style = ""width:100px; height:100px; position:fixed; top:10%;    transform: translate(-50%, -50%);left:48%""></img><img src=""media/stimuli/inanimate_007_right.png"" class=""coveredImage test"" style = ""width:100px; height:100px;position:fixed; top:25%;        transform: translate(-50%, -50%);left:38%""></img><img src=""media/stimuli/inanimate_012_right.png"" class=""coveredImage test"" style = ""width:100px; height:100px;position:fixed; top:25%;        transform: translate(-50%, -50%);left:54.5%""></img><img src=""media/stimuli/inanimate_012_right.png"" class=""coveredImage test"" style = ""width:100px; height:100px;position:fixed; top:25%;        transform: translate(-50%, -50%);left:61.5%""></img><img src=""media/f.png""style = ""width:30px x; height:30px;position:fixed; top:43%;    transform: translate(-50%, -50%);left:40%""></img><img src=""media/j.png""style = ""width:30px; height:30px;position:fixed; top:43%;    transform: translate(-50%, -50%);left:60%""></img>","media/stimuli/inanimate_012_right.png","inanimate","right","single","media/stimuli/inanimate_007_right.png","inanimate","right","single","media/stimuli/inanimate_012_right.png","inanimate","right","pair","identity_number"
"","","","","","html-keyboard-response","74","283719","0.0-74.0","SS1678233210993","62ff8aa20b2d8c0e359e9799","6406d7f26dd5b7fc1e3377bd","6407ce6d1f2d08b7d72c75d4","1440","759","","4852","","j","","","","","","","<img src=""media/stimuli/inanimate_001_right.png"" class=""coveredImage test"" style = ""width:100px; height:100px; position:fixed; top:10%;    transform: translate(-50%, -50%);left:44.5%""></img><img src=""media/stimuli/inanimate_001_right.png"" class=""coveredImage test"" style = ""width:100px; height:100px; position:fixed; top:10%;    transform: translate(-50%, -50%);left:51.5%""></img><img src=""media/stimuli/inanimate_001_right.png"" class=""coveredImage test"" style = ""width:100px; height:100px;position:fixed; top:25%;        transform: translate(-50%, -50%);left:38%""></img><img src=""media/stimuli/inanimate_012_right.png"" class=""coveredImage test"" style = ""width:100px; height:100px;position:fixed; top:25%;        transform: translate(-50%, -50%);left:54.5%""></img><img src=""media/stimuli/inanimate_012_right.png"" class=""coveredImage test"" style = ""width:100px; height:100px;position:fixed; top:25%;        transform: translate(-50%, -50%);left:61.5%""></img><img src=""media/f.png""style = ""width:30px x; height:30px;position:fixed; top:43%;    transform: translate(-50%, -50%);left:40%""></img><img src=""media/j.png""style = ""width:30px; height:30px;position:fixed; top:43%;    transform: translate(-50%, -50%);left:60%""></img>","media/stimuli/inanimate_001_right.png","inanimate","right","pair","media/stimuli/inanimate_001_right.png","inanimate","right","single","media/stimuli/inanimate_012_right.png","inanimate","right","pair","number_identity"
"","","","","","html-keyboard-response","75","286444","0.0-75.0","SS1678233210993","62ff8aa20b2d8c0e359e9799","6406d7f26dd5b7fc1e3377bd","6407ce6d1f2d08b7d72c75d4","1440","759","","2721","","f","","","","","","","<img src=""media/stimuli/inanimate_007_right.png"" class=""coveredImage test"" style = ""width:100px; height:100px; position:fixed; top:10%;    transform: translate(-50%, -50%);left:44.5%""></img><img src=""media/stimuli/inanimate_007_right.png"" class=""coveredImage test"" style = ""width:100px; height:100px; position:fixed; top:10%;    transform: translate(-50%, -50%);left:51.5%""></img><img src=""media/stimuli/inanimate_009_right.png"" class=""coveredImage test"" style = ""width:100px; height:100px;position:fixed; top:25%;        transform: translate(-50%, -50%);left:34.5%""></img><img src=""media/stimuli/inanimate_009_right.png"" class=""coveredImage test"" style = ""width:100px; height:100px;position:fixed; top:25%;        transform: translate(-50%, -50%);left:41.5%""></img><img src=""media/stimuli/animate_006_right.png"" class=""coveredImage test"" style = ""width:100px; height:100px;position:fixed; top:25%;        transform: translate(-50%, -50%);left:54.5%""></img><img src=""media/stimuli/animate_006_right.png"" class=""coveredImage test"" style = ""width:100px; height:100px;position:fixed; top:25%;        transform: translate(-50%, -50%);left:61.5%""></img><img src=""media/f.png""style = ""width:30px x; height:30px;position:fixed; top:43%;    transform: translate(-50%, -50%);left:40%""></img><img src=""media/j.png""style = ""width:30px; height:30px;position:fixed; top:43%;    transform: translate(-50%, -50%);left:60%""></img>","media/stimuli/inanimate_007_right.png","inanimate","right","pair","media/stimuli/inanimate_009_right.png","inanimate","right","pair","media/stimuli/animate_006_right.png","animate","right","pair","identity_animacy"
"","","","","","html-keyboard-response","76","289062","0.0-76.0","SS1678233210993","62ff8aa20b2d8c0e359e9799","6406d7f26dd5b7fc1e3377bd","6407ce6d1f2d08b7d72c75d4","1440","759","","2613","","f","","","","","","","<img src=""media/stimuli/animate_004_left.png"" class=""coveredImage test"" style = ""width:100px; height:100px; position:fixed; top:10%;    transform: translate(-50%, -50%);left:48%""></img><img src=""media/stimuli/animate_004_right.png"" class=""coveredImage test"" style = ""width:100px; height:100px;position:fixed; top:25%;        transform: translate(-50%, -50%);left:38%""></img><img src=""media/stimuli/animate_004_left.png"" class=""coveredImage test"" style = ""width:100px; height:100px;position:fixed; top:25%;        transform: translate(-50%, -50%);left:54.5%""></img><img src=""media/stimuli/animate_004_left.png"" class=""coveredImage test"" style = ""width:100px; height:100px;position:fixed; top:25%;        transform: translate(-50%, -50%);left:61.5%""></img><img src=""media/f.png""style = ""width:30px x; height:30px;position:fixed; top:43%;    transform: translate(-50%, -50%);left:40%""></img><img src=""media/j.png""style = ""width:30px; height:30px;position:fixed; top:43%;    transform: translate(-50%, -50%);left:60%""></img>","media/stimuli/animate_004_left.png","animate","left","single","media/stimuli/animate_004_right.png","animate","right","single","media/stimuli/animate_004_left.png","animate","left","pair","pose_number"
"","","","","","html-keyboard-response","77","290220","0.0-77.0","SS1678233210993","62ff8aa20b2d8c0e359e9799","6406d7f26dd5b7fc1e3377bd","6407ce6d1f2d08b7d72c75d4","1440","759","","1153","","j","","","","","","","<img src=""media/stimuli/animate_004_left.png"" class=""coveredImage test"" style = ""width:100px; height:100px; position:fixed; top:10%;    transform: translate(-50%, -50%);left:44.5%""></img><img src=""media/stimuli/animate_004_left.png"" class=""coveredImage test"" style = ""width:100px; height:100px; position:fixed; top:10%;    transform: translate(-50%, -50%);left:51.5%""></img><img src=""media/stimuli/animate_005_left.png"" class=""coveredImage test"" style = ""width:100px; height:100px;position:fixed; top:25%;        transform: translate(-50%, -50%);left:34.5%""></img><img src=""media/stimuli/animate_005_left.png"" class=""coveredImage test"" style = ""width:100px; height:100px;position:fixed; top:25%;        transform: translate(-50%, -50%);left:41.5%""></img><img src=""media/stimuli/animate_004_right.png"" class=""coveredImage test"" style = ""width:100px; height:100px;position:fixed; top:25%;        transform: translate(-50%, -50%);left:54.5%""></img><img src=""media/stimuli/animate_004_right.png"" class=""coveredImage test"" style = ""width:100px; height:100px;position:fixed; top:25%;        transform: translate(-50%, -50%);left:61.5%""></img><img src=""media/f.png""style = ""width:30px x; height:30px;position:fixed; top:43%;    transform: translate(-50%, -50%);left:40%""></img><img src=""media/j.png""style = ""width:30px; height:30px;position:fixed; top:43%;    transform: translate(-50%, -50%);left:60%""></img>","media/stimuli/animate_004_left.png","animate","left","pair","media/stimuli/animate_005_left.png","animate","left","pair","media/stimuli/animate_004_right.png","animate","right","pair","identity_pose"
"","","","","","html-keyboard-response","78","291187","0.0-78.0","SS1678233210993","62ff8aa20b2d8c0e359e9799","6406d7f26dd5b7fc1e3377bd","6407ce6d1f2d08b7d72c75d4","1440","759","","960","","j","","","","","","","<img src=""media/stimuli/animate_001_right.png"" class=""coveredImage test"" style = ""width:100px; height:100px; position:fixed; top:10%;    transform: translate(-50%, -50%);left:44.5%""></img><img src=""media/stimuli/animate_001_right.png"" class=""coveredImage test"" style = ""width:100px; height:100px; position:fixed; top:10%;    transform: translate(-50%, -50%);left:51.5%""></img><img src=""media/stimuli/inanimate_010_right.png"" class=""coveredImage test"" style = ""width:100px; height:100px;position:fixed; top:25%;        transform: translate(-50%, -50%);left:34.5%""></img><img src=""media/stimuli/inanimate_010_right.png"" class=""coveredImage test"" style = ""width:100px; height:100px;position:fixed; top:25%;        transform: translate(-50%, -50%);left:41.5%""></img><img src=""media/stimuli/animate_001_left.png"" class=""coveredImage test"" style = ""width:100px; height:100px;position:fixed; top:25%;        transform: translate(-50%, -50%);left:54.5%""></img><img src=""media/stimuli/animate_001_left.png"" class=""coveredImage test"" style = ""width:100px; height:100px;position:fixed; top:25%;        transform: translate(-50%, -50%);left:61.5%""></img><img src=""media/f.png""style = ""width:30px x; height:30px;position:fixed; top:43%;    transform: translate(-50%, -50%);left:40%""></img><img src=""media/j.png""style = ""width:30px; height:30px;position:fixed; top:43%;    transform: translate(-50%, -50%);left:60%""></img>","media/stimuli/animate_001_right.png","animate","right","pair","media/stimuli/inanimate_010_right.png","inanimate","right","pair","media/stimuli/animate_001_left.png","animate","left","pair","animacy_pose"
"","","","","","html-keyboard-response","79","292498","0.0-79.0","SS1678233210993","62ff8aa20b2d8c0e359e9799","6406d7f26dd5b7fc1e3377bd","6407ce6d1f2d08b7d72c75d4","1440","759","","1304","","f","","","","","","","<img src=""media/stimuli/inanimate_005_right.png"" class=""coveredImage test"" style = ""width:100px; height:100px; position:fixed; top:10%;    transform: translate(-50%, -50%);left:44.5%""></img><img src=""media/stimuli/inanimate_005_right.png"" class=""coveredImage test"" style = ""width:100px; height:100px; position:fixed; top:10%;    transform: translate(-50%, -50%);left:51.5%""></img><img src=""media/stimuli/inanimate_005_left.png"" class=""coveredImage test"" style = ""width:100px; height:100px;position:fixed; top:25%;        transform: translate(-50%, -50%);left:34.5%""></img><img src=""media/stimuli/inanimate_005_left.png"" class=""coveredImage test"" style = ""width:100px; height:100px;position:fixed; top:25%;        transform: translate(-50%, -50%);left:41.5%""></img><img src=""media/stimuli/inanimate_005_right.png"" class=""coveredImage test"" style = ""width:100px; height:100px;position:fixed; top:25%;        transform: translate(-50%, -50%);left:58%""></img><img src=""media/f.png""style = ""width:30px x; height:30px;position:fixed; top:43%;    transform: translate(-50%, -50%);left:40%""></img><img src=""media/j.png""style = ""width:30px; height:30px;position:fixed; top:43%;    transform: translate(-50%, -50%);left:60%""></img>","media/stimuli/inanimate_005_right.png","inanimate","right","pair","media/stimuli/inanimate_005_left.png","inanimate","left","pair","media/stimuli/inanimate_005_right.png","inanimate","right","single","pose_number"
"","","","","","html-keyboard-response","80","294396","0.0-80.0","SS1678233210993","62ff8aa20b2d8c0e359e9799","6406d7f26dd5b7fc1e3377bd","6407ce6d1f2d08b7d72c75d4","1440","759","","1891","","j","","","","","","","<img src=""media/stimuli/animate_010_right.png"" class=""coveredImage test"" style = ""width:100px; height:100px; position:fixed; top:10%;    transform: translate(-50%, -50%);left:48%""></img><img src=""media/stimuli/animate_012_right.png"" class=""coveredImage test"" style = ""width:100px; height:100px;position:fixed; top:25%;        transform: translate(-50%, -50%);left:38%""></img><img src=""media/stimuli/animate_010_right.png"" class=""coveredImage test"" style = ""width:100px; height:100px;position:fixed; top:25%;        transform: translate(-50%, -50%);left:54.5%""></img><img src=""media/stimuli/animate_010_right.png"" class=""coveredImage test"" style = ""width:100px; height:100px;position:fixed; top:25%;        transform: translate(-50%, -50%);left:61.5%""></img><img src=""media/f.png""style = ""width:30px x; height:30px;position:fixed; top:43%;    transform: translate(-50%, -50%);left:40%""></img><img src=""media/j.png""style = ""width:30px; height:30px;position:fixed; top:43%;    transform: translate(-50%, -50%);left:60%""></img>","media/stimuli/animate_010_right.png","animate","right","single","media/stimuli/animate_012_right.png","animate","right","single","media/stimuli/animate_010_right.png","animate","right","pair","identity_number"
"","","","","","html-keyboard-response","81","305095","0.0-81.0","SS1678233210993","62ff8aa20b2d8c0e359e9799","6406d7f26dd5b7fc1e3377bd","6407ce6d1f2d08b7d72c75d4","1440","759","","10694","","j","","","","","","","<img src=""media/stimuli/animate_006_left.png"" class=""coveredImage test"" style = ""width:100px; height:100px; position:fixed; top:10%;    transform: translate(-50%, -50%);left:48%""></img><img src=""media/stimuli/animate_006_right.png"" class=""coveredImage test"" style = ""width:100px; height:100px;position:fixed; top:25%;        transform: translate(-50%, -50%);left:38%""></img><img src=""media/stimuli/animate_005_left.png"" class=""coveredImage test"" style = ""width:100px; height:100px;position:fixed; top:25%;        transform: translate(-50%, -50%);left:58%""></img><img src=""media/f.png""style = ""width:30px x; height:30px;position:fixed; top:43%;    transform: translate(-50%, -50%);left:40%""></img><img src=""media/j.png""style = ""width:30px; height:30px;position:fixed; top:43%;    transform: translate(-50%, -50%);left:60%""></img>","media/stimuli/animate_006_left.png","animate","left","single","media/stimuli/animate_006_right.png","animate","right","single","media/stimuli/animate_005_left.png","animate","left","single","pose_identity"
"","","","","","html-keyboard-response","82","306312","0.0-82.0","SS1678233210993","62ff8aa20b2d8c0e359e9799","6406d7f26dd5b7fc1e3377bd","6407ce6d1f2d08b7d72c75d4","1440","759","","1212","","j","","","","","","","<img src=""media/stimuli/inanimate_008_left.png"" class=""coveredImage test"" style = ""width:100px; height:100px; position:fixed; top:10%;    transform: translate(-50%, -50%);left:48%""></img><img src=""media/stimuli/animate_009_left.png"" class=""coveredImage test"" style = ""width:100px; height:100px;position:fixed; top:25%;        transform: translate(-50%, -50%);left:38%""></img><img src=""media/stimuli/inanimate_008_left.png"" class=""coveredImage test"" style = ""width:100px; height:100px;position:fixed; top:25%;        transform: translate(-50%, -50%);left:54.5%""></img><img src=""media/stimuli/inanimate_008_left.png"" class=""coveredImage test"" style = ""width:100px; height:100px;position:fixed; top:25%;        transform: translate(-50%, -50%);left:61.5%""></img><img src=""media/f.png""style = ""width:30px x; height:30px;position:fixed; top:43%;    transform: translate(-50%, -50%);left:40%""></img><img src=""media/j.png""style = ""width:30px; height:30px;position:fixed; top:43%;    transform: translate(-50%, -50%);left:60%""></img>","media/stimuli/inanimate_008_left.png","inanimate","left","single","media/stimuli/animate_009_left.png","animate","left","single","media/stimuli/inanimate_008_left.png","inanimate","left","pair","animacy_number"
"","","","","","html-keyboard-response","83","308334","0.0-83.0","SS1678233210993","62ff8aa20b2d8c0e359e9799","6406d7f26dd5b7fc1e3377bd","6407ce6d1f2d08b7d72c75d4","1440","759","","2018","","j","","","","","","","<img src=""media/stimuli/animate_004_right.png"" class=""coveredImage test"" style = ""width:100px; height:100px; position:fixed; top:10%;    transform: translate(-50%, -50%);left:48%""></img><img src=""media/stimuli/animate_007_right.png"" class=""coveredImage test"" style = ""width:100px; height:100px;position:fixed; top:25%;        transform: translate(-50%, -50%);left:38%""></img><img src=""media/stimuli/animate_004_right.png"" class=""coveredImage test"" style = ""width:100px; height:100px;position:fixed; top:25%;        transform: translate(-50%, -50%);left:54.5%""></img><img src=""media/stimuli/animate_004_right.png"" class=""coveredImage test"" style = ""width:100px; height:100px;position:fixed; top:25%;        transform: translate(-50%, -50%);left:61.5%""></img><img src=""media/f.png""style = ""width:30px x; height:30px;position:fixed; top:43%;    transform: translate(-50%, -50%);left:40%""></img><img src=""media/j.png""style = ""width:30px; height:30px;position:fixed; top:43%;    transform: translate(-50%, -50%);left:60%""></img>","media/stimuli/animate_004_right.png","animate","right","single","media/stimuli/animate_007_right.png","animate","right","single","media/stimuli/animate_004_right.png","animate","right","pair","identity_number"
"","","","","","html-keyboard-response","84","309420","0.0-84.0","SS1678233210993","62ff8aa20b2d8c0e359e9799","6406d7f26dd5b7fc1e3377bd","6407ce6d1f2d08b7d72c75d4","1440","759","","1081","","f","","","","","","","<img src=""media/stimuli/animate_009_right.png"" class=""coveredImage test"" style = ""width:100px; height:100px; position:fixed; top:10%;    transform: translate(-50%, -50%);left:48%""></img><img src=""media/stimuli/animate_009_right.png"" class=""coveredImage test"" style = ""width:100px; height:100px;position:fixed; top:25%;        transform: translate(-50%, -50%);left:34.5%""></img><img src=""media/stimuli/animate_009_right.png"" class=""coveredImage test"" style = ""width:100px; height:100px;position:fixed; top:25%;        transform: translate(-50%, -50%);left:41.5%""></img><img src=""media/stimuli/inanimate_002_right.png"" class=""coveredImage test"" style = ""width:100px; height:100px;position:fixed; top:25%;        transform: translate(-50%, -50%);left:58%""></img><img src=""media/f.png""style = ""width:30px x; height:30px;position:fixed; top:43%;    transform: translate(-50%, -50%);left:40%""></img><img src=""media/j.png""style = ""width:30px; height:30px;position:fixed; top:43%;    transform: translate(-50%, -50%);left:60%""></img>","media/stimuli/animate_009_right.png","animate","right","single","media/stimuli/animate_009_right.png","animate","right","pair","media/stimuli/inanimate_002_right.png","inanimate","right","single","number_animacy"
"","","","","","html-keyboard-response","85","311595","0.0-85.0","SS1678233210993","62ff8aa20b2d8c0e359e9799","6406d7f26dd5b7fc1e3377bd","6407ce6d1f2d08b7d72c75d4","1440","759","","2170","","f","","","","","","","<img src=""media/stimuli/inanimate_011_left.png"" class=""coveredImage test"" style = ""width:100px; height:100px; position:fixed; top:10%;    transform: translate(-50%, -50%);left:44.5%""></img><img src=""media/stimuli/inanimate_011_left.png"" class=""coveredImage test"" style = ""width:100px; height:100px; position:fixed; top:10%;    transform: translate(-50%, -50%);left:51.5%""></img><img src=""media/stimuli/inanimate_010_left.png"" class=""coveredImage test"" style = ""width:100px; height:100px;position:fixed; top:25%;        transform: translate(-50%, -50%);left:34.5%""></img><img src=""media/stimuli/inanimate_010_left.png"" class=""coveredImage test"" style = ""width:100px; height:100px;position:fixed; top:25%;        transform: translate(-50%, -50%);left:41.5%""></img><img src=""media/stimuli/animate_012_left.png"" class=""coveredImage test"" style = ""width:100px; height:100px;position:fixed; top:25%;        transform: translate(-50%, -50%);left:54.5%""></img><img src=""media/stimuli/animate_012_left.png"" class=""coveredImage test"" style = ""width:100px; height:100px;position:fixed; top:25%;        transform: translate(-50%, -50%);left:61.5%""></img><img src=""media/f.png""style = ""width:30px x; height:30px;position:fixed; top:43%;    transform: translate(-50%, -50%);left:40%""></img><img src=""media/j.png""style = ""width:30px; height:30px;position:fixed; top:43%;    transform: translate(-50%, -50%);left:60%""></img>","media/stimuli/inanimate_011_left.png","inanimate","left","pair","media/stimuli/inanimate_010_left.png","inanimate","left","pair","media/stimuli/animate_012_left.png","animate","left","pair","identity_animacy"
"","","","","","html-keyboard-response","86","312752","0.0-86.0","SS1678233210993","62ff8aa20b2d8c0e359e9799","6406d7f26dd5b7fc1e3377bd","6407ce6d1f2d08b7d72c75d4","1440","759","","1152","","f","","","","","","","<img src=""media/stimuli/inanimate_005_right.png"" class=""coveredImage test"" style = ""width:100px; height:100px; position:fixed; top:10%;    transform: translate(-50%, -50%);left:48%""></img><img src=""media/stimuli/inanimate_005_left.png"" class=""coveredImage test"" style = ""width:100px; height:100px;position:fixed; top:25%;        transform: translate(-50%, -50%);left:38%""></img><img src=""media/stimuli/animate_004_right.png"" class=""coveredImage test"" style = ""width:100px; height:100px;position:fixed; top:25%;        transform: translate(-50%, -50%);left:58%""></img><img src=""media/f.png""style = ""width:30px x; height:30px;position:fixed; top:43%;    transform: translate(-50%, -50%);left:40%""></img><img src=""media/j.png""style = ""width:30px; height:30px;position:fixed; top:43%;    transform: translate(-50%, -50%);left:60%""></img>","media/stimuli/inanimate_005_right.png","inanimate","right","single","media/stimuli/inanimate_005_left.png","inanimate","left","single","media/stimuli/animate_004_right.png","animate","right","single","pose_animacy"
"","","","","","html-keyboard-response","87","313884","0.0-87.0","SS1678233210993","62ff8aa20b2d8c0e359e9799","6406d7f26dd5b7fc1e3377bd","6407ce6d1f2d08b7d72c75d4","1440","759","","1125","","j","","","","","","","<img src=""media/stimuli/animate_009_right.png"" class=""coveredImage test"" style = ""width:100px; height:100px; position:fixed; top:10%;    transform: translate(-50%, -50%);left:44.5%""></img><img src=""media/stimuli/animate_009_right.png"" class=""coveredImage test"" style = ""width:100px; height:100px; position:fixed; top:10%;    transform: translate(-50%, -50%);left:51.5%""></img><img src=""media/stimuli/inanimate_002_left.png"" class=""coveredImage test"" style = ""width:100px; height:100px;position:fixed; top:25%;        transform: translate(-50%, -50%);left:34.5%""></img><img src=""media/stimuli/inanimate_002_left.png"" class=""coveredImage test"" style = ""width:100px; height:100px;position:fixed; top:25%;        transform: translate(-50%, -50%);left:41.5%""></img><img src=""media/stimuli/animate_009_right.png"" class=""coveredImage test"" style = ""width:100px; height:100px;position:fixed; top:25%;        transform: translate(-50%, -50%);left:54.5%""></img><img src=""media/stimuli/animate_009_right.png"" class=""coveredImage test"" style = ""width:100px; height:100px;position:fixed; top:25%;        transform: translate(-50%, -50%);left:61.5%""></img><img src=""media/f.png""style = ""width:30px x; height:30px;position:fixed; top:43%;    transform: translate(-50%, -50%);left:40%""></img><img src=""media/j.png""style = ""width:30px; height:30px;position:fixed; top:43%;    transform: translate(-50%, -50%);left:60%""></img>","media/stimuli/animate_009_right.png","animate","right","pair","media/stimuli/inanimate_002_left.png","inanimate","left","pair","media/stimuli/animate_009_right.png","animate","right","pair","animacy_pose"
"","","","","","html-keyboard-response","88","315759","0.0-88.0","SS1678233210993","62ff8aa20b2d8c0e359e9799","6406d7f26dd5b7fc1e3377bd","6407ce6d1f2d08b7d72c75d4","1440","759","","1869","","f","","","","","","","<img src=""media/stimuli/animate_007_left.png"" class=""coveredImage test"" style = ""width:100px; height:100px; position:fixed; top:10%;    transform: translate(-50%, -50%);left:44.5%""></img><img src=""media/stimuli/animate_007_left.png"" class=""coveredImage test"" style = ""width:100px; height:100px; position:fixed; top:10%;    transform: translate(-50%, -50%);left:51.5%""></img><img src=""media/stimuli/animate_007_left.png"" class=""coveredImage test"" style = ""width:100px; height:100px;position:fixed; top:25%;        transform: translate(-50%, -50%);left:38%""></img><img src=""media/stimuli/animate_001_left.png"" class=""coveredImage test"" style = ""width:100px; height:100px;position:fixed; top:25%;        transform: translate(-50%, -50%);left:54.5%""></img><img src=""media/stimuli/animate_001_left.png"" class=""coveredImage test"" style = ""width:100px; height:100px;position:fixed; top:25%;        transform: translate(-50%, -50%);left:61.5%""></img><img src=""media/f.png""style = ""width:30px x; height:30px;position:fixed; top:43%;    transform: translate(-50%, -50%);left:40%""></img><img src=""media/j.png""style = ""width:30px; height:30px;position:fixed; top:43%;    transform: translate(-50%, -50%);left:60%""></img>","media/stimuli/animate_007_left.png","animate","left","pair","media/stimuli/animate_007_left.png","animate","left","single","media/stimuli/animate_001_left.png","animate","left","pair","number_identity"
"","","","","","html-keyboard-response","89","317261","0.0-89.0","SS1678233210993","62ff8aa20b2d8c0e359e9799","6406d7f26dd5b7fc1e3377bd","6407ce6d1f2d08b7d72c75d4","1440","759","","1497",""," ","","","","","","","","","","","","","","","","","","","",""
"","","","","","survey-likert","90","327117","0.0-90.0","SS1678233210993","62ff8aa20b2d8c0e359e9799","6406d7f26dd5b7fc1e3377bd","6407ce6d1f2d08b7d72c75d4","1440","759","","9850","","{""Q0"":2}","[0]","complexity","media/stimuli/inanimate_010_left.png","inanimate","pair","left","","","","","","","","","","","","","",""
"","","","","","survey-likert","91","336976","0.0-91.0","SS1678233210993","62ff8aa20b2d8c0e359e9799","6406d7f26dd5b7fc1e3377bd","6407ce6d1f2d08b7d72c75d4","1440","759","","9849","","{""Q0"":3}","[0]","complexity","media/stimuli/inanimate_006_right.png","inanimate","pair","right","","","","","","","","","","","","","",""
"","","","","","survey-likert","92","339089","0.0-92.0","SS1678233210993","62ff8aa20b2d8c0e359e9799","6406d7f26dd5b7fc1e3377bd","6407ce6d1f2d08b7d72c75d4","1440","759","","2102","","{""Q0"":3}","[0]","complexity","media/stimuli/animate_006_left.png","animate","pair","left","","","","","","","","","","","","","",""
"","","","","","survey-likert","93","344247","0.0-93.0","SS1678233210993","62ff8aa20b2d8c0e359e9799","6406d7f26dd5b7fc1e3377bd","6407ce6d1f2d08b7d72c75d4","1440","759","","5146","","{""Q0"":3}","[0]","complexity","media/stimuli/inanimate_011_left.png","inanimate","pair","left","","","","","","","","","","","","","",""
"","","","","","survey-likert","94","347591","0.0-94.0","SS1678233210993","62ff8aa20b2d8c0e359e9799","6406d7f26dd5b7fc1e3377bd","6407ce6d1f2d08b7d72c75d4","1440","759","","3335","","{""Q0"":2}","[0]","complexity","media/stimuli/animate_010_right.png","animate","single","right","","","","","","","","","","","","","",""
"","","","","","survey-likert","95","351283","0.0-95.0","SS1678233210993","62ff8aa20b2d8c0e359e9799","6406d7f26dd5b7fc1e3377bd","6407ce6d1f2d08b7d72c75d4","1440","759","","3683","","{""Q0"":2}","[0]","complexity","media/stimuli/inanimate_011_right.png","inanimate","single","right","","","","","","","","","","","","","",""
"","","","","","survey-likert","96","354943","0.0-96.0","SS1678233210993","62ff8aa20b2d8c0e359e9799","6406d7f26dd5b7fc1e3377bd","6407ce6d1f2d08b7d72c75d4","1440","759","","3649","","{""Q0"":3}","[0]","complexity","media/stimuli/animate_007_right.png","animate","pair","right","","","","","","","","","","","","","",""
"","","","","","survey-likert","97","360538","0.0-97.0","SS1678233210993","62ff8aa20b2d8c0e359e9799","6406d7f26dd5b7fc1e3377bd","6407ce6d1f2d08b7d72c75d4","1440","759","","5583","","{""Q0"":2}","[0]","complexity","media/stimuli/inanimate_005_left.png","inanimate","pair","left","","","","","","","","","","","","","",""
"","","","","","survey-likert","98","362722","0.0-98.0","SS1678233210993","62ff8aa20b2d8c0e359e9799","6406d7f26dd5b7fc1e3377bd","6407ce6d1f2d08b7d72c75d4","1440","759","","2175","","{""Q0"":3}","[0]","complexity","media/stimuli/animate_008_right.png","animate","pair","right","","","","","","","","","","","","","",""
"","","","","","survey-likert","99","366562","0.0-99.0","SS1678233210993","62ff8aa20b2d8c0e359e9799","6406d7f26dd5b7fc1e3377bd","6407ce6d1f2d08b7d72c75d4","1440","759","","3830","","{""Q0"":2}","[0]","complexity","media/stimuli/inanimate_002_right.png","inanimate","pair","right","","","","","","","","","","","","","",""
"","","","","","survey-likert","100","368683","0.0-100.0","SS1678233210993","62ff8aa20b2d8c0e359e9799","6406d7f26dd5b7fc1e3377bd","6407ce6d1f2d08b7d72c75d4","1440","759","","2108","","{""Q0"":1}","[0]","complexity","media/stimuli/inanimate_002_left.png","inanimate","single","left","","","","","","","","","","","","","",""
"","","","","","survey-likert","101","370735","0.0-101.0","SS1678233210993","62ff8aa20b2d8c0e359e9799","6406d7f26dd5b7fc1e3377bd","6407ce6d1f2d08b7d72c75d4","1440","759","","2041","","{""Q0"":2}","[0]","complexity","media/stimuli/animate_005_left.png","animate","single","left","","","","","","","","","","","","","",""
"","","","","","html-keyboard-response","102","372047","0.0-102.0","SS1678233210993","62ff8aa20b2d8c0e359e9799","6406d7f26dd5b7fc1e3377bd","6407ce6d1f2d08b7d72c75d4","1440","759","","1303",""," ","","","","","","","","","","","","","","","","","","","",""
"","","","","","survey-likert","103","374975","0.0-103.0","SS1678233210993","62ff8aa20b2d8c0e359e9799","6406d7f26dd5b7fc1e3377bd","6407ce6d1f2d08b7d72c75d4","1440","759","","2921","","{""Q0"":1}","[0]","complexity","media/stimuli/inanimate_001_left.png","inanimate","single","left","","","","","","","","","","","","","",""
"","","","","","survey-likert","104","376944","0.0-104.0","SS1678233210993","62ff8aa20b2d8c0e359e9799","6406d7f26dd5b7fc1e3377bd","6407ce6d1f2d08b7d72c75d4","1440","759","","1957","","{""Q0"":2}","[0]","complexity","media/stimuli/inanimate_006_left.png","inanimate","single","left","","","","","","","","","","","","","",""
"","","","","","survey-likert","105","378887","0.0-105.0","SS1678233210993","62ff8aa20b2d8c0e359e9799","6406d7f26dd5b7fc1e3377bd","6407ce6d1f2d08b7d72c75d4","1440","759","","1931","","{""Q0"":3}","[0]","complexity","media/stimuli/animate_005_right.png","animate","pair","right","","","","","","","","","","","","","",""
"","","","","","survey-likert","106","386598","0.0-106.0","SS1678233210993","62ff8aa20b2d8c0e359e9799","6406d7f26dd5b7fc1e3377bd","6407ce6d1f2d08b7d72c75d4","1440","759","","7701","","{""Q0"":2}","[0]","complexity","media/stimuli/animate_012_right.png","animate","single","right","","","","","","","","","","","","","",""
"","","","","","survey-likert","107","388362","0.0-107.0","SS1678233210993","62ff8aa20b2d8c0e359e9799","6406d7f26dd5b7fc1e3377bd","6407ce6d1f2d08b7d72c75d4","1440","759","","1752","","{""Q0"":2}","[0]","complexity","media/stimuli/animate_003_right.png","animate","single","right","","","","","","","","","","","","","",""
"","","","","","survey-likert","108","390291","0.0-108.0","SS1678233210993","62ff8aa20b2d8c0e359e9799","6406d7f26dd5b7fc1e3377bd","6407ce6d1f2d08b7d72c75d4","1440","759","","1920","","{""Q0"":3}","[0]","complexity","media/stimuli/animate_012_right.png","animate","pair","right","","","","","","","","","","","","","",""
"","","","","","survey-likert","109","392369","0.0-109.0","SS1678233210993","62ff8aa20b2d8c0e359e9799","6406d7f26dd5b7fc1e3377bd","6407ce6d1f2d08b7d72c75d4","1440","759","","2067","","{""Q0"":2}","[0]","complexity","media/stimuli/animate_009_left.png","animate","single","left","","","","","","","","","","","","","",""
"","","","","","survey-likert","110","394010","0.0-110.0","SS1678233210993","62ff8aa20b2d8c0e359e9799","6406d7f26dd5b7fc1e3377bd","6407ce6d1f2d08b7d72c75d4","1440","759","","1631","","{""Q0"":2}","[0]","complexity","media/stimuli/animate_008_right.png","animate","single","right","","","","","","","","","","","","","",""
"","","","","","survey-likert","111","396205","0.0-111.0","SS1678233210993","62ff8aa20b2d8c0e359e9799","6406d7f26dd5b7fc1e3377bd","6407ce6d1f2d08b7d72c75d4","1440","759","","2184","","{""Q0"":3}","[0]","complexity","media/stimuli/animate_008_left.png","animate","pair","left","","","","","","","","","","","","","",""
"","","","","","survey-likert","112","399865","0.0-112.0","SS1678233210993","62ff8aa20b2d8c0e359e9799","6406d7f26dd5b7fc1e3377bd","6407ce6d1f2d08b7d72c75d4","1440","759","","3652","","{""Q0"":2}","[0]","complexity","media/stimuli/inanimate_003_right.png","inanimate","pair","right","","","","","","","","","","","","","",""
"","","","","","survey-likert","113","401817","0.0-113.0","SS1678233210993","62ff8aa20b2d8c0e359e9799","6406d7f26dd5b7fc1e3377bd","6407ce6d1f2d08b7d72c75d4","1440","759","","1942","","{""Q0"":3}","[0]","complexity","media/stimuli/animate_010_left.png","animate","pair","left","","","","","","","","","","","","","",""
