"success","timeout","failed_images","failed_audio","failed_video","trial_type","trial_index","time_elapsed","internal_node_id","subject","prolific_id","study","session","window_width","window_height","view_history","rt","stimulus_type","response","question_order","rating_type","stimulus","target","target_animacy","target_pose","target_number","left","left_animacy","left_pose","left_number","right","right_animacy","right_pose","right_number","comparison_type","rating_stimulus","rating_animacy","rating_number","rating_pose"
"true","false","[]","[]","[]","preload","0","3359","0.0-0.0","SS1678233192609","63d44472a72a227e0fef6bdc","6406d7f26dd5b7fc1e3377bd","6407ce60a8697fcd4d97e7a0","1920","969","","","","","","","","","","","","","","","","","","","","","","","",""
"","","","","","instructions","1","6353","0.0-1.0","SS1678233192609","63d44472a72a227e0fef6bdc","6406d7f26dd5b7fc1e3377bd","6407ce60a8697fcd4d97e7a0","1920","969","[{""page_index"":0,""viewing_time"":2992}]","2992","","","","","","","","","","","","","","","","","","","","","",""
"","","","","","instructions","2","63217","0.0-2.0","SS1678233192609","63d44472a72a227e0fef6bdc","6406d7f26dd5b7fc1e3377bd","6407ce60a8697fcd4d97e7a0","1920","969","[{""page_index"":0,""viewing_time"":54855}]","54855","instructions","","","","","","","","","","","","","","","","","","","","",""
"","","","","","instructions","3","65205","0.0-3.0","SS1678233192609","63d44472a72a227e0fef6bdc","6406d7f26dd5b7fc1e3377bd","6407ce60a8697fcd4d97e7a0","1920","969","[{""page_index"":0,""viewing_time"":1987}]","1987","instructions","","","","","","","","","","","","","","","","","","","","",""
"","","","","","survey-likert","4","77849","0.0-4.0","SS1678233192609","63d44472a72a227e0fef6bdc","6406d7f26dd5b7fc1e3377bd","6407ce60a8697fcd4d97e7a0","1920","969","","12642","","{""Q0"":5}","[0]","anchoring","","","","","","","","","","","","","","","","","",""
"","","","","","survey-likert","5","83619","0.0-5.0","SS1678233192609","63d44472a72a227e0fef6bdc","6406d7f26dd5b7fc1e3377bd","6407ce60a8697fcd4d97e7a0","1920","969","","5768","","{""Q0"":1}","[0]","anchoring","","","","","","","","","","","","","","","","","",""
"","","","","","instructions","6","84823","0.0-6.0","SS1678233192609","63d44472a72a227e0fef6bdc","6406d7f26dd5b7fc1e3377bd","6407ce60a8697fcd4d97e7a0","1920","969","[{""page_index"":0,""viewing_time"":1202}]","1202","instructions","","","","","","","","","","","","","","","","","","","","",""
"true","","","","","fullscreen","7","88207","0.0-7.0","SS1678233192609","63d44472a72a227e0fef6bdc","6406d7f26dd5b7fc1e3377bd","6407ce60a8697fcd4d97e7a0","1920","969","","","","","","","","","","","","","","","","","","","","","","","",""
"","","","","","html-keyboard-response","8","95667","0.0-8.0","SS1678233192609","63d44472a72a227e0fef6bdc","6406d7f26dd5b7fc1e3377bd","6407ce60a8697fcd4d97e7a0","1920","969","","7456","","f","","","<img src=""media/stimuli/inanimate_002_left.png"" class=""coveredImage test"" style = ""width:100px; height:100px; position:fixed; top:10%;    transform: translate(-50%, -50%);left:44.5%""></img><img src=""media/stimuli/inanimate_002_left.png"" class=""coveredImage test"" style = ""width:100px; height:100px; position:fixed; top:10%;    transform: translate(-50%, -50%);left:51.5%""></img><img src=""media/stimuli/inanimate_008_left.png"" class=""coveredImage test"" style = ""width:100px; height:100px;position:fixed; top:25%;        transform: translate(-50%, -50%);left:34.5%""></img><img src=""media/stimuli/inanimate_008_left.png"" class=""coveredImage test"" style = ""width:100px; height:100px;position:fixed; top:25%;        transform: translate(-50%, -50%);left:41.5%""></img><img src=""media/stimuli/animate_004_left.png"" class=""coveredImage test"" style = ""width:100px; height:100px;position:fixed; top:25%;        transform: translate(-50%, -50%);left:54.5%""></img><img src=""media/stimuli/animate_004_left.png"" class=""coveredImage test"" style = ""width:100px; height:100px;position:fixed; top:25%;        transform: translate(-50%, -50%);left:61.5%""></img><img src=""media/f.png""style = ""width:30px x; height:30px;position:fixed; top:43%;    transform: translate(-50%, -50%);left:40%""></img><img src=""media/j.png""style = ""width:30px; height:30px;position:fixed; top:43%;    transform: translate(-50%, -50%);left:60%""></img>","media/stimuli/inanimate_002_left.png","inanimate","left","pair","media/stimuli/inanimate_008_left.png","inanimate","left","pair","media/stimuli/animate_004_left.png","animate","left","pair","identity_animacy","","","",""
"","","","","","html-keyboard-response","9","98828","0.0-9.0","SS1678233192609","63d44472a72a227e0fef6bdc","6406d7f26dd5b7fc1e3377bd","6407ce60a8697fcd4d97e7a0","1920","969","","3155","","j","","","<img src=""media/stimuli/animate_010_right.png"" class=""coveredImage test"" style = ""width:100px; height:100px; position:fixed; top:10%;    transform: translate(-50%, -50%);left:48%""></img><img src=""media/stimuli/animate_010_left.png"" class=""coveredImage test"" style = ""width:100px; height:100px;position:fixed; top:25%;        transform: translate(-50%, -50%);left:38%""></img><img src=""media/stimuli/animate_010_right.png"" class=""coveredImage test"" style = ""width:100px; height:100px;position:fixed; top:25%;        transform: translate(-50%, -50%);left:54.5%""></img><img src=""media/stimuli/animate_010_right.png"" class=""coveredImage test"" style = ""width:100px; height:100px;position:fixed; top:25%;        transform: translate(-50%, -50%);left:61.5%""></img><img src=""media/f.png""style = ""width:30px x; height:30px;position:fixed; top:43%;    transform: translate(-50%, -50%);left:40%""></img><img src=""media/j.png""style = ""width:30px; height:30px;position:fixed; top:43%;    transform: translate(-50%, -50%);left:60%""></img>","media/stimuli/animate_010_right.png","animate","right","single","media/stimuli/animate_010_left.png","animate","left","single","media/stimuli/animate_010_right.png","animate","right","pair","pose_number","","","",""
"","","","","","html-keyboard-response","10","108588","0.0-10.0","SS1678233192609","63d44472a72a227e0fef6bdc","6406d7f26dd5b7fc1e3377bd","6407ce60a8697fcd4d97e7a0","1920","969","","9755","","f","","","<img src=""media/stimuli/inanimate_005_right.png"" class=""coveredImage test"" style = ""width:100px; height:100px; position:fixed; top:10%;    transform: translate(-50%, -50%);left:44.5%""></img><img src=""media/stimuli/inanimate_005_right.png"" class=""coveredImage test"" style = ""width:100px; height:100px; position:fixed; top:10%;    transform: translate(-50%, -50%);left:51.5%""></img><img src=""media/stimuli/inanimate_005_left.png"" class=""coveredImage test"" style = ""width:100px; height:100px;position:fixed; top:25%;        transform: translate(-50%, -50%);left:34.5%""></img><img src=""media/stimuli/inanimate_005_left.png"" class=""coveredImage test"" style = ""width:100px; height:100px;position:fixed; top:25%;        transform: translate(-50%, -50%);left:41.5%""></img><img src=""media/stimuli/animate_010_right.png"" class=""coveredImage test"" style = ""width:100px; height:100px;position:fixed; top:25%;        transform: translate(-50%, -50%);left:54.5%""></img><img src=""media/stimuli/animate_010_right.png"" class=""coveredImage test"" style = ""width:100px; height:100px;position:fixed; top:25%;        transform: translate(-50%, -50%);left:61.5%""></img><img src=""media/f.png""style = ""width:30px x; height:30px;position:fixed; top:43%;    transform: translate(-50%, -50%);left:40%""></img><img src=""media/j.png""style = ""width:30px; height:30px;position:fixed; top:43%;    transform: translate(-50%, -50%);left:60%""></img>","media/stimuli/inanimate_005_right.png","inanimate","right","pair","media/stimuli/inanimate_005_left.png","inanimate","left","pair","media/stimuli/animate_010_right.png","animate","right","pair","pose_animacy","","","",""
"","","","","","html-keyboard-response","11","110906","0.0-11.0","SS1678233192609","63d44472a72a227e0fef6bdc","6406d7f26dd5b7fc1e3377bd","6407ce60a8697fcd4d97e7a0","1920","969","","2316","","j","","","<img src=""media/stimuli/inanimate_004_left.png"" class=""coveredImage test"" style = ""width:100px; height:100px; position:fixed; top:10%;    transform: translate(-50%, -50%);left:44.5%""></img><img src=""media/stimuli/inanimate_004_left.png"" class=""coveredImage test"" style = ""width:100px; height:100px; position:fixed; top:10%;    transform: translate(-50%, -50%);left:51.5%""></img><img src=""media/stimuli/inanimate_006_left.png"" class=""coveredImage test"" style = ""width:100px; height:100px;position:fixed; top:25%;        transform: translate(-50%, -50%);left:34.5%""></img><img src=""media/stimuli/inanimate_006_left.png"" class=""coveredImage test"" style = ""width:100px; height:100px;position:fixed; top:25%;        transform: translate(-50%, -50%);left:41.5%""></img><img src=""media/stimuli/inanimate_004_left.png"" class=""coveredImage test"" style = ""width:100px; height:100px;position:fixed; top:25%;        transform: translate(-50%, -50%);left:58%""></img><img src=""media/f.png""style = ""width:30px x; height:30px;position:fixed; top:43%;    transform: translate(-50%, -50%);left:40%""></img><img src=""media/j.png""style = ""width:30px; height:30px;position:fixed; top:43%;    transform: translate(-50%, -50%);left:60%""></img>","media/stimuli/inanimate_004_left.png","inanimate","left","pair","media/stimuli/inanimate_006_left.png","inanimate","left","pair","media/stimuli/inanimate_004_left.png","inanimate","left","single","identity_number","","","",""
"","","","","","html-keyboard-response","12","114914","0.0-12.0","SS1678233192609","63d44472a72a227e0fef6bdc","6406d7f26dd5b7fc1e3377bd","6407ce60a8697fcd4d97e7a0","1920","969","","4003","","j","","","<img src=""media/stimuli/animate_006_left.png"" class=""coveredImage test"" style = ""width:100px; height:100px; position:fixed; top:10%;    transform: translate(-50%, -50%);left:48%""></img><img src=""media/stimuli/inanimate_001_left.png"" class=""coveredImage test"" style = ""width:100px; height:100px;position:fixed; top:25%;        transform: translate(-50%, -50%);left:38%""></img><img src=""media/stimuli/animate_010_left.png"" class=""coveredImage test"" style = ""width:100px; height:100px;position:fixed; top:25%;        transform: translate(-50%, -50%);left:58%""></img><img src=""media/f.png""style = ""width:30px x; height:30px;position:fixed; top:43%;    transform: translate(-50%, -50%);left:40%""></img><img src=""media/j.png""style = ""width:30px; height:30px;position:fixed; top:43%;    transform: translate(-50%, -50%);left:60%""></img>","media/stimuli/animate_006_left.png","animate","left","single","media/stimuli/inanimate_001_left.png","inanimate","left","single","media/stimuli/animate_010_left.png","animate","left","single","animacy_identity","","","",""
"","","","","","html-keyboard-response","13","116516","0.0-13.0","SS1678233192609","63d44472a72a227e0fef6bdc","6406d7f26dd5b7fc1e3377bd","6407ce60a8697fcd4d97e7a0","1920","969","","1598","","f","","","<img src=""media/stimuli/inanimate_001_right.png"" class=""coveredImage test"" style = ""width:100px; height:100px; position:fixed; top:10%;    transform: translate(-50%, -50%);left:48%""></img><img src=""media/stimuli/inanimate_006_right.png"" class=""coveredImage test"" style = ""width:100px; height:100px;position:fixed; top:25%;        transform: translate(-50%, -50%);left:38%""></img><img src=""media/stimuli/animate_002_right.png"" class=""coveredImage test"" style = ""width:100px; height:100px;position:fixed; top:25%;        transform: translate(-50%, -50%);left:58%""></img><img src=""media/f.png""style = ""width:30px x; height:30px;position:fixed; top:43%;    transform: translate(-50%, -50%);left:40%""></img><img src=""media/j.png""style = ""width:30px; height:30px;position:fixed; top:43%;    transform: translate(-50%, -50%);left:60%""></img>","media/stimuli/inanimate_001_right.png","inanimate","right","single","media/stimuli/inanimate_006_right.png","inanimate","right","single","media/stimuli/animate_002_right.png","animate","right","single","identity_animacy","","","",""
"","","","","","html-keyboard-response","14","118666","0.0-14.0","SS1678233192609","63d44472a72a227e0fef6bdc","6406d7f26dd5b7fc1e3377bd","6407ce60a8697fcd4d97e7a0","1920","969","","2149","","f","","","<img src=""media/stimuli/animate_003_left.png"" class=""coveredImage test"" style = ""width:100px; height:100px; position:fixed; top:10%;    transform: translate(-50%, -50%);left:48%""></img><img src=""media/stimuli/animate_003_right.png"" class=""coveredImage test"" style = ""width:100px; height:100px;position:fixed; top:25%;        transform: translate(-50%, -50%);left:38%""></img><img src=""media/stimuli/animate_001_left.png"" class=""coveredImage test"" style = ""width:100px; height:100px;position:fixed; top:25%;        transform: translate(-50%, -50%);left:58%""></img><img src=""media/f.png""style = ""width:30px x; height:30px;position:fixed; top:43%;    transform: translate(-50%, -50%);left:40%""></img><img src=""media/j.png""style = ""width:30px; height:30px;position:fixed; top:43%;    transform: translate(-50%, -50%);left:60%""></img>","media/stimuli/animate_003_left.png","animate","left","single","media/stimuli/animate_003_right.png","animate","right","single","media/stimuli/animate_001_left.png","animate","left","single","pose_identity","","","",""
"","","","","","html-keyboard-response","15","120840","0.0-15.0","SS1678233192609","63d44472a72a227e0fef6bdc","6406d7f26dd5b7fc1e3377bd","6407ce60a8697fcd4d97e7a0","1920","969","","2168","","f","","","<img src=""media/stimuli/inanimate_010_left.png"" class=""coveredImage test"" style = ""width:100px; height:100px; position:fixed; top:10%;    transform: translate(-50%, -50%);left:48%""></img><img src=""media/stimuli/inanimate_010_right.png"" class=""coveredImage test"" style = ""width:100px; height:100px;position:fixed; top:25%;        transform: translate(-50%, -50%);left:38%""></img><img src=""media/stimuli/inanimate_012_left.png"" class=""coveredImage test"" style = ""width:100px; height:100px;position:fixed; top:25%;        transform: translate(-50%, -50%);left:58%""></img><img src=""media/f.png""style = ""width:30px x; height:30px;position:fixed; top:43%;    transform: translate(-50%, -50%);left:40%""></img><img src=""media/j.png""style = ""width:30px; height:30px;position:fixed; top:43%;    transform: translate(-50%, -50%);left:60%""></img>","media/stimuli/inanimate_010_left.png","inanimate","left","single","media/stimuli/inanimate_010_right.png","inanimate","right","single","media/stimuli/inanimate_012_left.png","inanimate","left","single","pose_identity","","","",""
"","","","","","html-keyboard-response","16","122741","0.0-16.0","SS1678233192609","63d44472a72a227e0fef6bdc","6406d7f26dd5b7fc1e3377bd","6407ce60a8697fcd4d97e7a0","1920","969","","1896","","j","","","<img src=""media/stimuli/animate_005_left.png"" class=""coveredImage test"" style = ""width:100px; height:100px; position:fixed; top:10%;    transform: translate(-50%, -50%);left:48%""></img><img src=""media/stimuli/inanimate_004_right.png"" class=""coveredImage test"" style = ""width:100px; height:100px;position:fixed; top:25%;        transform: translate(-50%, -50%);left:38%""></img><img src=""media/stimuli/animate_005_left.png"" class=""coveredImage test"" style = ""width:100px; height:100px;position:fixed; top:25%;        transform: translate(-50%, -50%);left:58%""></img><img src=""media/f.png""style = ""width:30px x; height:30px;position:fixed; top:43%;    transform: translate(-50%, -50%);left:40%""></img><img src=""media/j.png""style = ""width:30px; height:30px;position:fixed; top:43%;    transform: translate(-50%, -50%);left:60%""></img>","media/stimuli/animate_005_left.png","animate","left","single","media/stimuli/inanimate_004_right.png","inanimate","right","single","media/stimuli/animate_005_left.png","animate","left","single","animacy_pose","","","",""
"","","","","","html-keyboard-response","17","123949","0.0-17.0","SS1678233192609","63d44472a72a227e0fef6bdc","6406d7f26dd5b7fc1e3377bd","6407ce60a8697fcd4d97e7a0","1920","969","","1206","","f","","","<img src=""media/stimuli/animate_007_right.png"" class=""coveredImage test"" style = ""width:100px; height:100px; position:fixed; top:10%;    transform: translate(-50%, -50%);left:48%""></img><img src=""media/stimuli/animate_007_right.png"" class=""coveredImage test"" style = ""width:100px; height:100px;position:fixed; top:25%;        transform: translate(-50%, -50%);left:34.5%""></img><img src=""media/stimuli/animate_007_right.png"" class=""coveredImage test"" style = ""width:100px; height:100px;position:fixed; top:25%;        transform: translate(-50%, -50%);left:41.5%""></img><img src=""media/stimuli/inanimate_011_right.png"" class=""coveredImage test"" style = ""width:100px; height:100px;position:fixed; top:25%;        transform: translate(-50%, -50%);left:58%""></img><img src=""media/f.png""style = ""width:30px x; height:30px;position:fixed; top:43%;    transform: translate(-50%, -50%);left:40%""></img><img src=""media/j.png""style = ""width:30px; height:30px;position:fixed; top:43%;    transform: translate(-50%, -50%);left:60%""></img>","media/stimuli/animate_007_right.png","animate","right","single","media/stimuli/animate_007_right.png","animate","right","pair","media/stimuli/inanimate_011_right.png","inanimate","right","single","number_animacy","","","",""
"","","","","","html-keyboard-response","18","125181","0.0-18.0","SS1678233192609","63d44472a72a227e0fef6bdc","6406d7f26dd5b7fc1e3377bd","6407ce60a8697fcd4d97e7a0","1920","969","","1226","","j","","","<img src=""media/stimuli/inanimate_012_right.png"" class=""coveredImage test"" style = ""width:100px; height:100px; position:fixed; top:10%;    transform: translate(-50%, -50%);left:48%""></img><img src=""media/stimuli/inanimate_011_right.png"" class=""coveredImage test"" style = ""width:100px; height:100px;position:fixed; top:25%;        transform: translate(-50%, -50%);left:38%""></img><img src=""media/stimuli/inanimate_012_right.png"" class=""coveredImage test"" style = ""width:100px; height:100px;position:fixed; top:25%;        transform: translate(-50%, -50%);left:54.5%""></img><img src=""media/stimuli/inanimate_012_right.png"" class=""coveredImage test"" style = ""width:100px; height:100px;position:fixed; top:25%;        transform: translate(-50%, -50%);left:61.5%""></img><img src=""media/f.png""style = ""width:30px x; height:30px;position:fixed; top:43%;    transform: translate(-50%, -50%);left:40%""></img><img src=""media/j.png""style = ""width:30px; height:30px;position:fixed; top:43%;    transform: translate(-50%, -50%);left:60%""></img>","media/stimuli/inanimate_012_right.png","inanimate","right","single","media/stimuli/inanimate_011_right.png","inanimate","right","single","media/stimuli/inanimate_012_right.png","inanimate","right","pair","identity_number","","","",""
"","","","","","html-keyboard-response","19","126682","0.0-19.0","SS1678233192609","63d44472a72a227e0fef6bdc","6406d7f26dd5b7fc1e3377bd","6407ce60a8697fcd4d97e7a0","1920","969","","1494","","f","","","<img src=""media/stimuli/animate_011_right.png"" class=""coveredImage test"" style = ""width:100px; height:100px; position:fixed; top:10%;    transform: translate(-50%, -50%);left:48%""></img><img src=""media/stimuli/animate_012_right.png"" class=""coveredImage test"" style = ""width:100px; height:100px;position:fixed; top:25%;        transform: translate(-50%, -50%);left:38%""></img><img src=""media/stimuli/inanimate_007_right.png"" class=""coveredImage test"" style = ""width:100px; height:100px;position:fixed; top:25%;        transform: translate(-50%, -50%);left:58%""></img><img src=""media/f.png""style = ""width:30px x; height:30px;position:fixed; top:43%;    transform: translate(-50%, -50%);left:40%""></img><img src=""media/j.png""style = ""width:30px; height:30px;position:fixed; top:43%;    transform: translate(-50%, -50%);left:60%""></img>","media/stimuli/animate_011_right.png","animate","right","single","media/stimuli/animate_012_right.png","animate","right","single","media/stimuli/inanimate_007_right.png","inanimate","right","single","identity_animacy","","","",""
"","","","","","html-keyboard-response","20","128300","0.0-20.0","SS1678233192609","63d44472a72a227e0fef6bdc","6406d7f26dd5b7fc1e3377bd","6407ce60a8697fcd4d97e7a0","1920","969","","1612",""," ","","","","","","","","","","","","","","","","","","","",""
"","","","","","html-keyboard-response","21","129807","0.0-21.0","SS1678233192609","63d44472a72a227e0fef6bdc","6406d7f26dd5b7fc1e3377bd","6407ce60a8697fcd4d97e7a0","1920","969","","1500","","f","","","<img src=""media/stimuli/animate_007_left.png"" class=""coveredImage test"" style = ""width:100px; height:100px; position:fixed; top:10%;    transform: translate(-50%, -50%);left:48%""></img><img src=""media/stimuli/animate_007_left.png"" class=""coveredImage test"" style = ""width:100px; height:100px;position:fixed; top:25%;        transform: translate(-50%, -50%);left:34.5%""></img><img src=""media/stimuli/animate_007_left.png"" class=""coveredImage test"" style = ""width:100px; height:100px;position:fixed; top:25%;        transform: translate(-50%, -50%);left:41.5%""></img><img src=""media/stimuli/animate_007_right.png"" class=""coveredImage test"" style = ""width:100px; height:100px;position:fixed; top:25%;        transform: translate(-50%, -50%);left:58%""></img><img src=""media/f.png""style = ""width:30px x; height:30px;position:fixed; top:43%;    transform: translate(-50%, -50%);left:40%""></img><img src=""media/j.png""style = ""width:30px; height:30px;position:fixed; top:43%;    transform: translate(-50%, -50%);left:60%""></img>","media/stimuli/animate_007_left.png","animate","left","single","media/stimuli/animate_007_left.png","animate","left","pair","media/stimuli/animate_007_right.png","animate","right","single","number_pose","","","",""
"","","","","","html-keyboard-response","22","131267","0.0-22.0","SS1678233192609","63d44472a72a227e0fef6bdc","6406d7f26dd5b7fc1e3377bd","6407ce60a8697fcd4d97e7a0","1920","969","","1455","","f","","","<img src=""media/stimuli/inanimate_002_left.png"" class=""coveredImage test"" style = ""width:100px; height:100px; position:fixed; top:10%;    transform: translate(-50%, -50%);left:44.5%""></img><img src=""media/stimuli/inanimate_002_left.png"" class=""coveredImage test"" style = ""width:100px; height:100px; position:fixed; top:10%;    transform: translate(-50%, -50%);left:51.5%""></img><img src=""media/stimuli/inanimate_007_left.png"" class=""coveredImage test"" style = ""width:100px; height:100px;position:fixed; top:25%;        transform: translate(-50%, -50%);left:34.5%""></img><img src=""media/stimuli/inanimate_007_left.png"" class=""coveredImage test"" style = ""width:100px; height:100px;position:fixed; top:25%;        transform: translate(-50%, -50%);left:41.5%""></img><img src=""media/stimuli/animate_006_left.png"" class=""coveredImage test"" style = ""width:100px; height:100px;position:fixed; top:25%;        transform: translate(-50%, -50%);left:54.5%""></img><img src=""media/stimuli/animate_006_left.png"" class=""coveredImage test"" style = ""width:100px; height:100px;position:fixed; top:25%;        transform: translate(-50%, -50%);left:61.5%""></img><img src=""media/f.png""style = ""width:30px x; height:30px;position:fixed; top:43%;    transform: translate(-50%, -50%);left:40%""></img><img src=""media/j.png""style = ""width:30px; height:30px;position:fixed; top:43%;    transform: translate(-50%, -50%);left:60%""></img>","media/stimuli/inanimate_002_left.png","inanimate","left","pair","media/stimuli/inanimate_007_left.png","inanimate","left","pair","media/stimuli/animate_006_left.png","animate","left","pair","identity_animacy","","","",""
"","","","","","html-keyboard-response","23","132366","0.0-23.0","SS1678233192609","63d44472a72a227e0fef6bdc","6406d7f26dd5b7fc1e3377bd","6407ce60a8697fcd4d97e7a0","1920","969","","1093","","f","","","<img src=""media/stimuli/animate_008_right.png"" class=""coveredImage test"" style = ""width:100px; height:100px; position:fixed; top:10%;    transform: translate(-50%, -50%);left:48%""></img><img src=""media/stimuli/animate_008_right.png"" class=""coveredImage test"" style = ""width:100px; height:100px;position:fixed; top:25%;        transform: translate(-50%, -50%);left:38%""></img><img src=""media/stimuli/inanimate_006_left.png"" class=""coveredImage test"" style = ""width:100px; height:100px;position:fixed; top:25%;        transform: translate(-50%, -50%);left:58%""></img><img src=""media/f.png""style = ""width:30px x; height:30px;position:fixed; top:43%;    transform: translate(-50%, -50%);left:40%""></img><img src=""media/j.png""style = ""width:30px; height:30px;position:fixed; top:43%;    transform: translate(-50%, -50%);left:60%""></img>","media/stimuli/animate_008_right.png","animate","right","single","media/stimuli/animate_008_right.png","animate","right","single","media/stimuli/inanimate_006_left.png","inanimate","left","single","pose_animacy","","","",""
"","","","","","html-keyboard-response","24","133686","0.0-24.0","SS1678233192609","63d44472a72a227e0fef6bdc","6406d7f26dd5b7fc1e3377bd","6407ce60a8697fcd4d97e7a0","1920","969","","1318","","j","","","<img src=""media/stimuli/animate_008_left.png"" class=""coveredImage test"" style = ""width:100px; height:100px; position:fixed; top:10%;    transform: translate(-50%, -50%);left:48%""></img><img src=""media/stimuli/animate_009_left.png"" class=""coveredImage test"" style = ""width:100px; height:100px;position:fixed; top:25%;        transform: translate(-50%, -50%);left:38%""></img><img src=""media/stimuli/animate_008_left.png"" class=""coveredImage test"" style = ""width:100px; height:100px;position:fixed; top:25%;        transform: translate(-50%, -50%);left:54.5%""></img><img src=""media/stimuli/animate_008_left.png"" class=""coveredImage test"" style = ""width:100px; height:100px;position:fixed; top:25%;        transform: translate(-50%, -50%);left:61.5%""></img><img src=""media/f.png""style = ""width:30px x; height:30px;position:fixed; top:43%;    transform: translate(-50%, -50%);left:40%""></img><img src=""media/j.png""style = ""width:30px; height:30px;position:fixed; top:43%;    transform: translate(-50%, -50%);left:60%""></img>","media/stimuli/animate_008_left.png","animate","left","single","media/stimuli/animate_009_left.png","animate","left","single","media/stimuli/animate_008_left.png","animate","left","pair","identity_number","","","",""
"","","","","","html-keyboard-response","25","135332","0.0-25.0","SS1678233192609","63d44472a72a227e0fef6bdc","6406d7f26dd5b7fc1e3377bd","6407ce60a8697fcd4d97e7a0","1920","969","","1641","","f","","","<img src=""media/stimuli/inanimate_006_left.png"" class=""coveredImage test"" style = ""width:100px; height:100px; position:fixed; top:10%;    transform: translate(-50%, -50%);left:48%""></img><img src=""media/stimuli/inanimate_006_right.png"" class=""coveredImage test"" style = ""width:100px; height:100px;position:fixed; top:25%;        transform: translate(-50%, -50%);left:38%""></img><img src=""media/stimuli/inanimate_010_left.png"" class=""coveredImage test"" style = ""width:100px; height:100px;position:fixed; top:25%;        transform: translate(-50%, -50%);left:58%""></img><img src=""media/f.png""style = ""width:30px x; height:30px;position:fixed; top:43%;    transform: translate(-50%, -50%);left:40%""></img><img src=""media/j.png""style = ""width:30px; height:30px;position:fixed; top:43%;    transform: translate(-50%, -50%);left:60%""></img>","media/stimuli/inanimate_006_left.png","inanimate","left","single","media/stimuli/inanimate_006_right.png","inanimate","right","single","media/stimuli/inanimate_010_left.png","inanimate","left","single","pose_identity","","","",""
"","","","","","html-keyboard-response","26","137699","0.0-26.0","SS1678233192609","63d44472a72a227e0fef6bdc","6406d7f26dd5b7fc1e3377bd","6407ce60a8697fcd4d97e7a0","1920","969","","2360","","f","","","<img src=""media/stimuli/animate_007_left.png"" class=""coveredImage test"" style = ""width:100px; height:100px; position:fixed; top:10%;    transform: translate(-50%, -50%);left:48%""></img><img src=""media/stimuli/animate_007_right.png"" class=""coveredImage test"" style = ""width:100px; height:100px;position:fixed; top:25%;        transform: translate(-50%, -50%);left:38%""></img><img src=""media/stimuli/animate_004_left.png"" class=""coveredImage test"" style = ""width:100px; height:100px;position:fixed; top:25%;        transform: translate(-50%, -50%);left:58%""></img><img src=""media/f.png""style = ""width:30px x; height:30px;position:fixed; top:43%;    transform: translate(-50%, -50%);left:40%""></img><img src=""media/j.png""style = ""width:30px; height:30px;position:fixed; top:43%;    transform: translate(-50%, -50%);left:60%""></img>","media/stimuli/animate_007_left.png","animate","left","single","media/stimuli/animate_007_right.png","animate","right","single","media/stimuli/animate_004_left.png","animate","left","single","pose_identity","","","",""
"","","","","","html-keyboard-response","27","138808","0.0-27.0","SS1678233192609","63d44472a72a227e0fef6bdc","6406d7f26dd5b7fc1e3377bd","6407ce60a8697fcd4d97e7a0","1920","969","","1106","","j","","","<img src=""media/stimuli/animate_004_right.png"" class=""coveredImage test"" style = ""width:100px; height:100px; position:fixed; top:10%;    transform: translate(-50%, -50%);left:48%""></img><img src=""media/stimuli/inanimate_004_right.png"" class=""coveredImage test"" style = ""width:100px; height:100px;position:fixed; top:25%;        transform: translate(-50%, -50%);left:38%""></img><img src=""media/stimuli/animate_004_right.png"" class=""coveredImage test"" style = ""width:100px; height:100px;position:fixed; top:25%;        transform: translate(-50%, -50%);left:54.5%""></img><img src=""media/stimuli/animate_004_right.png"" class=""coveredImage test"" style = ""width:100px; height:100px;position:fixed; top:25%;        transform: translate(-50%, -50%);left:61.5%""></img><img src=""media/f.png""style = ""width:30px x; height:30px;position:fixed; top:43%;    transform: translate(-50%, -50%);left:40%""></img><img src=""media/j.png""style = ""width:30px; height:30px;position:fixed; top:43%;    transform: translate(-50%, -50%);left:60%""></img>","media/stimuli/animate_004_right.png","animate","right","single","media/stimuli/inanimate_004_right.png","inanimate","right","single","media/stimuli/animate_004_right.png","animate","right","pair","animacy_number","","","",""
"","","","","","html-keyboard-response","28","140628","0.0-28.0","SS1678233192609","63d44472a72a227e0fef6bdc","6406d7f26dd5b7fc1e3377bd","6407ce60a8697fcd4d97e7a0","1920","969","","1819","","j","","","<img src=""media/stimuli/animate_009_left.png"" class=""coveredImage test"" style = ""width:100px; height:100px; position:fixed; top:10%;    transform: translate(-50%, -50%);left:48%""></img><img src=""media/stimuli/inanimate_003_left.png"" class=""coveredImage test"" style = ""width:100px; height:100px;position:fixed; top:25%;        transform: translate(-50%, -50%);left:38%""></img><img src=""media/stimuli/animate_007_left.png"" class=""coveredImage test"" style = ""width:100px; height:100px;position:fixed; top:25%;        transform: translate(-50%, -50%);left:58%""></img><img src=""media/f.png""style = ""width:30px x; height:30px;position:fixed; top:43%;    transform: translate(-50%, -50%);left:40%""></img><img src=""media/j.png""style = ""width:30px; height:30px;position:fixed; top:43%;    transform: translate(-50%, -50%);left:60%""></img>","media/stimuli/animate_009_left.png","animate","left","single","media/stimuli/inanimate_003_left.png","inanimate","left","single","media/stimuli/animate_007_left.png","animate","left","single","animacy_identity","","","",""
"","","","","","html-keyboard-response","29","141663","0.0-29.0","SS1678233192609","63d44472a72a227e0fef6bdc","6406d7f26dd5b7fc1e3377bd","6407ce60a8697fcd4d97e7a0","1920","969","","1029","","f","","","<img src=""media/stimuli/inanimate_004_left.png"" class=""coveredImage test"" style = ""width:100px; height:100px; position:fixed; top:10%;    transform: translate(-50%, -50%);left:48%""></img><img src=""media/stimuli/inanimate_004_left.png"" class=""coveredImage test"" style = ""width:100px; height:100px;position:fixed; top:25%;        transform: translate(-50%, -50%);left:38%""></img><img src=""media/stimuli/animate_005_right.png"" class=""coveredImage test"" style = ""width:100px; height:100px;position:fixed; top:25%;        transform: translate(-50%, -50%);left:58%""></img><img src=""media/f.png""style = ""width:30px x; height:30px;position:fixed; top:43%;    transform: translate(-50%, -50%);left:40%""></img><img src=""media/j.png""style = ""width:30px; height:30px;position:fixed; top:43%;    transform: translate(-50%, -50%);left:60%""></img>","media/stimuli/inanimate_004_left.png","inanimate","left","single","media/stimuli/inanimate_004_left.png","inanimate","left","single","media/stimuli/animate_005_right.png","animate","right","single","pose_animacy","","","",""
"","","","","","html-keyboard-response","30","143128","0.0-30.0","SS1678233192609","63d44472a72a227e0fef6bdc","6406d7f26dd5b7fc1e3377bd","6407ce60a8697fcd4d97e7a0","1920","969","","1457","","j","","","<img src=""media/stimuli/inanimate_011_right.png"" class=""coveredImage test"" style = ""width:100px; height:100px; position:fixed; top:10%;    transform: translate(-50%, -50%);left:48%""></img><img src=""media/stimuli/inanimate_011_left.png"" class=""coveredImage test"" style = ""width:100px; height:100px;position:fixed; top:25%;        transform: translate(-50%, -50%);left:38%""></img><img src=""media/stimuli/inanimate_011_right.png"" class=""coveredImage test"" style = ""width:100px; height:100px;position:fixed; top:25%;        transform: translate(-50%, -50%);left:54.5%""></img><img src=""media/stimuli/inanimate_011_right.png"" class=""coveredImage test"" style = ""width:100px; height:100px;position:fixed; top:25%;        transform: translate(-50%, -50%);left:61.5%""></img><img src=""media/f.png""style = ""width:30px x; height:30px;position:fixed; top:43%;    transform: translate(-50%, -50%);left:40%""></img><img src=""media/j.png""style = ""width:30px; height:30px;position:fixed; top:43%;    transform: translate(-50%, -50%);left:60%""></img>","media/stimuli/inanimate_011_right.png","inanimate","right","single","media/stimuli/inanimate_011_left.png","inanimate","left","single","media/stimuli/inanimate_011_right.png","inanimate","right","pair","pose_number","","","",""
"","","","","","html-keyboard-response","31","144447","0.0-31.0","SS1678233192609","63d44472a72a227e0fef6bdc","6406d7f26dd5b7fc1e3377bd","6407ce60a8697fcd4d97e7a0","1920","969","","1311","","f","","","<img src=""media/stimuli/animate_011_right.png"" class=""coveredImage test"" style = ""width:100px; height:100px; position:fixed; top:10%;    transform: translate(-50%, -50%);left:48%""></img><img src=""media/stimuli/animate_011_right.png"" class=""coveredImage test"" style = ""width:100px; height:100px;position:fixed; top:25%;        transform: translate(-50%, -50%);left:34.5%""></img><img src=""media/stimuli/animate_011_right.png"" class=""coveredImage test"" style = ""width:100px; height:100px;position:fixed; top:25%;        transform: translate(-50%, -50%);left:41.5%""></img><img src=""media/stimuli/animate_009_right.png"" class=""coveredImage test"" style = ""width:100px; height:100px;position:fixed; top:25%;        transform: translate(-50%, -50%);left:58%""></img><img src=""media/f.png""style = ""width:30px x; height:30px;position:fixed; top:43%;    transform: translate(-50%, -50%);left:40%""></img><img src=""media/j.png""style = ""width:30px; height:30px;position:fixed; top:43%;    transform: translate(-50%, -50%);left:60%""></img>","media/stimuli/animate_011_right.png","animate","right","single","media/stimuli/animate_011_right.png","animate","right","pair","media/stimuli/animate_009_right.png","animate","right","single","number_identity","","","",""
"","","","","","html-keyboard-response","32","147081","0.0-32.0","SS1678233192609","63d44472a72a227e0fef6bdc","6406d7f26dd5b7fc1e3377bd","6407ce60a8697fcd4d97e7a0","1920","969","","2625","","j","","","<img src=""media/stimuli/animate_005_right.png"" class=""coveredImage test"" style = ""width:100px; height:100px; position:fixed; top:10%;    transform: translate(-50%, -50%);left:44.5%""></img><img src=""media/stimuli/animate_005_right.png"" class=""coveredImage test"" style = ""width:100px; height:100px; position:fixed; top:10%;    transform: translate(-50%, -50%);left:51.5%""></img><img src=""media/stimuli/inanimate_006_right.png"" class=""coveredImage test"" style = ""width:100px; height:100px;position:fixed; top:25%;        transform: translate(-50%, -50%);left:34.5%""></img><img src=""media/stimuli/inanimate_006_right.png"" class=""coveredImage test"" style = ""width:100px; height:100px;position:fixed; top:25%;        transform: translate(-50%, -50%);left:41.5%""></img><img src=""media/stimuli/animate_005_right.png"" class=""coveredImage test"" style = ""width:100px; height:100px;position:fixed; top:25%;        transform: translate(-50%, -50%);left:58%""></img><img src=""media/f.png""style = ""width:30px x; height:30px;position:fixed; top:43%;    transform: translate(-50%, -50%);left:40%""></img><img src=""media/j.png""style = ""width:30px; height:30px;position:fixed; top:43%;    transform: translate(-50%, -50%);left:60%""></img>","media/stimuli/animate_005_right.png","animate","right","pair","media/stimuli/inanimate_006_right.png","inanimate","right","pair","media/stimuli/animate_005_right.png","animate","right","single","animacy_number","","","",""
"","","","","","html-keyboard-response","33","148207","0.0-33.0","SS1678233192609","63d44472a72a227e0fef6bdc","6406d7f26dd5b7fc1e3377bd","6407ce60a8697fcd4d97e7a0","1920","969","","1120",""," ","","","","","","","","","","","","","","","","","","","",""
"","","","","","survey-likert","34","158998","0.0-34.0","SS1678233192609","63d44472a72a227e0fef6bdc","6406d7f26dd5b7fc1e3377bd","6407ce60a8697fcd4d97e7a0","1920","969","","10784","","{""Q0"":3}","[0]","complexity","","","","","","","","","","","","","","","media/stimuli/inanimate_010_left.png","inanimate","pair","left"
"","","","","","survey-likert","35","161720","0.0-35.0","SS1678233192609","63d44472a72a227e0fef6bdc","6406d7f26dd5b7fc1e3377bd","6407ce60a8697fcd4d97e7a0","1920","969","","2718","","{""Q0"":2}","[0]","complexity","","","","","","","","","","","","","","","media/stimuli/inanimate_008_right.png","inanimate","single","right"
"","","","","","survey-likert","36","164183","0.0-36.0","SS1678233192609","63d44472a72a227e0fef6bdc","6406d7f26dd5b7fc1e3377bd","6407ce60a8697fcd4d97e7a0","1920","969","","2461","","{""Q0"":1}","[0]","complexity","","","","","","","","","","","","","","","media/stimuli/inanimate_003_left.png","inanimate","single","left"
"","","","","","survey-likert","37","166878","0.0-37.0","SS1678233192609","63d44472a72a227e0fef6bdc","6406d7f26dd5b7fc1e3377bd","6407ce60a8697fcd4d97e7a0","1920","969","","2690","","{""Q0"":4}","[0]","complexity","","","","","","","","","","","","","","","media/stimuli/animate_008_left.png","animate","single","left"
"","","","","","survey-likert","38","172290","0.0-38.0","SS1678233192609","63d44472a72a227e0fef6bdc","6406d7f26dd5b7fc1e3377bd","6407ce60a8697fcd4d97e7a0","1920","969","","5409","","{""Q0"":4}","[0]","complexity","","","","","","","","","","","","","","","media/stimuli/inanimate_008_left.png","inanimate","pair","left"
"","","","","","survey-likert","39","175429","0.0-39.0","SS1678233192609","63d44472a72a227e0fef6bdc","6406d7f26dd5b7fc1e3377bd","6407ce60a8697fcd4d97e7a0","1920","969","","3136","","{""Q0"":5}","[0]","complexity","","","","","","","","","","","","","","","media/stimuli/animate_002_left.png","animate","pair","left"
"","","","","","survey-likert","40","178087","0.0-40.0","SS1678233192609","63d44472a72a227e0fef6bdc","6406d7f26dd5b7fc1e3377bd","6407ce60a8697fcd4d97e7a0","1920","969","","2655","","{""Q0"":5}","[0]","complexity","","","","","","","","","","","","","","","media/stimuli/animate_002_right.png","animate","pair","right"
"","","","","","survey-likert","41","182499","0.0-41.0","SS1678233192609","63d44472a72a227e0fef6bdc","6406d7f26dd5b7fc1e3377bd","6407ce60a8697fcd4d97e7a0","1920","969","","4408","","{""Q0"":4}","[0]","complexity","","","","","","","","","","","","","","","media/stimuli/inanimate_011_left.png","inanimate","pair","left"
"","","","","","survey-likert","42","184896","0.0-42.0","SS1678233192609","63d44472a72a227e0fef6bdc","6406d7f26dd5b7fc1e3377bd","6407ce60a8697fcd4d97e7a0","1920","969","","2394","","{""Q0"":4}","[0]","complexity","","","","","","","","","","","","","","","media/stimuli/animate_001_right.png","animate","single","right"
"","","","","","survey-likert","43","187000","0.0-43.0","SS1678233192609","63d44472a72a227e0fef6bdc","6406d7f26dd5b7fc1e3377bd","6407ce60a8697fcd4d97e7a0","1920","969","","2100","","{""Q0"":5}","[0]","complexity","","","","","","","","","","","","","","","media/stimuli/animate_004_right.png","animate","pair","right"
"","","","","","survey-likert","44","189391","0.0-44.0","SS1678233192609","63d44472a72a227e0fef6bdc","6406d7f26dd5b7fc1e3377bd","6407ce60a8697fcd4d97e7a0","1920","969","","2387","","{""Q0"":3}","[0]","complexity","","","","","","","","","","","","","","","media/stimuli/inanimate_012_right.png","inanimate","pair","right"
"","","","","","survey-likert","45","192935","0.0-45.0","SS1678233192609","63d44472a72a227e0fef6bdc","6406d7f26dd5b7fc1e3377bd","6407ce60a8697fcd4d97e7a0","1920","969","","3541","","{""Q0"":1}","[0]","complexity","","","","","","","","","","","","","","","media/stimuli/inanimate_004_right.png","inanimate","single","right"
"","","","","","html-keyboard-response","46","194694","0.0-46.0","SS1678233192609","63d44472a72a227e0fef6bdc","6406d7f26dd5b7fc1e3377bd","6407ce60a8697fcd4d97e7a0","1920","969","","1755",""," ","","","","","","","","","","","","","","","","","","","",""
"","","","","","html-keyboard-response","47","196277","0.0-47.0","SS1678233192609","63d44472a72a227e0fef6bdc","6406d7f26dd5b7fc1e3377bd","6407ce60a8697fcd4d97e7a0","1920","969","","1575","","f","","","<img src=""media/stimuli/animate_007_right.png"" class=""coveredImage test"" style = ""width:100px; height:100px; position:fixed; top:10%;    transform: translate(-50%, -50%);left:48%""></img><img src=""media/stimuli/animate_007_right.png"" class=""coveredImage test"" style = ""width:100px; height:100px;position:fixed; top:25%;        transform: translate(-50%, -50%);left:34.5%""></img><img src=""media/stimuli/animate_007_right.png"" class=""coveredImage test"" style = ""width:100px; height:100px;position:fixed; top:25%;        transform: translate(-50%, -50%);left:41.5%""></img><img src=""media/stimuli/inanimate_003_right.png"" class=""coveredImage test"" style = ""width:100px; height:100px;position:fixed; top:25%;        transform: translate(-50%, -50%);left:58%""></img><img src=""media/f.png""style = ""width:30px x; height:30px;position:fixed; top:43%;    transform: translate(-50%, -50%);left:40%""></img><img src=""media/j.png""style = ""width:30px; height:30px;position:fixed; top:43%;    transform: translate(-50%, -50%);left:60%""></img>","media/stimuli/animate_007_right.png","animate","right","single","media/stimuli/animate_007_right.png","animate","right","pair","media/stimuli/inanimate_003_right.png","inanimate","right","single","number_animacy","","","",""
"","","","","","html-keyboard-response","48","197665","0.0-48.0","SS1678233192609","63d44472a72a227e0fef6bdc","6406d7f26dd5b7fc1e3377bd","6407ce60a8697fcd4d97e7a0","1920","969","","1381","","f","","","<img src=""media/stimuli/animate_009_right.png"" class=""coveredImage test"" style = ""width:100px; height:100px; position:fixed; top:10%;    transform: translate(-50%, -50%);left:48%""></img><img src=""media/stimuli/animate_009_right.png"" class=""coveredImage test"" style = ""width:100px; height:100px;position:fixed; top:25%;        transform: translate(-50%, -50%);left:38%""></img><img src=""media/stimuli/animate_009_left.png"" class=""coveredImage test"" style = ""width:100px; height:100px;position:fixed; top:25%;        transform: translate(-50%, -50%);left:58%""></img><img src=""media/f.png""style = ""width:30px x; height:30px;position:fixed; top:43%;    transform: translate(-50%, -50%);left:40%""></img><img src=""media/j.png""style = ""width:30px; height:30px;position:fixed; top:43%;    transform: translate(-50%, -50%);left:60%""></img>","media/stimuli/animate_009_right.png","animate","right","single","media/stimuli/animate_009_right.png","animate","right","single","media/stimuli/animate_009_left.png","animate","left","single","filler_pose","","","",""
"","","","","","html-keyboard-response","49","199259","0.0-49.0","SS1678233192609","63d44472a72a227e0fef6bdc","6406d7f26dd5b7fc1e3377bd","6407ce60a8697fcd4d97e7a0","1920","969","","1590","","f","","","<img src=""media/stimuli/animate_005_right.png"" class=""coveredImage test"" style = ""width:100px; height:100px; position:fixed; top:10%;    transform: translate(-50%, -50%);left:44.5%""></img><img src=""media/stimuli/animate_005_right.png"" class=""coveredImage test"" style = ""width:100px; height:100px; position:fixed; top:10%;    transform: translate(-50%, -50%);left:51.5%""></img><img src=""media/stimuli/animate_005_right.png"" class=""coveredImage test"" style = ""width:100px; height:100px;position:fixed; top:25%;        transform: translate(-50%, -50%);left:38%""></img><img src=""media/stimuli/animate_005_left.png"" class=""coveredImage test"" style = ""width:100px; height:100px;position:fixed; top:25%;        transform: translate(-50%, -50%);left:54.5%""></img><img src=""media/stimuli/animate_005_left.png"" class=""coveredImage test"" style = ""width:100px; height:100px;position:fixed; top:25%;        transform: translate(-50%, -50%);left:61.5%""></img><img src=""media/f.png""style = ""width:30px x; height:30px;position:fixed; top:43%;    transform: translate(-50%, -50%);left:40%""></img><img src=""media/j.png""style = ""width:30px; height:30px;position:fixed; top:43%;    transform: translate(-50%, -50%);left:60%""></img>","media/stimuli/animate_005_right.png","animate","right","pair","media/stimuli/animate_005_right.png","animate","right","single","media/stimuli/animate_005_left.png","animate","left","pair","number_pose","","","",""
"","","","","","html-keyboard-response","50","200664","0.0-50.0","SS1678233192609","63d44472a72a227e0fef6bdc","6406d7f26dd5b7fc1e3377bd","6407ce60a8697fcd4d97e7a0","1920","969","","1399","","j","","","<img src=""media/stimuli/animate_002_right.png"" class=""coveredImage test"" style = ""width:100px; height:100px; position:fixed; top:10%;    transform: translate(-50%, -50%);left:44.5%""></img><img src=""media/stimuli/animate_002_right.png"" class=""coveredImage test"" style = ""width:100px; height:100px; position:fixed; top:10%;    transform: translate(-50%, -50%);left:51.5%""></img><img src=""media/stimuli/inanimate_005_right.png"" class=""coveredImage test"" style = ""width:100px; height:100px;position:fixed; top:25%;        transform: translate(-50%, -50%);left:34.5%""></img><img src=""media/stimuli/inanimate_005_right.png"" class=""coveredImage test"" style = ""width:100px; height:100px;position:fixed; top:25%;        transform: translate(-50%, -50%);left:41.5%""></img><img src=""media/stimuli/animate_002_right.png"" class=""coveredImage test"" style = ""width:100px; height:100px;position:fixed; top:25%;        transform: translate(-50%, -50%);left:58%""></img><img src=""media/f.png""style = ""width:30px x; height:30px;position:fixed; top:43%;    transform: translate(-50%, -50%);left:40%""></img><img src=""media/j.png""style = ""width:30px; height:30px;position:fixed; top:43%;    transform: translate(-50%, -50%);left:60%""></img>","media/stimuli/animate_002_right.png","animate","right","pair","media/stimuli/inanimate_005_right.png","inanimate","right","pair","media/stimuli/animate_002_right.png","animate","right","single","animacy_number","","","",""
"","","","","","html-keyboard-response","51","202672","0.0-51.0","SS1678233192609","63d44472a72a227e0fef6bdc","6406d7f26dd5b7fc1e3377bd","6407ce60a8697fcd4d97e7a0","1920","969","","2004","","f","","","<img src=""media/stimuli/animate_012_right.png"" class=""coveredImage test"" style = ""width:100px; height:100px; position:fixed; top:10%;    transform: translate(-50%, -50%);left:48%""></img><img src=""media/stimuli/animate_012_left.png"" class=""coveredImage test"" style = ""width:100px; height:100px;position:fixed; top:25%;        transform: translate(-50%, -50%);left:38%""></img><img src=""media/stimuli/animate_005_right.png"" class=""coveredImage test"" style = ""width:100px; height:100px;position:fixed; top:25%;        transform: translate(-50%, -50%);left:58%""></img><img src=""media/f.png""style = ""width:30px x; height:30px;position:fixed; top:43%;    transform: translate(-50%, -50%);left:40%""></img><img src=""media/j.png""style = ""width:30px; height:30px;position:fixed; top:43%;    transform: translate(-50%, -50%);left:60%""></img>","media/stimuli/animate_012_right.png","animate","right","single","media/stimuli/animate_012_left.png","animate","left","single","media/stimuli/animate_005_right.png","animate","right","single","pose_identity","","","",""
"","","","","","html-keyboard-response","52","203728","0.0-52.0","SS1678233192609","63d44472a72a227e0fef6bdc","6406d7f26dd5b7fc1e3377bd","6407ce60a8697fcd4d97e7a0","1920","969","","1046","","f","","","<img src=""media/stimuli/inanimate_003_left.png"" class=""coveredImage test"" style = ""width:100px; height:100px; position:fixed; top:10%;    transform: translate(-50%, -50%);left:44.5%""></img><img src=""media/stimuli/inanimate_003_left.png"" class=""coveredImage test"" style = ""width:100px; height:100px; position:fixed; top:10%;    transform: translate(-50%, -50%);left:51.5%""></img><img src=""media/stimuli/inanimate_003_left.png"" class=""coveredImage test"" style = ""width:100px; height:100px;position:fixed; top:25%;        transform: translate(-50%, -50%);left:38%""></img><img src=""media/stimuli/inanimate_008_left.png"" class=""coveredImage test"" style = ""width:100px; height:100px;position:fixed; top:25%;        transform: translate(-50%, -50%);left:54.5%""></img><img src=""media/stimuli/inanimate_008_left.png"" class=""coveredImage test"" style = ""width:100px; height:100px;position:fixed; top:25%;        transform: translate(-50%, -50%);left:61.5%""></img><img src=""media/f.png""style = ""width:30px x; height:30px;position:fixed; top:43%;    transform: translate(-50%, -50%);left:40%""></img><img src=""media/j.png""style = ""width:30px; height:30px;position:fixed; top:43%;    transform: translate(-50%, -50%);left:60%""></img>","media/stimuli/inanimate_003_left.png","inanimate","left","pair","media/stimuli/inanimate_003_left.png","inanimate","left","single","media/stimuli/inanimate_008_left.png","inanimate","left","pair","number_identity","","","",""
"","","","","","html-keyboard-response","53","204697","0.0-53.0","SS1678233192609","63d44472a72a227e0fef6bdc","6406d7f26dd5b7fc1e3377bd","6407ce60a8697fcd4d97e7a0","1920","969","","958","","f","","","<img src=""media/stimuli/inanimate_009_right.png"" class=""coveredImage test"" style = ""width:100px; height:100px; position:fixed; top:10%;    transform: translate(-50%, -50%);left:48%""></img><img src=""media/stimuli/inanimate_009_right.png"" class=""coveredImage test"" style = ""width:100px; height:100px;position:fixed; top:25%;        transform: translate(-50%, -50%);left:34.5%""></img><img src=""media/stimuli/inanimate_009_right.png"" class=""coveredImage test"" style = ""width:100px; height:100px;position:fixed; top:25%;        transform: translate(-50%, -50%);left:41.5%""></img><img src=""media/stimuli/inanimate_010_right.png"" class=""coveredImage test"" style = ""width:100px; height:100px;position:fixed; top:25%;        transform: translate(-50%, -50%);left:58%""></img><img src=""media/f.png""style = ""width:30px x; height:30px;position:fixed; top:43%;    transform: translate(-50%, -50%);left:40%""></img><img src=""media/j.png""style = ""width:30px; height:30px;position:fixed; top:43%;    transform: translate(-50%, -50%);left:60%""></img>","media/stimuli/inanimate_009_right.png","inanimate","right","single","media/stimuli/inanimate_009_right.png","inanimate","right","pair","media/stimuli/inanimate_010_right.png","inanimate","right","single","number_identity","","","",""
"","","","","","html-keyboard-response","54","206948","0.0-54.0","SS1678233192609","63d44472a72a227e0fef6bdc","6406d7f26dd5b7fc1e3377bd","6407ce60a8697fcd4d97e7a0","1920","969","","2248","","f","","","<img src=""media/stimuli/animate_004_left.png"" class=""coveredImage test"" style = ""width:100px; height:100px; position:fixed; top:10%;    transform: translate(-50%, -50%);left:44.5%""></img><img src=""media/stimuli/animate_004_left.png"" class=""coveredImage test"" style = ""width:100px; height:100px; position:fixed; top:10%;    transform: translate(-50%, -50%);left:51.5%""></img><img src=""media/stimuli/animate_012_left.png"" class=""coveredImage test"" style = ""width:100px; height:100px;position:fixed; top:25%;        transform: translate(-50%, -50%);left:34.5%""></img><img src=""media/stimuli/animate_012_left.png"" class=""coveredImage test"" style = ""width:100px; height:100px;position:fixed; top:25%;        transform: translate(-50%, -50%);left:41.5%""></img><img src=""media/stimuli/inanimate_006_left.png"" class=""coveredImage test"" style = ""width:100px; height:100px;position:fixed; top:25%;        transform: translate(-50%, -50%);left:54.5%""></img><img src=""media/stimuli/inanimate_006_left.png"" class=""coveredImage test"" style = ""width:100px; height:100px;position:fixed; top:25%;        transform: translate(-50%, -50%);left:61.5%""></img><img src=""media/f.png""style = ""width:30px x; height:30px;position:fixed; top:43%;    transform: translate(-50%, -50%);left:40%""></img><img src=""media/j.png""style = ""width:30px; height:30px;position:fixed; top:43%;    transform: translate(-50%, -50%);left:60%""></img>","media/stimuli/animate_004_left.png","animate","left","pair","media/stimuli/animate_012_left.png","animate","left","pair","media/stimuli/inanimate_006_left.png","inanimate","left","pair","identity_animacy","","","",""
"","","","","","html-keyboard-response","55","207914","0.0-55.0","SS1678233192609","63d44472a72a227e0fef6bdc","6406d7f26dd5b7fc1e3377bd","6407ce60a8697fcd4d97e7a0","1920","969","","956","","j","","","<img src=""media/stimuli/inanimate_012_left.png"" class=""coveredImage test"" style = ""width:100px; height:100px; position:fixed; top:10%;    transform: translate(-50%, -50%);left:44.5%""></img><img src=""media/stimuli/inanimate_012_left.png"" class=""coveredImage test"" style = ""width:100px; height:100px; position:fixed; top:10%;    transform: translate(-50%, -50%);left:51.5%""></img><img src=""media/stimuli/animate_002_left.png"" class=""coveredImage test"" style = ""width:100px; height:100px;position:fixed; top:25%;        transform: translate(-50%, -50%);left:34.5%""></img><img src=""media/stimuli/animate_002_left.png"" class=""coveredImage test"" style = ""width:100px; height:100px;position:fixed; top:25%;        transform: translate(-50%, -50%);left:41.5%""></img><img src=""media/stimuli/inanimate_012_left.png"" class=""coveredImage test"" style = ""width:100px; height:100px;position:fixed; top:25%;        transform: translate(-50%, -50%);left:58%""></img><img src=""media/f.png""style = ""width:30px x; height:30px;position:fixed; top:43%;    transform: translate(-50%, -50%);left:40%""></img><img src=""media/j.png""style = ""width:30px; height:30px;position:fixed; top:43%;    transform: translate(-50%, -50%);left:60%""></img>","media/stimuli/inanimate_012_left.png","inanimate","left","pair","media/stimuli/animate_002_left.png","animate","left","pair","media/stimuli/inanimate_012_left.png","inanimate","left","single","animacy_number","","","",""
"","","","","","html-keyboard-response","56","209012","0.0-56.0","SS1678233192609","63d44472a72a227e0fef6bdc","6406d7f26dd5b7fc1e3377bd","6407ce60a8697fcd4d97e7a0","1920","969","","1093","","j","","","<img src=""media/stimuli/animate_004_left.png"" class=""coveredImage test"" style = ""width:100px; height:100px; position:fixed; top:10%;    transform: translate(-50%, -50%);left:48%""></img><img src=""media/stimuli/animate_010_left.png"" class=""coveredImage test"" style = ""width:100px; height:100px;position:fixed; top:25%;        transform: translate(-50%, -50%);left:38%""></img><img src=""media/stimuli/animate_004_left.png"" class=""coveredImage test"" style = ""width:100px; height:100px;position:fixed; top:25%;        transform: translate(-50%, -50%);left:54.5%""></img><img src=""media/stimuli/animate_004_left.png"" class=""coveredImage test"" style = ""width:100px; height:100px;position:fixed; top:25%;        transform: translate(-50%, -50%);left:61.5%""></img><img src=""media/f.png""style = ""width:30px x; height:30px;position:fixed; top:43%;    transform: translate(-50%, -50%);left:40%""></img><img src=""media/j.png""style = ""width:30px; height:30px;position:fixed; top:43%;    transform: translate(-50%, -50%);left:60%""></img>","media/stimuli/animate_004_left.png","animate","left","single","media/stimuli/animate_010_left.png","animate","left","single","media/stimuli/animate_004_left.png","animate","left","pair","identity_number","","","",""
"","","","","","html-keyboard-response","57","210063","0.0-57.0","SS1678233192609","63d44472a72a227e0fef6bdc","6406d7f26dd5b7fc1e3377bd","6407ce60a8697fcd4d97e7a0","1920","969","","1047","","j","","","<img src=""media/stimuli/animate_006_left.png"" class=""coveredImage test"" style = ""width:100px; height:100px; position:fixed; top:10%;    transform: translate(-50%, -50%);left:48%""></img><img src=""media/stimuli/animate_011_left.png"" class=""coveredImage test"" style = ""width:100px; height:100px;position:fixed; top:25%;        transform: translate(-50%, -50%);left:38%""></img><img src=""media/stimuli/animate_006_left.png"" class=""coveredImage test"" style = ""width:100px; height:100px;position:fixed; top:25%;        transform: translate(-50%, -50%);left:54.5%""></img><img src=""media/stimuli/animate_006_left.png"" class=""coveredImage test"" style = ""width:100px; height:100px;position:fixed; top:25%;        transform: translate(-50%, -50%);left:61.5%""></img><img src=""media/f.png""style = ""width:30px x; height:30px;position:fixed; top:43%;    transform: translate(-50%, -50%);left:40%""></img><img src=""media/j.png""style = ""width:30px; height:30px;position:fixed; top:43%;    transform: translate(-50%, -50%);left:60%""></img>","media/stimuli/animate_006_left.png","animate","left","single","media/stimuli/animate_011_left.png","animate","left","single","media/stimuli/animate_006_left.png","animate","left","pair","identity_number","","","",""
"","","","","","html-keyboard-response","58","212216","0.0-58.0","SS1678233192609","63d44472a72a227e0fef6bdc","6406d7f26dd5b7fc1e3377bd","6407ce60a8697fcd4d97e7a0","1920","969","","2143","","j","","","<img src=""media/stimuli/animate_008_left.png"" class=""coveredImage test"" style = ""width:100px; height:100px; position:fixed; top:10%;    transform: translate(-50%, -50%);left:44.5%""></img><img src=""media/stimuli/animate_008_left.png"" class=""coveredImage test"" style = ""width:100px; height:100px; position:fixed; top:10%;    transform: translate(-50%, -50%);left:51.5%""></img><img src=""media/stimuli/inanimate_002_left.png"" class=""coveredImage test"" style = ""width:100px; height:100px;position:fixed; top:25%;        transform: translate(-50%, -50%);left:34.5%""></img><img src=""media/stimuli/inanimate_002_left.png"" class=""coveredImage test"" style = ""width:100px; height:100px;position:fixed; top:25%;        transform: translate(-50%, -50%);left:41.5%""></img><img src=""media/stimuli/animate_004_left.png"" class=""coveredImage test"" style = ""width:100px; height:100px;position:fixed; top:25%;        transform: translate(-50%, -50%);left:54.5%""></img><img src=""media/stimuli/animate_004_left.png"" class=""coveredImage test"" style = ""width:100px; height:100px;position:fixed; top:25%;        transform: translate(-50%, -50%);left:61.5%""></img><img src=""media/f.png""style = ""width:30px x; height:30px;position:fixed; top:43%;    transform: translate(-50%, -50%);left:40%""></img><img src=""media/j.png""style = ""width:30px; height:30px;position:fixed; top:43%;    transform: translate(-50%, -50%);left:60%""></img>","media/stimuli/animate_008_left.png","animate","left","pair","media/stimuli/inanimate_002_left.png","inanimate","left","pair","media/stimuli/animate_004_left.png","animate","left","pair","animacy_identity","","","",""
"","","","","","html-keyboard-response","59","213265","0.0-59.0","SS1678233192609","63d44472a72a227e0fef6bdc","6406d7f26dd5b7fc1e3377bd","6407ce60a8697fcd4d97e7a0","1920","969","","1040",""," ","","","","","","","","","","","","","","","","","","","",""
"","","","","","survey-likert","60","220078","0.0-60.0","SS1678233192609","63d44472a72a227e0fef6bdc","6406d7f26dd5b7fc1e3377bd","6407ce60a8697fcd4d97e7a0","1920","969","","6803","","{""Q0"":5}","[0]","complexity","","","","","","","","","","","","","","","media/stimuli/animate_007_right.png","animate","pair","right"
"","","","","","survey-likert","61","222982","0.0-61.0","SS1678233192609","63d44472a72a227e0fef6bdc","6406d7f26dd5b7fc1e3377bd","6407ce60a8697fcd4d97e7a0","1920","969","","2901","","{""Q0"":3}","[0]","complexity","","","","","","","","","","","","","","","media/stimuli/inanimate_004_left.png","inanimate","pair","left"
"","","","","","survey-likert","62","225017","0.0-62.0","SS1678233192609","63d44472a72a227e0fef6bdc","6406d7f26dd5b7fc1e3377bd","6407ce60a8697fcd4d97e7a0","1920","969","","2031","","{""Q0"":1}","[0]","complexity","","","","","","","","","","","","","","","media/stimuli/inanimate_001_right.png","inanimate","single","right"
"","","","","","survey-likert","63","227538","0.0-63.0","SS1678233192609","63d44472a72a227e0fef6bdc","6406d7f26dd5b7fc1e3377bd","6407ce60a8697fcd4d97e7a0","1920","969","","2517","","{""Q0"":5}","[0]","complexity","","","","","","","","","","","","","","","media/stimuli/animate_006_right.png","animate","pair","right"
"","","","","","survey-likert","64","229988","0.0-64.0","SS1678233192609","63d44472a72a227e0fef6bdc","6406d7f26dd5b7fc1e3377bd","6407ce60a8697fcd4d97e7a0","1920","969","","2446","","{""Q0"":4}","[0]","complexity","","","","","","","","","","","","","","","media/stimuli/inanimate_006_left.png","inanimate","single","left"
"","","","","","survey-likert","65","232397","0.0-65.0","SS1678233192609","63d44472a72a227e0fef6bdc","6406d7f26dd5b7fc1e3377bd","6407ce60a8697fcd4d97e7a0","1920","969","","2405","","{""Q0"":5}","[0]","complexity","","","","","","","","","","","","","","","media/stimuli/animate_004_left.png","animate","pair","left"
"","","","","","survey-likert","66","234278","0.0-66.0","SS1678233192609","63d44472a72a227e0fef6bdc","6406d7f26dd5b7fc1e3377bd","6407ce60a8697fcd4d97e7a0","1920","969","","1877","","{""Q0"":1}","[0]","complexity","","","","","","","","","","","","","","","media/stimuli/inanimate_012_left.png","inanimate","single","left"
"","","","","","survey-likert","67","236077","0.0-67.0","SS1678233192609","63d44472a72a227e0fef6bdc","6406d7f26dd5b7fc1e3377bd","6407ce60a8697fcd4d97e7a0","1920","969","","1795","","{""Q0"":1}","[0]","complexity","","","","","","","","","","","","","","","media/stimuli/inanimate_012_right.png","inanimate","single","right"
"","","","","","survey-likert","68","238353","0.0-68.0","SS1678233192609","63d44472a72a227e0fef6bdc","6406d7f26dd5b7fc1e3377bd","6407ce60a8697fcd4d97e7a0","1920","969","","2272","","{""Q0"":4}","[0]","complexity","","","","","","","","","","","","","","","media/stimuli/animate_007_left.png","animate","single","left"
"","","","","","survey-likert","69","240052","0.0-69.0","SS1678233192609","63d44472a72a227e0fef6bdc","6406d7f26dd5b7fc1e3377bd","6407ce60a8697fcd4d97e7a0","1920","969","","1696","","{""Q0"":1}","[0]","complexity","","","","","","","","","","","","","","","media/stimuli/inanimate_003_right.png","inanimate","single","right"
"","","","","","survey-likert","70","242346","0.0-70.0","SS1678233192609","63d44472a72a227e0fef6bdc","6406d7f26dd5b7fc1e3377bd","6407ce60a8697fcd4d97e7a0","1920","969","","2289","","{""Q0"":4}","[0]","complexity","","","","","","","","","","","","","","","media/stimuli/animate_004_right.png","animate","single","right"
"","","","","","survey-likert","71","244769","0.0-71.0","SS1678233192609","63d44472a72a227e0fef6bdc","6406d7f26dd5b7fc1e3377bd","6407ce60a8697fcd4d97e7a0","1920","969","","2419","","{""Q0"":4}","[0]","complexity","","","","","","","","","","","","","","","media/stimuli/animate_005_left.png","animate","single","left"
"","","","","","html-keyboard-response","72","246576","0.0-72.0","SS1678233192609","63d44472a72a227e0fef6bdc","6406d7f26dd5b7fc1e3377bd","6407ce60a8697fcd4d97e7a0","1920","969","","1803",""," ","","","","","","","","","","","","","","","","","","","",""
"","","","","","survey-likert","73","249411","0.0-73.0","SS1678233192609","63d44472a72a227e0fef6bdc","6406d7f26dd5b7fc1e3377bd","6407ce60a8697fcd4d97e7a0","1920","969","","2825","","{""Q0"":5}","[0]","complexity","","","","","","","","","","","","","","","media/stimuli/animate_006_left.png","animate","pair","left"
"","","","","","survey-likert","74","251469","0.0-74.0","SS1678233192609","63d44472a72a227e0fef6bdc","6406d7f26dd5b7fc1e3377bd","6407ce60a8697fcd4d97e7a0","1920","969","","2054","","{""Q0"":5}","[0]","complexity","","","","","","","","","","","","","","","media/stimuli/animate_012_right.png","animate","pair","right"
"","","","","","survey-likert","75","253290","0.0-75.0","SS1678233192609","63d44472a72a227e0fef6bdc","6406d7f26dd5b7fc1e3377bd","6407ce60a8697fcd4d97e7a0","1920","969","","1817","","{""Q0"":5}","[0]","complexity","","","","","","","","","","","","","","","media/stimuli/animate_011_left.png","animate","pair","left"
"","","","","","survey-likert","76","255145","0.0-76.0","SS1678233192609","63d44472a72a227e0fef6bdc","6406d7f26dd5b7fc1e3377bd","6407ce60a8697fcd4d97e7a0","1920","969","","1851","","{""Q0"":2}","[0]","complexity","","","","","","","","","","","","","","","media/stimuli/inanimate_005_right.png","inanimate","single","right"
"","","","","","survey-likert","77","258314","0.0-77.0","SS1678233192609","63d44472a72a227e0fef6bdc","6406d7f26dd5b7fc1e3377bd","6407ce60a8697fcd4d97e7a0","1920","969","","3165","","{""Q0"":3}","[0]","complexity","","","","","","","","","","","","","","","media/stimuli/inanimate_003_left.png","inanimate","pair","left"
"","","","","","survey-likert","78","260265","0.0-78.0","SS1678233192609","63d44472a72a227e0fef6bdc","6406d7f26dd5b7fc1e3377bd","6407ce60a8697fcd4d97e7a0","1920","969","","1947","","{""Q0"":4}","[0]","complexity","","","","","","","","","","","","","","","media/stimuli/animate_012_left.png","animate","single","left"
"","","","","","survey-likert","79","262949","0.0-79.0","SS1678233192609","63d44472a72a227e0fef6bdc","6406d7f26dd5b7fc1e3377bd","6407ce60a8697fcd4d97e7a0","1920","969","","2680","","{""Q0"":4}","[0]","complexity","","","","","","","","","","","","","","","media/stimuli/animate_002_left.png","animate","single","left"
"","","","","","survey-likert","80","264563","0.0-80.0","SS1678233192609","63d44472a72a227e0fef6bdc","6406d7f26dd5b7fc1e3377bd","6407ce60a8697fcd4d97e7a0","1920","969","","1610","","{""Q0"":4}","[0]","complexity","","","","","","","","","","","","","","","media/stimuli/animate_009_left.png","animate","single","left"
"","","","","","survey-likert","81","265985","0.0-81.0","SS1678233192609","63d44472a72a227e0fef6bdc","6406d7f26dd5b7fc1e3377bd","6407ce60a8697fcd4d97e7a0","1920","969","","1416","","{""Q0"":4}","[0]","complexity","","","","","","","","","","","","","","","media/stimuli/animate_002_right.png","animate","single","right"
"","","","","","survey-likert","82","267736","0.0-82.0","SS1678233192609","63d44472a72a227e0fef6bdc","6406d7f26dd5b7fc1e3377bd","6407ce60a8697fcd4d97e7a0","1920","969","","1747","","{""Q0"":5}","[0]","complexity","","","","","","","","","","","","","","","media/stimuli/animate_005_right.png","animate","pair","right"
"","","","","","survey-likert","83","269365","0.0-83.0","SS1678233192609","63d44472a72a227e0fef6bdc","6406d7f26dd5b7fc1e3377bd","6407ce60a8697fcd4d97e7a0","1920","969","","1626","","{""Q0"":4}","[0]","complexity","","","","","","","","","","","","","","","media/stimuli/animate_007_right.png","animate","single","right"
"","","","","","survey-likert","84","270972","0.0-84.0","SS1678233192609","63d44472a72a227e0fef6bdc","6406d7f26dd5b7fc1e3377bd","6407ce60a8697fcd4d97e7a0","1920","969","","1603","","{""Q0"":5}","[0]","complexity","","","","","","","","","","","","","","","media/stimuli/animate_003_left.png","animate","pair","left"
"","","","","","html-keyboard-response","85","272314","0.0-85.0","SS1678233192609","63d44472a72a227e0fef6bdc","6406d7f26dd5b7fc1e3377bd","6407ce60a8697fcd4d97e7a0","1920","969","","1339",""," ","","","","","","","","","","","","","","","","","","","",""
"","","","","","html-keyboard-response","86","274443","0.0-86.0","SS1678233192609","63d44472a72a227e0fef6bdc","6406d7f26dd5b7fc1e3377bd","6407ce60a8697fcd4d97e7a0","1920","969","","2126","","f","","","<img src=""media/stimuli/animate_009_left.png"" class=""coveredImage test"" style = ""width:100px; height:100px; position:fixed; top:10%;    transform: translate(-50%, -50%);left:48%""></img><img src=""media/stimuli/animate_005_left.png"" class=""coveredImage test"" style = ""width:100px; height:100px;position:fixed; top:25%;        transform: translate(-50%, -50%);left:38%""></img><img src=""media/stimuli/inanimate_003_left.png"" class=""coveredImage test"" style = ""width:100px; height:100px;position:fixed; top:25%;        transform: translate(-50%, -50%);left:58%""></img><img src=""media/f.png""style = ""width:30px x; height:30px;position:fixed; top:43%;    transform: translate(-50%, -50%);left:40%""></img><img src=""media/j.png""style = ""width:30px; height:30px;position:fixed; top:43%;    transform: translate(-50%, -50%);left:60%""></img>","media/stimuli/animate_009_left.png","animate","left","single","media/stimuli/animate_005_left.png","animate","left","single","media/stimuli/inanimate_003_left.png","inanimate","left","single","identity_animacy","","","",""
"","","","","","html-keyboard-response","87","276685","0.0-87.0","SS1678233192609","63d44472a72a227e0fef6bdc","6406d7f26dd5b7fc1e3377bd","6407ce60a8697fcd4d97e7a0","1920","969","","2239","","f","","","<img src=""media/stimuli/inanimate_001_right.png"" class=""coveredImage test"" style = ""width:100px; height:100px; position:fixed; top:10%;    transform: translate(-50%, -50%);left:44.5%""></img><img src=""media/stimuli/inanimate_001_right.png"" class=""coveredImage test"" style = ""width:100px; height:100px; position:fixed; top:10%;    transform: translate(-50%, -50%);left:51.5%""></img><img src=""media/stimuli/inanimate_001_right.png"" class=""coveredImage test"" style = ""width:100px; height:100px;position:fixed; top:25%;        transform: translate(-50%, -50%);left:38%""></img><img src=""media/stimuli/inanimate_001_left.png"" class=""coveredImage test"" style = ""width:100px; height:100px;position:fixed; top:25%;        transform: translate(-50%, -50%);left:54.5%""></img><img src=""media/stimuli/inanimate_001_left.png"" class=""coveredImage test"" style = ""width:100px; height:100px;position:fixed; top:25%;        transform: translate(-50%, -50%);left:61.5%""></img><img src=""media/f.png""style = ""width:30px x; height:30px;position:fixed; top:43%;    transform: translate(-50%, -50%);left:40%""></img><img src=""media/j.png""style = ""width:30px; height:30px;position:fixed; top:43%;    transform: translate(-50%, -50%);left:60%""></img>","media/stimuli/inanimate_001_right.png","inanimate","right","pair","media/stimuli/inanimate_001_right.png","inanimate","right","single","media/stimuli/inanimate_001_left.png","inanimate","left","pair","number_pose","","","",""
"","","","","","html-keyboard-response","88","278805","0.0-88.0","SS1678233192609","63d44472a72a227e0fef6bdc","6406d7f26dd5b7fc1e3377bd","6407ce60a8697fcd4d97e7a0","1920","969","","2117","","j","","","<img src=""media/stimuli/inanimate_009_right.png"" class=""coveredImage test"" style = ""width:100px; height:100px; position:fixed; top:10%;    transform: translate(-50%, -50%);left:44.5%""></img><img src=""media/stimuli/inanimate_009_right.png"" class=""coveredImage test"" style = ""width:100px; height:100px; position:fixed; top:10%;    transform: translate(-50%, -50%);left:51.5%""></img><img src=""media/stimuli/inanimate_009_left.png"" class=""coveredImage test"" style = ""width:100px; height:100px;position:fixed; top:25%;        transform: translate(-50%, -50%);left:34.5%""></img><img src=""media/stimuli/inanimate_009_left.png"" class=""coveredImage test"" style = ""width:100px; height:100px;position:fixed; top:25%;        transform: translate(-50%, -50%);left:41.5%""></img><img src=""media/stimuli/inanimate_009_right.png"" class=""coveredImage test"" style = ""width:100px; height:100px;position:fixed; top:25%;        transform: translate(-50%, -50%);left:58%""></img><img src=""media/f.png""style = ""width:30px x; height:30px;position:fixed; top:43%;    transform: translate(-50%, -50%);left:40%""></img><img src=""media/j.png""style = ""width:30px; height:30px;position:fixed; top:43%;    transform: translate(-50%, -50%);left:60%""></img>","media/stimuli/inanimate_009_right.png","inanimate","right","pair","media/stimuli/inanimate_009_left.png","inanimate","left","pair","media/stimuli/inanimate_009_right.png","inanimate","right","single","pose_number","","","",""
"","","","","","html-keyboard-response","89","282572","0.0-89.0","SS1678233192609","63d44472a72a227e0fef6bdc","6406d7f26dd5b7fc1e3377bd","6407ce60a8697fcd4d97e7a0","1920","969","","3756","","f","","","<img src=""media/stimuli/animate_004_left.png"" class=""coveredImage test"" style = ""width:100px; height:100px; position:fixed; top:10%;    transform: translate(-50%, -50%);left:44.5%""></img><img src=""media/stimuli/animate_004_left.png"" class=""coveredImage test"" style = ""width:100px; height:100px; position:fixed; top:10%;    transform: translate(-50%, -50%);left:51.5%""></img><img src=""media/stimuli/animate_004_left.png"" class=""coveredImage test"" style = ""width:100px; height:100px;position:fixed; top:25%;        transform: translate(-50%, -50%);left:38%""></img><img src=""media/stimuli/animate_004_right.png"" class=""coveredImage test"" style = ""width:100px; height:100px;position:fixed; top:25%;        transform: translate(-50%, -50%);left:54.5%""></img><img src=""media/stimuli/animate_004_right.png"" class=""coveredImage test"" style = ""width:100px; height:100px;position:fixed; top:25%;        transform: translate(-50%, -50%);left:61.5%""></img><img src=""media/f.png""style = ""width:30px x; height:30px;position:fixed; top:43%;    transform: translate(-50%, -50%);left:40%""></img><img src=""media/j.png""style = ""width:30px; height:30px;position:fixed; top:43%;    transform: translate(-50%, -50%);left:60%""></img>","media/stimuli/animate_004_left.png","animate","left","pair","media/stimuli/animate_004_left.png","animate","left","single","media/stimuli/animate_004_right.png","animate","right","pair","number_pose","","","",""
"","","","","","html-keyboard-response","90","284061","0.0-90.0","SS1678233192609","63d44472a72a227e0fef6bdc","6406d7f26dd5b7fc1e3377bd","6407ce60a8697fcd4d97e7a0","1920","969","","1470","","j","","","<img src=""media/stimuli/inanimate_012_left.png"" class=""coveredImage test"" style = ""width:100px; height:100px; position:fixed; top:10%;    transform: translate(-50%, -50%);left:48%""></img><img src=""media/stimuli/animate_010_left.png"" class=""coveredImage test"" style = ""width:100px; height:100px;position:fixed; top:25%;        transform: translate(-50%, -50%);left:34.5%""></img><img src=""media/stimuli/animate_010_left.png"" class=""coveredImage test"" style = ""width:100px; height:100px;position:fixed; top:25%;        transform: translate(-50%, -50%);left:41.5%""></img><img src=""media/stimuli/inanimate_012_right.png"" class=""coveredImage test"" style = ""width:100px; height:100px;position:fixed; top:25%;        transform: translate(-50%, -50%);left:54.5%""></img><img src=""media/stimuli/inanimate_012_right.png"" class=""coveredImage test"" style = ""width:100px; height:100px;position:fixed; top:25%;        transform: translate(-50%, -50%);left:61.5%""></img><img src=""media/f.png""style = ""width:30px x; height:30px;position:fixed; top:43%;    transform: translate(-50%, -50%);left:40%""></img><img src=""media/j.png""style = ""width:30px; height:30px;position:fixed; top:43%;    transform: translate(-50%, -50%);left:60%""></img>","media/stimuli/inanimate_012_left.png","inanimate","left","single","media/stimuli/animate_010_left.png","animate","left","pair","media/stimuli/inanimate_012_right.png","inanimate","right","pair","animacy_pose","","","",""
"","","","","","html-keyboard-response","91","285197","0.0-91.0","SS1678233192609","63d44472a72a227e0fef6bdc","6406d7f26dd5b7fc1e3377bd","6407ce60a8697fcd4d97e7a0","1920","969","","1115","","j","","","<img src=""media/stimuli/animate_002_right.png"" class=""coveredImage test"" style = ""width:100px; height:100px; position:fixed; top:10%;    transform: translate(-50%, -50%);left:44.5%""></img><img src=""media/stimuli/animate_002_right.png"" class=""coveredImage test"" style = ""width:100px; height:100px; position:fixed; top:10%;    transform: translate(-50%, -50%);left:51.5%""></img><img src=""media/stimuli/inanimate_012_right.png"" class=""coveredImage test"" style = ""width:100px; height:100px;position:fixed; top:25%;        transform: translate(-50%, -50%);left:34.5%""></img><img src=""media/stimuli/inanimate_012_right.png"" class=""coveredImage test"" style = ""width:100px; height:100px;position:fixed; top:25%;        transform: translate(-50%, -50%);left:41.5%""></img><img src=""media/stimuli/animate_002_right.png"" class=""coveredImage test"" style = ""width:100px; height:100px;position:fixed; top:25%;        transform: translate(-50%, -50%);left:58%""></img><img src=""media/f.png""style = ""width:30px x; height:30px;position:fixed; top:43%;    transform: translate(-50%, -50%);left:40%""></img><img src=""media/j.png""style = ""width:30px; height:30px;position:fixed; top:43%;    transform: translate(-50%, -50%);left:60%""></img>","media/stimuli/animate_002_right.png","animate","right","pair","media/stimuli/inanimate_012_right.png","inanimate","right","pair","media/stimuli/animate_002_right.png","animate","right","single","animacy_number","","","",""
"","","","","","html-keyboard-response","92","286024","0.0-92.0","SS1678233192609","63d44472a72a227e0fef6bdc","6406d7f26dd5b7fc1e3377bd","6407ce60a8697fcd4d97e7a0","1920","969","","816","","f","","","<img src=""media/stimuli/animate_009_right.png"" class=""coveredImage test"" style = ""width:100px; height:100px; position:fixed; top:10%;    transform: translate(-50%, -50%);left:48%""></img><img src=""media/stimuli/animate_009_right.png"" class=""coveredImage test"" style = ""width:100px; height:100px;position:fixed; top:25%;        transform: translate(-50%, -50%);left:34.5%""></img><img src=""media/stimuli/animate_009_right.png"" class=""coveredImage test"" style = ""width:100px; height:100px;position:fixed; top:25%;        transform: translate(-50%, -50%);left:41.5%""></img><img src=""media/stimuli/animate_006_right.png"" class=""coveredImage test"" style = ""width:100px; height:100px;position:fixed; top:25%;        transform: translate(-50%, -50%);left:58%""></img><img src=""media/f.png""style = ""width:30px x; height:30px;position:fixed; top:43%;    transform: translate(-50%, -50%);left:40%""></img><img src=""media/j.png""style = ""width:30px; height:30px;position:fixed; top:43%;    transform: translate(-50%, -50%);left:60%""></img>","media/stimuli/animate_009_right.png","animate","right","single","media/stimuli/animate_009_right.png","animate","right","pair","media/stimuli/animate_006_right.png","animate","right","single","number_identity","","","",""
"","","","","","html-keyboard-response","93","286874","0.0-93.0","SS1678233192609","63d44472a72a227e0fef6bdc","6406d7f26dd5b7fc1e3377bd","6407ce60a8697fcd4d97e7a0","1920","969","","847","","f","","","<img src=""media/stimuli/animate_007_left.png"" class=""coveredImage test"" style = ""width:100px; height:100px; position:fixed; top:10%;    transform: translate(-50%, -50%);left:44.5%""></img><img src=""media/stimuli/animate_007_left.png"" class=""coveredImage test"" style = ""width:100px; height:100px; position:fixed; top:10%;    transform: translate(-50%, -50%);left:51.5%""></img><img src=""media/stimuli/animate_007_right.png"" class=""coveredImage test"" style = ""width:100px; height:100px;position:fixed; top:25%;        transform: translate(-50%, -50%);left:38%""></img><img src=""media/stimuli/inanimate_005_left.png"" class=""coveredImage test"" style = ""width:100px; height:100px;position:fixed; top:25%;        transform: translate(-50%, -50%);left:58%""></img><img src=""media/f.png""style = ""width:30px x; height:30px;position:fixed; top:43%;    transform: translate(-50%, -50%);left:40%""></img><img src=""media/j.png""style = ""width:30px; height:30px;position:fixed; top:43%;    transform: translate(-50%, -50%);left:60%""></img>","media/stimuli/animate_007_left.png","animate","left","pair","media/stimuli/animate_007_right.png","animate","right","single","media/stimuli/inanimate_005_left.png","inanimate","left","single","pose_animacy","","","",""
"","","","","","html-keyboard-response","94","288092","0.0-94.0","SS1678233192609","63d44472a72a227e0fef6bdc","6406d7f26dd5b7fc1e3377bd","6407ce60a8697fcd4d97e7a0","1920","969","","1205","","j","","","<img src=""media/stimuli/animate_009_left.png"" class=""coveredImage test"" style = ""width:100px; height:100px; position:fixed; top:10%;    transform: translate(-50%, -50%);left:48%""></img><img src=""media/stimuli/inanimate_001_left.png"" class=""coveredImage test"" style = ""width:100px; height:100px;position:fixed; top:25%;        transform: translate(-50%, -50%);left:38%""></img><img src=""media/stimuli/animate_008_left.png"" class=""coveredImage test"" style = ""width:100px; height:100px;position:fixed; top:25%;        transform: translate(-50%, -50%);left:58%""></img><img src=""media/f.png""style = ""width:30px x; height:30px;position:fixed; top:43%;    transform: translate(-50%, -50%);left:40%""></img><img src=""media/j.png""style = ""width:30px; height:30px;position:fixed; top:43%;    transform: translate(-50%, -50%);left:60%""></img>","media/stimuli/animate_009_left.png","animate","left","single","media/stimuli/inanimate_001_left.png","inanimate","left","single","media/stimuli/animate_008_left.png","animate","left","single","animacy_identity","","","",""
"","","","","","html-keyboard-response","95","289141","0.0-95.0","SS1678233192609","63d44472a72a227e0fef6bdc","6406d7f26dd5b7fc1e3377bd","6407ce60a8697fcd4d97e7a0","1920","969","","1043","","f","","","<img src=""media/stimuli/animate_005_right.png"" class=""coveredImage test"" style = ""width:100px; height:100px; position:fixed; top:10%;    transform: translate(-50%, -50%);left:48%""></img><img src=""media/stimuli/animate_004_right.png"" class=""coveredImage test"" style = ""width:100px; height:100px;position:fixed; top:25%;        transform: translate(-50%, -50%);left:38%""></img><img src=""media/stimuli/inanimate_002_right.png"" class=""coveredImage test"" style = ""width:100px; height:100px;position:fixed; top:25%;        transform: translate(-50%, -50%);left:58%""></img><img src=""media/f.png""style = ""width:30px x; height:30px;position:fixed; top:43%;    transform: translate(-50%, -50%);left:40%""></img><img src=""media/j.png""style = ""width:30px; height:30px;position:fixed; top:43%;    transform: translate(-50%, -50%);left:60%""></img>","media/stimuli/animate_005_right.png","animate","right","single","media/stimuli/animate_004_right.png","animate","right","single","media/stimuli/inanimate_002_right.png","inanimate","right","single","identity_animacy","","","",""
"","","","","","html-keyboard-response","96","290355","0.0-96.0","SS1678233192609","63d44472a72a227e0fef6bdc","6406d7f26dd5b7fc1e3377bd","6407ce60a8697fcd4d97e7a0","1920","969","","1210","","j","","","<img src=""media/stimuli/inanimate_006_right.png"" class=""coveredImage test"" style = ""width:100px; height:100px; position:fixed; top:10%;    transform: translate(-50%, -50%);left:44.5%""></img><img src=""media/stimuli/inanimate_006_right.png"" class=""coveredImage test"" style = ""width:100px; height:100px; position:fixed; top:10%;    transform: translate(-50%, -50%);left:51.5%""></img><img src=""media/stimuli/inanimate_006_right.png"" class=""coveredImage test"" style = ""width:100px; height:100px;position:fixed; top:25%;        transform: translate(-50%, -50%);left:38%""></img><img src=""media/stimuli/inanimate_006_right.png"" class=""coveredImage test"" style = ""width:100px; height:100px;position:fixed; top:25%;        transform: translate(-50%, -50%);left:54.5%""></img><img src=""media/stimuli/inanimate_006_right.png"" class=""coveredImage test"" style = ""width:100px; height:100px;position:fixed; top:25%;        transform: translate(-50%, -50%);left:61.5%""></img><img src=""media/f.png""style = ""width:30px x; height:30px;position:fixed; top:43%;    transform: translate(-50%, -50%);left:40%""></img><img src=""media/j.png""style = ""width:30px; height:30px;position:fixed; top:43%;    transform: translate(-50%, -50%);left:60%""></img>","media/stimuli/inanimate_006_right.png","inanimate","right","pair","media/stimuli/inanimate_006_right.png","inanimate","right","single","media/stimuli/inanimate_006_right.png","inanimate","right","pair","number_filler","","","",""
"","","","","","html-keyboard-response","97","291927","0.0-97.0","SS1678233192609","63d44472a72a227e0fef6bdc","6406d7f26dd5b7fc1e3377bd","6407ce60a8697fcd4d97e7a0","1920","969","","1560","","j","","","<img src=""media/stimuli/inanimate_011_right.png"" class=""coveredImage test"" style = ""width:100px; height:100px; position:fixed; top:10%;    transform: translate(-50%, -50%);left:44.5%""></img><img src=""media/stimuli/inanimate_011_right.png"" class=""coveredImage test"" style = ""width:100px; height:100px; position:fixed; top:10%;    transform: translate(-50%, -50%);left:51.5%""></img><img src=""media/stimuli/animate_004_right.png"" class=""coveredImage test"" style = ""width:100px; height:100px;position:fixed; top:25%;        transform: translate(-50%, -50%);left:34.5%""></img><img src=""media/stimuli/animate_004_right.png"" class=""coveredImage test"" style = ""width:100px; height:100px;position:fixed; top:25%;        transform: translate(-50%, -50%);left:41.5%""></img><img src=""media/stimuli/inanimate_011_right.png"" class=""coveredImage test"" style = ""width:100px; height:100px;position:fixed; top:25%;        transform: translate(-50%, -50%);left:58%""></img><img src=""media/f.png""style = ""width:30px x; height:30px;position:fixed; top:43%;    transform: translate(-50%, -50%);left:40%""></img><img src=""media/j.png""style = ""width:30px; height:30px;position:fixed; top:43%;    transform: translate(-50%, -50%);left:60%""></img>","media/stimuli/inanimate_011_right.png","inanimate","right","pair","media/stimuli/animate_004_right.png","animate","right","pair","media/stimuli/inanimate_011_right.png","inanimate","right","single","animacy_number","","","",""
"","","","","","html-keyboard-response","98","292865","0.0-98.0","SS1678233192609","63d44472a72a227e0fef6bdc","6406d7f26dd5b7fc1e3377bd","6407ce60a8697fcd4d97e7a0","1920","969","","933",""," ","","","","","","","","","","","","","","","","","","","",""
"","","","","","html-keyboard-response","99","294153","0.0-99.0","SS1678233192609","63d44472a72a227e0fef6bdc","6406d7f26dd5b7fc1e3377bd","6407ce60a8697fcd4d97e7a0","1920","969","","1277","","j","","","<img src=""media/stimuli/inanimate_003_right.png"" class=""coveredImage test"" style = ""width:100px; height:100px; position:fixed; top:10%;    transform: translate(-50%, -50%);left:48%""></img><img src=""media/stimuli/inanimate_001_right.png"" class=""coveredImage test"" style = ""width:100px; height:100px;position:fixed; top:25%;        transform: translate(-50%, -50%);left:38%""></img><img src=""media/stimuli/inanimate_003_left.png"" class=""coveredImage test"" style = ""width:100px; height:100px;position:fixed; top:25%;        transform: translate(-50%, -50%);left:58%""></img><img src=""media/f.png""style = ""width:30px x; height:30px;position:fixed; top:43%;    transform: translate(-50%, -50%);left:40%""></img><img src=""media/j.png""style = ""width:30px; height:30px;position:fixed; top:43%;    transform: translate(-50%, -50%);left:60%""></img>","media/stimuli/inanimate_003_right.png","inanimate","right","single","media/stimuli/inanimate_001_right.png","inanimate","right","single","media/stimuli/inanimate_003_left.png","inanimate","left","single","identity_pose","","","",""
"","","","","","html-keyboard-response","100","295532","0.0-100.0","SS1678233192609","63d44472a72a227e0fef6bdc","6406d7f26dd5b7fc1e3377bd","6407ce60a8697fcd4d97e7a0","1920","969","","1365","","j","","","<img src=""media/stimuli/animate_011_right.png"" class=""coveredImage test"" style = ""width:100px; height:100px; position:fixed; top:10%;    transform: translate(-50%, -50%);left:44.5%""></img><img src=""media/stimuli/animate_011_right.png"" class=""coveredImage test"" style = ""width:100px; height:100px; position:fixed; top:10%;    transform: translate(-50%, -50%);left:51.5%""></img><img src=""media/stimuli/inanimate_010_right.png"" class=""coveredImage test"" style = ""width:100px; height:100px;position:fixed; top:25%;        transform: translate(-50%, -50%);left:38%""></img><img src=""media/stimuli/animate_011_left.png"" class=""coveredImage test"" style = ""width:100px; height:100px;position:fixed; top:25%;        transform: translate(-50%, -50%);left:58%""></img><img src=""media/f.png""style = ""width:30px x; height:30px;position:fixed; top:43%;    transform: translate(-50%, -50%);left:40%""></img><img src=""media/j.png""style = ""width:30px; height:30px;position:fixed; top:43%;    transform: translate(-50%, -50%);left:60%""></img>","media/stimuli/animate_011_right.png","animate","right","pair","media/stimuli/inanimate_010_right.png","inanimate","right","single","media/stimuli/animate_011_left.png","animate","left","single","animacy_pose","","","",""
"","","","","","html-keyboard-response","101","296474","0.0-101.0","SS1678233192609","63d44472a72a227e0fef6bdc","6406d7f26dd5b7fc1e3377bd","6407ce60a8697fcd4d97e7a0","1920","969","","936","","j","","","<img src=""media/stimuli/animate_012_left.png"" class=""coveredImage test"" style = ""width:100px; height:100px; position:fixed; top:10%;    transform: translate(-50%, -50%);left:48%""></img><img src=""media/stimuli/inanimate_008_left.png"" class=""coveredImage test"" style = ""width:100px; height:100px;position:fixed; top:25%;        transform: translate(-50%, -50%);left:38%""></img><img src=""media/stimuli/animate_012_left.png"" class=""coveredImage test"" style = ""width:100px; height:100px;position:fixed; top:25%;        transform: translate(-50%, -50%);left:54.5%""></img><img src=""media/stimuli/animate_012_left.png"" class=""coveredImage test"" style = ""width:100px; height:100px;position:fixed; top:25%;        transform: translate(-50%, -50%);left:61.5%""></img><img src=""media/f.png""style = ""width:30px x; height:30px;position:fixed; top:43%;    transform: translate(-50%, -50%);left:40%""></img><img src=""media/j.png""style = ""width:30px; height:30px;position:fixed; top:43%;    transform: translate(-50%, -50%);left:60%""></img>","media/stimuli/animate_012_left.png","animate","left","single","media/stimuli/inanimate_008_left.png","inanimate","left","single","media/stimuli/animate_012_left.png","animate","left","pair","animacy_number","","","",""
"","","","","","html-keyboard-response","102","297605","0.0-102.0","SS1678233192609","63d44472a72a227e0fef6bdc","6406d7f26dd5b7fc1e3377bd","6407ce60a8697fcd4d97e7a0","1920","969","","1118","","f","","","<img src=""media/stimuli/inanimate_009_left.png"" class=""coveredImage test"" style = ""width:100px; height:100px; position:fixed; top:10%;    transform: translate(-50%, -50%);left:44.5%""></img><img src=""media/stimuli/inanimate_009_left.png"" class=""coveredImage test"" style = ""width:100px; height:100px; position:fixed; top:10%;    transform: translate(-50%, -50%);left:51.5%""></img><img src=""media/stimuli/inanimate_009_right.png"" class=""coveredImage test"" style = ""width:100px; height:100px;position:fixed; top:25%;        transform: translate(-50%, -50%);left:34.5%""></img><img src=""media/stimuli/inanimate_009_right.png"" class=""coveredImage test"" style = ""width:100px; height:100px;position:fixed; top:25%;        transform: translate(-50%, -50%);left:41.5%""></img><img src=""media/stimuli/animate_007_left.png"" class=""coveredImage test"" style = ""width:100px; height:100px;position:fixed; top:25%;        transform: translate(-50%, -50%);left:54.5%""></img><img src=""media/stimuli/animate_007_left.png"" class=""coveredImage test"" style = ""width:100px; height:100px;position:fixed; top:25%;        transform: translate(-50%, -50%);left:61.5%""></img><img src=""media/f.png""style = ""width:30px x; height:30px;position:fixed; top:43%;    transform: translate(-50%, -50%);left:40%""></img><img src=""media/j.png""style = ""width:30px; height:30px;position:fixed; top:43%;    transform: translate(-50%, -50%);left:60%""></img>","media/stimuli/inanimate_009_left.png","inanimate","left","pair","media/stimuli/inanimate_009_right.png","inanimate","right","pair","media/stimuli/animate_007_left.png","animate","left","pair","pose_animacy","","","",""
"","","","","","html-keyboard-response","103","298475","0.0-103.0","SS1678233192609","63d44472a72a227e0fef6bdc","6406d7f26dd5b7fc1e3377bd","6407ce60a8697fcd4d97e7a0","1920","969","","856","","j","","","<img src=""media/stimuli/inanimate_005_right.png"" class=""coveredImage test"" style = ""width:100px; height:100px; position:fixed; top:10%;    transform: translate(-50%, -50%);left:44.5%""></img><img src=""media/stimuli/inanimate_005_right.png"" class=""coveredImage test"" style = ""width:100px; height:100px; position:fixed; top:10%;    transform: translate(-50%, -50%);left:51.5%""></img><img src=""media/stimuli/inanimate_007_right.png"" class=""coveredImage test"" style = ""width:100px; height:100px;position:fixed; top:25%;        transform: translate(-50%, -50%);left:34.5%""></img><img src=""media/stimuli/inanimate_007_right.png"" class=""coveredImage test"" style = ""width:100px; height:100px;position:fixed; top:25%;        transform: translate(-50%, -50%);left:41.5%""></img><img src=""media/stimuli/inanimate_005_left.png"" class=""coveredImage test"" style = ""width:100px; height:100px;position:fixed; top:25%;        transform: translate(-50%, -50%);left:54.5%""></img><img src=""media/stimuli/inanimate_005_left.png"" class=""coveredImage test"" style = ""width:100px; height:100px;position:fixed; top:25%;        transform: translate(-50%, -50%);left:61.5%""></img><img src=""media/f.png""style = ""width:30px x; height:30px;position:fixed; top:43%;    transform: translate(-50%, -50%);left:40%""></img><img src=""media/j.png""style = ""width:30px; height:30px;position:fixed; top:43%;    transform: translate(-50%, -50%);left:60%""></img>","media/stimuli/inanimate_005_right.png","inanimate","right","pair","media/stimuli/inanimate_007_right.png","inanimate","right","pair","media/stimuli/inanimate_005_left.png","inanimate","left","pair","identity_pose","","","",""
"","","","","","html-keyboard-response","104","299376","0.0-104.0","SS1678233192609","63d44472a72a227e0fef6bdc","6406d7f26dd5b7fc1e3377bd","6407ce60a8697fcd4d97e7a0","1920","969","","897","","j","","","<img src=""media/stimuli/animate_009_right.png"" class=""coveredImage test"" style = ""width:100px; height:100px; position:fixed; top:10%;    transform: translate(-50%, -50%);left:48%""></img><img src=""media/stimuli/animate_007_right.png"" class=""coveredImage test"" style = ""width:100px; height:100px;position:fixed; top:25%;        transform: translate(-50%, -50%);left:38%""></img><img src=""media/stimuli/animate_009_left.png"" class=""coveredImage test"" style = ""width:100px; height:100px;position:fixed; top:25%;        transform: translate(-50%, -50%);left:58%""></img><img src=""media/f.png""style = ""width:30px x; height:30px;position:fixed; top:43%;    transform: translate(-50%, -50%);left:40%""></img><img src=""media/j.png""style = ""width:30px; height:30px;position:fixed; top:43%;    transform: translate(-50%, -50%);left:60%""></img>","media/stimuli/animate_009_right.png","animate","right","single","media/stimuli/animate_007_right.png","animate","right","single","media/stimuli/animate_009_left.png","animate","left","single","identity_pose","","","",""
"","","","","","html-keyboard-response","105","300250","0.0-105.0","SS1678233192609","63d44472a72a227e0fef6bdc","6406d7f26dd5b7fc1e3377bd","6407ce60a8697fcd4d97e7a0","1920","969","","860","","f","","","<img src=""media/stimuli/inanimate_003_right.png"" class=""coveredImage test"" style = ""width:100px; height:100px; position:fixed; top:10%;    transform: translate(-50%, -50%);left:48%""></img><img src=""media/stimuli/inanimate_003_right.png"" class=""coveredImage test"" style = ""width:100px; height:100px;position:fixed; top:25%;        transform: translate(-50%, -50%);left:34.5%""></img><img src=""media/stimuli/inanimate_003_right.png"" class=""coveredImage test"" style = ""width:100px; height:100px;position:fixed; top:25%;        transform: translate(-50%, -50%);left:41.5%""></img><img src=""media/stimuli/animate_008_right.png"" class=""coveredImage test"" style = ""width:100px; height:100px;position:fixed; top:25%;        transform: translate(-50%, -50%);left:58%""></img><img src=""media/f.png""style = ""width:30px x; height:30px;position:fixed; top:43%;    transform: translate(-50%, -50%);left:40%""></img><img src=""media/j.png""style = ""width:30px; height:30px;position:fixed; top:43%;    transform: translate(-50%, -50%);left:60%""></img>","media/stimuli/inanimate_003_right.png","inanimate","right","single","media/stimuli/inanimate_003_right.png","inanimate","right","pair","media/stimuli/animate_008_right.png","animate","right","single","number_animacy","","","",""
