"success","timeout","failed_images","failed_audio","failed_video","trial_type","trial_index","time_elapsed","internal_node_id","subject","prolific_id","study","session","window_width","window_height","view_history","rt","stimulus_type","response","question_order","rating_type","stimulus","target","target_animacy","target_pose","target_number","left","left_animacy","left_pose","left_number","right","right_animacy","right_pose","right_number","comparison_type","rating_stimulus","rating_animacy","rating_number","rating_pose"
"true","false","[]","[]","[]","preload","0","121938","0.0-0.0","SS1678233195436","5b757a03976ecb0001b1168f","6406d7f26dd5b7fc1e3377bd","6407ce5981783d9f5ce64f1c","1536","714","","","","","","","","","","","","","","","","","","","","","","","",""
"","","","","","instructions","1","131168","0.0-1.0","SS1678233195436","5b757a03976ecb0001b1168f","6406d7f26dd5b7fc1e3377bd","6407ce5981783d9f5ce64f1c","1536","714","[{""page_index"":0,""viewing_time"":9227}]","9227","","","","","","","","","","","","","","","","","","","","","",""
"","","","","","instructions","2","147073","0.0-2.0","SS1678233195436","5b757a03976ecb0001b1168f","6406d7f26dd5b7fc1e3377bd","6407ce5981783d9f5ce64f1c","1536","714","[{""page_index"":0,""viewing_time"":13885}]","13885","instructions","","","","","","","","","","","","","","","","","","","","",""
"","","","","","instructions","3","150252","0.0-3.0","SS1678233195436","5b757a03976ecb0001b1168f","6406d7f26dd5b7fc1e3377bd","6407ce5981783d9f5ce64f1c","1536","714","[{""page_index"":0,""viewing_time"":3178}]","3178","instructions","","","","","","","","","","","","","","","","","","","","",""
"","","","","","survey-likert","4","156040","0.0-4.0","SS1678233195436","5b757a03976ecb0001b1168f","6406d7f26dd5b7fc1e3377bd","6407ce5981783d9f5ce64f1c","1536","714","","5786","","{""Q0"":6}","[0]","anchoring","","","","","","","","","","","","","","","","","",""
"","","","","","survey-likert","5","160372","0.0-5.0","SS1678233195436","5b757a03976ecb0001b1168f","6406d7f26dd5b7fc1e3377bd","6407ce5981783d9f5ce64f1c","1536","714","","4328","","{""Q0"":0}","[0]","anchoring","","","","","","","","","","","","","","","","","",""
"","","","","","instructions","6","161733","0.0-6.0","SS1678233195436","5b757a03976ecb0001b1168f","6406d7f26dd5b7fc1e3377bd","6407ce5981783d9f5ce64f1c","1536","714","[{""page_index"":0,""viewing_time"":1359}]","1359","instructions","","","","","","","","","","","","","","","","","","","","",""
"true","","","","","fullscreen","7","164386","0.0-7.0","SS1678233195436","5b757a03976ecb0001b1168f","6406d7f26dd5b7fc1e3377bd","6407ce5981783d9f5ce64f1c","1536","714","","","","","","","","","","","","","","","","","","","","","","","",""
"","","","","","html-keyboard-response","8","177503","0.0-8.0","SS1678233195436","5b757a03976ecb0001b1168f","6406d7f26dd5b7fc1e3377bd","6407ce5981783d9f5ce64f1c","1536","714","","13113","","f","","","<img src=""media/stimuli/inanimate_009_left.png"" class=""coveredImage test"" style = ""width:100px; height:100px; position:fixed; top:10%;    transform: translate(-50%, -50%);left:48%""></img><img src=""media/stimuli/inanimate_009_left.png"" class=""coveredImage test"" style = ""width:100px; height:100px;position:fixed; top:25%;        transform: translate(-50%, -50%);left:34.5%""></img><img src=""media/stimuli/inanimate_009_left.png"" class=""coveredImage test"" style = ""width:100px; height:100px;position:fixed; top:25%;        transform: translate(-50%, -50%);left:41.5%""></img><img src=""media/stimuli/inanimate_005_left.png"" class=""coveredImage test"" style = ""width:100px; height:100px;position:fixed; top:25%;        transform: translate(-50%, -50%);left:58%""></img><img src=""media/f.png""style = ""width:30px x; height:30px;position:fixed; top:43%;    transform: translate(-50%, -50%);left:40%""></img><img src=""media/j.png""style = ""width:30px; height:30px;position:fixed; top:43%;    transform: translate(-50%, -50%);left:60%""></img>","media/stimuli/inanimate_009_left.png","inanimate","left","single","media/stimuli/inanimate_009_left.png","inanimate","left","pair","media/stimuli/inanimate_005_left.png","inanimate","left","single","number_identity","","","",""
"","","","","","html-keyboard-response","9","180724","0.0-9.0","SS1678233195436","5b757a03976ecb0001b1168f","6406d7f26dd5b7fc1e3377bd","6407ce5981783d9f5ce64f1c","1536","714","","3218","","j","","","<img src=""media/stimuli/inanimate_012_right.png"" class=""coveredImage test"" style = ""width:100px; height:100px; position:fixed; top:10%;    transform: translate(-50%, -50%);left:48%""></img><img src=""media/stimuli/inanimate_012_left.png"" class=""coveredImage test"" style = ""width:100px; height:100px;position:fixed; top:25%;        transform: translate(-50%, -50%);left:38%""></img><img src=""media/stimuli/inanimate_012_right.png"" class=""coveredImage test"" style = ""width:100px; height:100px;position:fixed; top:25%;        transform: translate(-50%, -50%);left:54.5%""></img><img src=""media/stimuli/inanimate_012_right.png"" class=""coveredImage test"" style = ""width:100px; height:100px;position:fixed; top:25%;        transform: translate(-50%, -50%);left:61.5%""></img><img src=""media/f.png""style = ""width:30px x; height:30px;position:fixed; top:43%;    transform: translate(-50%, -50%);left:40%""></img><img src=""media/j.png""style = ""width:30px; height:30px;position:fixed; top:43%;    transform: translate(-50%, -50%);left:60%""></img>","media/stimuli/inanimate_012_right.png","inanimate","right","single","media/stimuli/inanimate_012_left.png","inanimate","left","single","media/stimuli/inanimate_012_right.png","inanimate","right","pair","pose_number","","","",""
"","","","","","html-keyboard-response","10","182626","0.0-10.0","SS1678233195436","5b757a03976ecb0001b1168f","6406d7f26dd5b7fc1e3377bd","6407ce5981783d9f5ce64f1c","1536","714","","1896","","f","","","<img src=""media/stimuli/inanimate_001_left.png"" class=""coveredImage test"" style = ""width:100px; height:100px; position:fixed; top:10%;    transform: translate(-50%, -50%);left:48%""></img><img src=""media/stimuli/inanimate_001_left.png"" class=""coveredImage test"" style = ""width:100px; height:100px;position:fixed; top:25%;        transform: translate(-50%, -50%);left:34.5%""></img><img src=""media/stimuli/inanimate_001_left.png"" class=""coveredImage test"" style = ""width:100px; height:100px;position:fixed; top:25%;        transform: translate(-50%, -50%);left:41.5%""></img><img src=""media/stimuli/animate_005_left.png"" class=""coveredImage test"" style = ""width:100px; height:100px;position:fixed; top:25%;        transform: translate(-50%, -50%);left:58%""></img><img src=""media/f.png""style = ""width:30px x; height:30px;position:fixed; top:43%;    transform: translate(-50%, -50%);left:40%""></img><img src=""media/j.png""style = ""width:30px; height:30px;position:fixed; top:43%;    transform: translate(-50%, -50%);left:60%""></img>","media/stimuli/inanimate_001_left.png","inanimate","left","single","media/stimuli/inanimate_001_left.png","inanimate","left","pair","media/stimuli/animate_005_left.png","animate","left","single","number_animacy","","","",""
"","","","","","html-keyboard-response","11","185086","0.0-11.0","SS1678233195436","5b757a03976ecb0001b1168f","6406d7f26dd5b7fc1e3377bd","6407ce5981783d9f5ce64f1c","1536","714","","2458","","j","","","<img src=""media/stimuli/inanimate_007_left.png"" class=""coveredImage test"" style = ""width:100px; height:100px; position:fixed; top:10%;    transform: translate(-50%, -50%);left:44.5%""></img><img src=""media/stimuli/inanimate_007_left.png"" class=""coveredImage test"" style = ""width:100px; height:100px; position:fixed; top:10%;    transform: translate(-50%, -50%);left:51.5%""></img><img src=""media/stimuli/inanimate_007_right.png"" class=""coveredImage test"" style = ""width:100px; height:100px;position:fixed; top:25%;        transform: translate(-50%, -50%);left:34.5%""></img><img src=""media/stimuli/inanimate_007_right.png"" class=""coveredImage test"" style = ""width:100px; height:100px;position:fixed; top:25%;        transform: translate(-50%, -50%);left:41.5%""></img><img src=""media/stimuli/inanimate_007_left.png"" class=""coveredImage test"" style = ""width:100px; height:100px;position:fixed; top:25%;        transform: translate(-50%, -50%);left:58%""></img><img src=""media/f.png""style = ""width:30px x; height:30px;position:fixed; top:43%;    transform: translate(-50%, -50%);left:40%""></img><img src=""media/j.png""style = ""width:30px; height:30px;position:fixed; top:43%;    transform: translate(-50%, -50%);left:60%""></img>","media/stimuli/inanimate_007_left.png","inanimate","left","pair","media/stimuli/inanimate_007_right.png","inanimate","right","pair","media/stimuli/inanimate_007_left.png","inanimate","left","single","pose_number","","","",""
"","","","","","html-keyboard-response","12","186997","0.0-12.0","SS1678233195436","5b757a03976ecb0001b1168f","6406d7f26dd5b7fc1e3377bd","6407ce5981783d9f5ce64f1c","1536","714","","1909","","j","","","<img src=""media/stimuli/inanimate_002_left.png"" class=""coveredImage test"" style = ""width:100px; height:100px; position:fixed; top:10%;    transform: translate(-50%, -50%);left:44.5%""></img><img src=""media/stimuli/inanimate_002_left.png"" class=""coveredImage test"" style = ""width:100px; height:100px; position:fixed; top:10%;    transform: translate(-50%, -50%);left:51.5%""></img><img src=""media/stimuli/animate_010_left.png"" class=""coveredImage test"" style = ""width:100px; height:100px;position:fixed; top:25%;        transform: translate(-50%, -50%);left:34.5%""></img><img src=""media/stimuli/animate_010_left.png"" class=""coveredImage test"" style = ""width:100px; height:100px;position:fixed; top:25%;        transform: translate(-50%, -50%);left:41.5%""></img><img src=""media/stimuli/inanimate_010_left.png"" class=""coveredImage test"" style = ""width:100px; height:100px;position:fixed; top:25%;        transform: translate(-50%, -50%);left:54.5%""></img><img src=""media/stimuli/inanimate_010_left.png"" class=""coveredImage test"" style = ""width:100px; height:100px;position:fixed; top:25%;        transform: translate(-50%, -50%);left:61.5%""></img><img src=""media/f.png""style = ""width:30px x; height:30px;position:fixed; top:43%;    transform: translate(-50%, -50%);left:40%""></img><img src=""media/j.png""style = ""width:30px; height:30px;position:fixed; top:43%;    transform: translate(-50%, -50%);left:60%""></img>","media/stimuli/inanimate_002_left.png","inanimate","left","pair","media/stimuli/animate_010_left.png","animate","left","pair","media/stimuli/inanimate_010_left.png","inanimate","left","pair","animacy_identity","","","",""
"","","","","","html-keyboard-response","13","189112","0.0-13.0","SS1678233195436","5b757a03976ecb0001b1168f","6406d7f26dd5b7fc1e3377bd","6407ce5981783d9f5ce64f1c","1536","714","","2114","","f","","","<img src=""media/stimuli/animate_012_right.png"" class=""coveredImage test"" style = ""width:100px; height:100px; position:fixed; top:10%;    transform: translate(-50%, -50%);left:44.5%""></img><img src=""media/stimuli/animate_012_right.png"" class=""coveredImage test"" style = ""width:100px; height:100px; position:fixed; top:10%;    transform: translate(-50%, -50%);left:51.5%""></img><img src=""media/stimuli/animate_012_right.png"" class=""coveredImage test"" style = ""width:100px; height:100px;position:fixed; top:25%;        transform: translate(-50%, -50%);left:38%""></img><img src=""media/stimuli/animate_009_right.png"" class=""coveredImage test"" style = ""width:100px; height:100px;position:fixed; top:25%;        transform: translate(-50%, -50%);left:54.5%""></img><img src=""media/stimuli/animate_009_right.png"" class=""coveredImage test"" style = ""width:100px; height:100px;position:fixed; top:25%;        transform: translate(-50%, -50%);left:61.5%""></img><img src=""media/f.png""style = ""width:30px x; height:30px;position:fixed; top:43%;    transform: translate(-50%, -50%);left:40%""></img><img src=""media/j.png""style = ""width:30px; height:30px;position:fixed; top:43%;    transform: translate(-50%, -50%);left:60%""></img>","media/stimuli/animate_012_right.png","animate","right","pair","media/stimuli/animate_012_right.png","animate","right","single","media/stimuli/animate_009_right.png","animate","right","pair","number_identity","","","",""
"","","","","","html-keyboard-response","14","190111","0.0-14.0","SS1678233195436","5b757a03976ecb0001b1168f","6406d7f26dd5b7fc1e3377bd","6407ce5981783d9f5ce64f1c","1536","714","","996","","j","","","<img src=""media/stimuli/animate_007_right.png"" class=""coveredImage test"" style = ""width:100px; height:100px; position:fixed; top:10%;    transform: translate(-50%, -50%);left:44.5%""></img><img src=""media/stimuli/animate_007_right.png"" class=""coveredImage test"" style = ""width:100px; height:100px; position:fixed; top:10%;    transform: translate(-50%, -50%);left:51.5%""></img><img src=""media/stimuli/animate_008_right.png"" class=""coveredImage test"" style = ""width:100px; height:100px;position:fixed; top:25%;        transform: translate(-50%, -50%);left:34.5%""></img><img src=""media/stimuli/animate_008_right.png"" class=""coveredImage test"" style = ""width:100px; height:100px;position:fixed; top:25%;        transform: translate(-50%, -50%);left:41.5%""></img><img src=""media/stimuli/animate_007_right.png"" class=""coveredImage test"" style = ""width:100px; height:100px;position:fixed; top:25%;        transform: translate(-50%, -50%);left:58%""></img><img src=""media/f.png""style = ""width:30px x; height:30px;position:fixed; top:43%;    transform: translate(-50%, -50%);left:40%""></img><img src=""media/j.png""style = ""width:30px; height:30px;position:fixed; top:43%;    transform: translate(-50%, -50%);left:60%""></img>","media/stimuli/animate_007_right.png","animate","right","pair","media/stimuli/animate_008_right.png","animate","right","pair","media/stimuli/animate_007_right.png","animate","right","single","identity_number","","","",""
"","","","","","html-keyboard-response","15","191792","0.0-15.0","SS1678233195436","5b757a03976ecb0001b1168f","6406d7f26dd5b7fc1e3377bd","6407ce5981783d9f5ce64f1c","1536","714","","1677","","f","","","<img src=""media/stimuli/inanimate_008_right.png"" class=""coveredImage test"" style = ""width:100px; height:100px; position:fixed; top:10%;    transform: translate(-50%, -50%);left:44.5%""></img><img src=""media/stimuli/inanimate_008_right.png"" class=""coveredImage test"" style = ""width:100px; height:100px; position:fixed; top:10%;    transform: translate(-50%, -50%);left:51.5%""></img><img src=""media/stimuli/inanimate_001_right.png"" class=""coveredImage test"" style = ""width:100px; height:100px;position:fixed; top:25%;        transform: translate(-50%, -50%);left:34.5%""></img><img src=""media/stimuli/inanimate_001_right.png"" class=""coveredImage test"" style = ""width:100px; height:100px;position:fixed; top:25%;        transform: translate(-50%, -50%);left:41.5%""></img><img src=""media/stimuli/animate_003_right.png"" class=""coveredImage test"" style = ""width:100px; height:100px;position:fixed; top:25%;        transform: translate(-50%, -50%);left:54.5%""></img><img src=""media/stimuli/animate_003_right.png"" class=""coveredImage test"" style = ""width:100px; height:100px;position:fixed; top:25%;        transform: translate(-50%, -50%);left:61.5%""></img><img src=""media/f.png""style = ""width:30px x; height:30px;position:fixed; top:43%;    transform: translate(-50%, -50%);left:40%""></img><img src=""media/j.png""style = ""width:30px; height:30px;position:fixed; top:43%;    transform: translate(-50%, -50%);left:60%""></img>","media/stimuli/inanimate_008_right.png","inanimate","right","pair","media/stimuli/inanimate_001_right.png","inanimate","right","pair","media/stimuli/animate_003_right.png","animate","right","pair","identity_animacy","","","",""
"","","","","","html-keyboard-response","16","193407","0.0-16.0","SS1678233195436","5b757a03976ecb0001b1168f","6406d7f26dd5b7fc1e3377bd","6407ce5981783d9f5ce64f1c","1536","714","","1610","","f","","","<img src=""media/stimuli/inanimate_007_right.png"" class=""coveredImage test"" style = ""width:100px; height:100px; position:fixed; top:10%;    transform: translate(-50%, -50%);left:48%""></img><img src=""media/stimuli/inanimate_007_right.png"" class=""coveredImage test"" style = ""width:100px; height:100px;position:fixed; top:25%;        transform: translate(-50%, -50%);left:34.5%""></img><img src=""media/stimuli/inanimate_007_right.png"" class=""coveredImage test"" style = ""width:100px; height:100px;position:fixed; top:25%;        transform: translate(-50%, -50%);left:41.5%""></img><img src=""media/stimuli/animate_002_right.png"" class=""coveredImage test"" style = ""width:100px; height:100px;position:fixed; top:25%;        transform: translate(-50%, -50%);left:58%""></img><img src=""media/f.png""style = ""width:30px x; height:30px;position:fixed; top:43%;    transform: translate(-50%, -50%);left:40%""></img><img src=""media/j.png""style = ""width:30px; height:30px;position:fixed; top:43%;    transform: translate(-50%, -50%);left:60%""></img>","media/stimuli/inanimate_007_right.png","inanimate","right","single","media/stimuli/inanimate_007_right.png","inanimate","right","pair","media/stimuli/animate_002_right.png","animate","right","single","number_animacy","","","",""
"","","","","","html-keyboard-response","17","196869","0.0-17.0","SS1678233195436","5b757a03976ecb0001b1168f","6406d7f26dd5b7fc1e3377bd","6407ce5981783d9f5ce64f1c","1536","714","","3460","","j","","","<img src=""media/stimuli/animate_009_left.png"" class=""coveredImage test"" style = ""width:100px; height:100px; position:fixed; top:10%;    transform: translate(-50%, -50%);left:44.5%""></img><img src=""media/stimuli/animate_009_left.png"" class=""coveredImage test"" style = ""width:100px; height:100px; position:fixed; top:10%;    transform: translate(-50%, -50%);left:51.5%""></img><img src=""media/stimuli/animate_009_right.png"" class=""coveredImage test"" style = ""width:100px; height:100px;position:fixed; top:25%;        transform: translate(-50%, -50%);left:34.5%""></img><img src=""media/stimuli/animate_009_right.png"" class=""coveredImage test"" style = ""width:100px; height:100px;position:fixed; top:25%;        transform: translate(-50%, -50%);left:41.5%""></img><img src=""media/stimuli/animate_009_left.png"" class=""coveredImage test"" style = ""width:100px; height:100px;position:fixed; top:25%;        transform: translate(-50%, -50%);left:58%""></img><img src=""media/f.png""style = ""width:30px x; height:30px;position:fixed; top:43%;    transform: translate(-50%, -50%);left:40%""></img><img src=""media/j.png""style = ""width:30px; height:30px;position:fixed; top:43%;    transform: translate(-50%, -50%);left:60%""></img>","media/stimuli/animate_009_left.png","animate","left","pair","media/stimuli/animate_009_right.png","animate","right","pair","media/stimuli/animate_009_left.png","animate","left","single","pose_number","","","",""
"","","","","","html-keyboard-response","18","199576","0.0-18.0","SS1678233195436","5b757a03976ecb0001b1168f","6406d7f26dd5b7fc1e3377bd","6407ce5981783d9f5ce64f1c","1536","714","","2705","","j","","","<img src=""media/stimuli/inanimate_008_right.png"" class=""coveredImage test"" style = ""width:100px; height:100px; position:fixed; top:10%;    transform: translate(-50%, -50%);left:44.5%""></img><img src=""media/stimuli/inanimate_008_right.png"" class=""coveredImage test"" style = ""width:100px; height:100px; position:fixed; top:10%;    transform: translate(-50%, -50%);left:51.5%""></img><img src=""media/stimuli/animate_003_right.png"" class=""coveredImage test"" style = ""width:100px; height:100px;position:fixed; top:25%;        transform: translate(-50%, -50%);left:34.5%""></img><img src=""media/stimuli/animate_003_right.png"" class=""coveredImage test"" style = ""width:100px; height:100px;position:fixed; top:25%;        transform: translate(-50%, -50%);left:41.5%""></img><img src=""media/stimuli/inanimate_007_right.png"" class=""coveredImage test"" style = ""width:100px; height:100px;position:fixed; top:25%;        transform: translate(-50%, -50%);left:54.5%""></img><img src=""media/stimuli/inanimate_007_right.png"" class=""coveredImage test"" style = ""width:100px; height:100px;position:fixed; top:25%;        transform: translate(-50%, -50%);left:61.5%""></img><img src=""media/f.png""style = ""width:30px x; height:30px;position:fixed; top:43%;    transform: translate(-50%, -50%);left:40%""></img><img src=""media/j.png""style = ""width:30px; height:30px;position:fixed; top:43%;    transform: translate(-50%, -50%);left:60%""></img>","media/stimuli/inanimate_008_right.png","inanimate","right","pair","media/stimuli/animate_003_right.png","animate","right","pair","media/stimuli/inanimate_007_right.png","inanimate","right","pair","animacy_identity","","","",""
"","","","","","html-keyboard-response","19","201352","0.0-19.0","SS1678233195436","5b757a03976ecb0001b1168f","6406d7f26dd5b7fc1e3377bd","6407ce5981783d9f5ce64f1c","1536","714","","1774","","f","","","<img src=""media/stimuli/inanimate_001_left.png"" class=""coveredImage test"" style = ""width:100px; height:100px; position:fixed; top:10%;    transform: translate(-50%, -50%);left:44.5%""></img><img src=""media/stimuli/inanimate_001_left.png"" class=""coveredImage test"" style = ""width:100px; height:100px; position:fixed; top:10%;    transform: translate(-50%, -50%);left:51.5%""></img><img src=""media/stimuli/inanimate_012_left.png"" class=""coveredImage test"" style = ""width:100px; height:100px;position:fixed; top:25%;        transform: translate(-50%, -50%);left:34.5%""></img><img src=""media/stimuli/inanimate_012_left.png"" class=""coveredImage test"" style = ""width:100px; height:100px;position:fixed; top:25%;        transform: translate(-50%, -50%);left:41.5%""></img><img src=""media/stimuli/inanimate_001_right.png"" class=""coveredImage test"" style = ""width:100px; height:100px;position:fixed; top:25%;        transform: translate(-50%, -50%);left:54.5%""></img><img src=""media/stimuli/inanimate_001_right.png"" class=""coveredImage test"" style = ""width:100px; height:100px;position:fixed; top:25%;        transform: translate(-50%, -50%);left:61.5%""></img><img src=""media/f.png""style = ""width:30px x; height:30px;position:fixed; top:43%;    transform: translate(-50%, -50%);left:40%""></img><img src=""media/j.png""style = ""width:30px; height:30px;position:fixed; top:43%;    transform: translate(-50%, -50%);left:60%""></img>","media/stimuli/inanimate_001_left.png","inanimate","left","pair","media/stimuli/inanimate_012_left.png","inanimate","left","pair","media/stimuli/inanimate_001_right.png","inanimate","right","pair","identity_pose","","","",""
"","","","","","html-keyboard-response","20","204023","0.0-20.0","SS1678233195436","5b757a03976ecb0001b1168f","6406d7f26dd5b7fc1e3377bd","6407ce5981783d9f5ce64f1c","1536","714","","2669","","j","","","","","","","","","","","","","","","","","","","",""
"","","","","","survey-likert","21","213426","0.0-21.0","SS1678233195436","5b757a03976ecb0001b1168f","6406d7f26dd5b7fc1e3377bd","6407ce5981783d9f5ce64f1c","1536","714","","9401","","{""Q0"":3}","[0]","complexity","","","","","","","","","","","","","","","media/stimuli/animate_011_left.png","animate","pair","left"
"","","","","","survey-likert","22","217027","0.0-22.0","SS1678233195436","5b757a03976ecb0001b1168f","6406d7f26dd5b7fc1e3377bd","6407ce5981783d9f5ce64f1c","1536","714","","3597","","{""Q0"":3}","[0]","complexity","","","","","","","","","","","","","","","media/stimuli/animate_011_right.png","animate","single","right"
"","","","","","survey-likert","23","221678","0.0-23.0","SS1678233195436","5b757a03976ecb0001b1168f","6406d7f26dd5b7fc1e3377bd","6407ce5981783d9f5ce64f1c","1536","714","","4647","","{""Q0"":1}","[0]","complexity","","","","","","","","","","","","","","","media/stimuli/inanimate_003_right.png","inanimate","pair","right"
"","","","","","survey-likert","24","224008","0.0-24.0","SS1678233195436","5b757a03976ecb0001b1168f","6406d7f26dd5b7fc1e3377bd","6407ce5981783d9f5ce64f1c","1536","714","","2326","","{""Q0"":1}","[0]","complexity","","","","","","","","","","","","","","","media/stimuli/inanimate_002_left.png","inanimate","single","left"
"","","","","","survey-likert","25","227679","0.0-25.0","SS1678233195436","5b757a03976ecb0001b1168f","6406d7f26dd5b7fc1e3377bd","6407ce5981783d9f5ce64f1c","1536","714","","3667","","{""Q0"":3}","[0]","complexity","","","","","","","","","","","","","","","media/stimuli/animate_012_left.png","animate","single","left"
"","","","","","survey-likert","26","230169","0.0-26.0","SS1678233195436","5b757a03976ecb0001b1168f","6406d7f26dd5b7fc1e3377bd","6407ce5981783d9f5ce64f1c","1536","714","","2485","","{""Q0"":3}","[0]","complexity","","","","","","","","","","","","","","","media/stimuli/animate_009_left.png","animate","pair","left"
"","","","","","survey-likert","27","236941","0.0-27.0","SS1678233195436","5b757a03976ecb0001b1168f","6406d7f26dd5b7fc1e3377bd","6407ce5981783d9f5ce64f1c","1536","714","","6767","","{""Q0"":2}","[0]","complexity","","","","","","","","","","","","","","","media/stimuli/animate_008_right.png","animate","single","right"
"","","","","","survey-likert","28","239927","0.0-28.0","SS1678233195436","5b757a03976ecb0001b1168f","6406d7f26dd5b7fc1e3377bd","6407ce5981783d9f5ce64f1c","1536","714","","2982","","{""Q0"":3}","[0]","complexity","","","","","","","","","","","","","","","media/stimuli/animate_012_right.png","animate","single","right"
"","","","","","survey-likert","29","243368","0.0-29.0","SS1678233195436","5b757a03976ecb0001b1168f","6406d7f26dd5b7fc1e3377bd","6407ce5981783d9f5ce64f1c","1536","714","","3437","","{""Q0"":2}","[0]","complexity","","","","","","","","","","","","","","","media/stimuli/animate_008_left.png","animate","single","left"
"","","","","","survey-likert","30","247309","0.0-30.0","SS1678233195436","5b757a03976ecb0001b1168f","6406d7f26dd5b7fc1e3377bd","6407ce5981783d9f5ce64f1c","1536","714","","3937","","{""Q0"":1}","[0]","complexity","","","","","","","","","","","","","","","media/stimuli/animate_002_left.png","animate","single","left"
"","","","","","survey-likert","31","249434","0.0-31.0","SS1678233195436","5b757a03976ecb0001b1168f","6406d7f26dd5b7fc1e3377bd","6407ce5981783d9f5ce64f1c","1536","714","","2121","","{""Q0"":2}","[0]","complexity","","","","","","","","","","","","","","","media/stimuli/animate_001_left.png","animate","single","left"
"","","","","","survey-likert","32","252477","0.0-32.0","SS1678233195436","5b757a03976ecb0001b1168f","6406d7f26dd5b7fc1e3377bd","6407ce5981783d9f5ce64f1c","1536","714","","3039","","{""Q0"":1}","[0]","complexity","","","","","","","","","","","","","","","media/stimuli/inanimate_004_right.png","inanimate","single","right"
"","","","","","html-keyboard-response","33","256394","0.0-33.0","SS1678233195436","5b757a03976ecb0001b1168f","6406d7f26dd5b7fc1e3377bd","6407ce5981783d9f5ce64f1c","1536","714","","3914","","l","","","","","","","","","","","","","","","","","","","",""
"","","","","","html-keyboard-response","34","261272","0.0-34.0","SS1678233195436","5b757a03976ecb0001b1168f","6406d7f26dd5b7fc1e3377bd","6407ce5981783d9f5ce64f1c","1536","714","","4874","","j","","","<img src=""media/stimuli/inanimate_012_right.png"" class=""coveredImage test"" style = ""width:100px; height:100px; position:fixed; top:10%;    transform: translate(-50%, -50%);left:48%""></img><img src=""media/stimuli/animate_001_right.png"" class=""coveredImage test"" style = ""width:100px; height:100px;position:fixed; top:25%;        transform: translate(-50%, -50%);left:34.5%""></img><img src=""media/stimuli/animate_001_right.png"" class=""coveredImage test"" style = ""width:100px; height:100px;position:fixed; top:25%;        transform: translate(-50%, -50%);left:41.5%""></img><img src=""media/stimuli/inanimate_012_left.png"" class=""coveredImage test"" style = ""width:100px; height:100px;position:fixed; top:25%;        transform: translate(-50%, -50%);left:54.5%""></img><img src=""media/stimuli/inanimate_012_left.png"" class=""coveredImage test"" style = ""width:100px; height:100px;position:fixed; top:25%;        transform: translate(-50%, -50%);left:61.5%""></img><img src=""media/f.png""style = ""width:30px x; height:30px;position:fixed; top:43%;    transform: translate(-50%, -50%);left:40%""></img><img src=""media/j.png""style = ""width:30px; height:30px;position:fixed; top:43%;    transform: translate(-50%, -50%);left:60%""></img>","media/stimuli/inanimate_012_right.png","inanimate","right","single","media/stimuli/animate_001_right.png","animate","right","pair","media/stimuli/inanimate_012_left.png","inanimate","left","pair","animacy_pose","","","",""
"","","","","","html-keyboard-response","35","264421","0.0-35.0","SS1678233195436","5b757a03976ecb0001b1168f","6406d7f26dd5b7fc1e3377bd","6407ce5981783d9f5ce64f1c","1536","714","","3147","","j","","","<img src=""media/stimuli/inanimate_012_left.png"" class=""coveredImage test"" style = ""width:100px; height:100px; position:fixed; top:10%;    transform: translate(-50%, -50%);left:48%""></img><img src=""media/stimuli/animate_011_left.png"" class=""coveredImage test"" style = ""width:100px; height:100px;position:fixed; top:25%;        transform: translate(-50%, -50%);left:38%""></img><img src=""media/stimuli/inanimate_005_left.png"" class=""coveredImage test"" style = ""width:100px; height:100px;position:fixed; top:25%;        transform: translate(-50%, -50%);left:58%""></img><img src=""media/f.png""style = ""width:30px x; height:30px;position:fixed; top:43%;    transform: translate(-50%, -50%);left:40%""></img><img src=""media/j.png""style = ""width:30px; height:30px;position:fixed; top:43%;    transform: translate(-50%, -50%);left:60%""></img>","media/stimuli/inanimate_012_left.png","inanimate","left","single","media/stimuli/animate_011_left.png","animate","left","single","media/stimuli/inanimate_005_left.png","inanimate","left","single","animacy_identity","","","",""
"","","","","","html-keyboard-response","36","265519","0.0-36.0","SS1678233195436","5b757a03976ecb0001b1168f","6406d7f26dd5b7fc1e3377bd","6407ce5981783d9f5ce64f1c","1536","714","","1094","","f","","","<img src=""media/stimuli/animate_001_left.png"" class=""coveredImage test"" style = ""width:100px; height:100px; position:fixed; top:10%;    transform: translate(-50%, -50%);left:48%""></img><img src=""media/stimuli/animate_001_left.png"" class=""coveredImage test"" style = ""width:100px; height:100px;position:fixed; top:25%;        transform: translate(-50%, -50%);left:34.5%""></img><img src=""media/stimuli/animate_001_left.png"" class=""coveredImage test"" style = ""width:100px; height:100px;position:fixed; top:25%;        transform: translate(-50%, -50%);left:41.5%""></img><img src=""media/stimuli/inanimate_002_left.png"" class=""coveredImage test"" style = ""width:100px; height:100px;position:fixed; top:25%;        transform: translate(-50%, -50%);left:58%""></img><img src=""media/f.png""style = ""width:30px x; height:30px;position:fixed; top:43%;    transform: translate(-50%, -50%);left:40%""></img><img src=""media/j.png""style = ""width:30px; height:30px;position:fixed; top:43%;    transform: translate(-50%, -50%);left:60%""></img>","media/stimuli/animate_001_left.png","animate","left","single","media/stimuli/animate_001_left.png","animate","left","pair","media/stimuli/inanimate_002_left.png","inanimate","left","single","number_animacy","","","",""
"","","","","","html-keyboard-response","37","266520","0.0-37.0","SS1678233195436","5b757a03976ecb0001b1168f","6406d7f26dd5b7fc1e3377bd","6407ce5981783d9f5ce64f1c","1536","714","","999","","j","","","<img src=""media/stimuli/animate_001_left.png"" class=""coveredImage test"" style = ""width:100px; height:100px; position:fixed; top:10%;    transform: translate(-50%, -50%);left:48%""></img><img src=""media/stimuli/inanimate_005_left.png"" class=""coveredImage test"" style = ""width:100px; height:100px;position:fixed; top:25%;        transform: translate(-50%, -50%);left:38%""></img><img src=""media/stimuli/animate_001_left.png"" class=""coveredImage test"" style = ""width:100px; height:100px;position:fixed; top:25%;        transform: translate(-50%, -50%);left:54.5%""></img><img src=""media/stimuli/animate_001_left.png"" class=""coveredImage test"" style = ""width:100px; height:100px;position:fixed; top:25%;        transform: translate(-50%, -50%);left:61.5%""></img><img src=""media/f.png""style = ""width:30px x; height:30px;position:fixed; top:43%;    transform: translate(-50%, -50%);left:40%""></img><img src=""media/j.png""style = ""width:30px; height:30px;position:fixed; top:43%;    transform: translate(-50%, -50%);left:60%""></img>","media/stimuli/animate_001_left.png","animate","left","single","media/stimuli/inanimate_005_left.png","inanimate","left","single","media/stimuli/animate_001_left.png","animate","left","pair","animacy_number","","","",""
"","","","","","html-keyboard-response","38","267364","0.0-38.0","SS1678233195436","5b757a03976ecb0001b1168f","6406d7f26dd5b7fc1e3377bd","6407ce5981783d9f5ce64f1c","1536","714","","841","","j","","","<img src=""media/stimuli/animate_003_left.png"" class=""coveredImage test"" style = ""width:100px; height:100px; position:fixed; top:10%;    transform: translate(-50%, -50%);left:48%""></img><img src=""media/stimuli/inanimate_003_left.png"" class=""coveredImage test"" style = ""width:100px; height:100px;position:fixed; top:25%;        transform: translate(-50%, -50%);left:34.5%""></img><img src=""media/stimuli/inanimate_003_left.png"" class=""coveredImage test"" style = ""width:100px; height:100px;position:fixed; top:25%;        transform: translate(-50%, -50%);left:41.5%""></img><img src=""media/stimuli/animate_003_right.png"" class=""coveredImage test"" style = ""width:100px; height:100px;position:fixed; top:25%;        transform: translate(-50%, -50%);left:54.5%""></img><img src=""media/stimuli/animate_003_right.png"" class=""coveredImage test"" style = ""width:100px; height:100px;position:fixed; top:25%;        transform: translate(-50%, -50%);left:61.5%""></img><img src=""media/f.png""style = ""width:30px x; height:30px;position:fixed; top:43%;    transform: translate(-50%, -50%);left:40%""></img><img src=""media/j.png""style = ""width:30px; height:30px;position:fixed; top:43%;    transform: translate(-50%, -50%);left:60%""></img>","media/stimuli/animate_003_left.png","animate","left","single","media/stimuli/inanimate_003_left.png","inanimate","left","pair","media/stimuli/animate_003_right.png","animate","right","pair","animacy_pose","","","",""
"","","","","","html-keyboard-response","39","268590","0.0-39.0","SS1678233195436","5b757a03976ecb0001b1168f","6406d7f26dd5b7fc1e3377bd","6407ce5981783d9f5ce64f1c","1536","714","","1224","","f","","","<img src=""media/stimuli/animate_004_right.png"" class=""coveredImage test"" style = ""width:100px; height:100px; position:fixed; top:10%;    transform: translate(-50%, -50%);left:48%""></img><img src=""media/stimuli/animate_010_right.png"" class=""coveredImage test"" style = ""width:100px; height:100px;position:fixed; top:25%;        transform: translate(-50%, -50%);left:38%""></img><img src=""media/stimuli/inanimate_002_right.png"" class=""coveredImage test"" style = ""width:100px; height:100px;position:fixed; top:25%;        transform: translate(-50%, -50%);left:58%""></img><img src=""media/f.png""style = ""width:30px x; height:30px;position:fixed; top:43%;    transform: translate(-50%, -50%);left:40%""></img><img src=""media/j.png""style = ""width:30px; height:30px;position:fixed; top:43%;    transform: translate(-50%, -50%);left:60%""></img>","media/stimuli/animate_004_right.png","animate","right","single","media/stimuli/animate_010_right.png","animate","right","single","media/stimuli/inanimate_002_right.png","inanimate","right","single","identity_animacy","","","",""
"","","","","","html-keyboard-response","40","270414","0.0-40.0","SS1678233195436","5b757a03976ecb0001b1168f","6406d7f26dd5b7fc1e3377bd","6407ce5981783d9f5ce64f1c","1536","714","","1822","","j","","","<img src=""media/stimuli/animate_011_right.png"" class=""coveredImage test"" style = ""width:100px; height:100px; position:fixed; top:10%;    transform: translate(-50%, -50%);left:44.5%""></img><img src=""media/stimuli/animate_011_right.png"" class=""coveredImage test"" style = ""width:100px; height:100px; position:fixed; top:10%;    transform: translate(-50%, -50%);left:51.5%""></img><img src=""media/stimuli/animate_011_left.png"" class=""coveredImage test"" style = ""width:100px; height:100px;position:fixed; top:25%;        transform: translate(-50%, -50%);left:34.5%""></img><img src=""media/stimuli/animate_011_left.png"" class=""coveredImage test"" style = ""width:100px; height:100px;position:fixed; top:25%;        transform: translate(-50%, -50%);left:41.5%""></img><img src=""media/stimuli/animate_011_right.png"" class=""coveredImage test"" style = ""width:100px; height:100px;position:fixed; top:25%;        transform: translate(-50%, -50%);left:58%""></img><img src=""media/f.png""style = ""width:30px x; height:30px;position:fixed; top:43%;    transform: translate(-50%, -50%);left:40%""></img><img src=""media/j.png""style = ""width:30px; height:30px;position:fixed; top:43%;    transform: translate(-50%, -50%);left:60%""></img>","media/stimuli/animate_011_right.png","animate","right","pair","media/stimuli/animate_011_left.png","animate","left","pair","media/stimuli/animate_011_right.png","animate","right","single","pose_number","","","",""
"","","","","","html-keyboard-response","41","271660","0.0-41.0","SS1678233195436","5b757a03976ecb0001b1168f","6406d7f26dd5b7fc1e3377bd","6407ce5981783d9f5ce64f1c","1536","714","","1241","","f","","","<img src=""media/stimuli/animate_004_left.png"" class=""coveredImage test"" style = ""width:100px; height:100px; position:fixed; top:10%;    transform: translate(-50%, -50%);left:48%""></img><img src=""media/stimuli/animate_004_left.png"" class=""coveredImage test"" style = ""width:100px; height:100px;position:fixed; top:25%;        transform: translate(-50%, -50%);left:34.5%""></img><img src=""media/stimuli/animate_004_left.png"" class=""coveredImage test"" style = ""width:100px; height:100px;position:fixed; top:25%;        transform: translate(-50%, -50%);left:41.5%""></img><img src=""media/stimuli/animate_004_right.png"" class=""coveredImage test"" style = ""width:100px; height:100px;position:fixed; top:25%;        transform: translate(-50%, -50%);left:58%""></img><img src=""media/f.png""style = ""width:30px x; height:30px;position:fixed; top:43%;    transform: translate(-50%, -50%);left:40%""></img><img src=""media/j.png""style = ""width:30px; height:30px;position:fixed; top:43%;    transform: translate(-50%, -50%);left:60%""></img>","media/stimuli/animate_004_left.png","animate","left","single","media/stimuli/animate_004_left.png","animate","left","pair","media/stimuli/animate_004_right.png","animate","right","single","number_pose","","","",""
"","","","","","html-keyboard-response","42","272579","0.0-42.0","SS1678233195436","5b757a03976ecb0001b1168f","6406d7f26dd5b7fc1e3377bd","6407ce5981783d9f5ce64f1c","1536","714","","913","","j","","","<img src=""media/stimuli/inanimate_008_left.png"" class=""coveredImage test"" style = ""width:100px; height:100px; position:fixed; top:10%;    transform: translate(-50%, -50%);left:44.5%""></img><img src=""media/stimuli/inanimate_008_left.png"" class=""coveredImage test"" style = ""width:100px; height:100px; position:fixed; top:10%;    transform: translate(-50%, -50%);left:51.5%""></img><img src=""media/stimuli/animate_006_right.png"" class=""coveredImage test"" style = ""width:100px; height:100px;position:fixed; top:25%;        transform: translate(-50%, -50%);left:34.5%""></img><img src=""media/stimuli/animate_006_right.png"" class=""coveredImage test"" style = ""width:100px; height:100px;position:fixed; top:25%;        transform: translate(-50%, -50%);left:41.5%""></img><img src=""media/stimuli/inanimate_008_left.png"" class=""coveredImage test"" style = ""width:100px; height:100px;position:fixed; top:25%;        transform: translate(-50%, -50%);left:54.5%""></img><img src=""media/stimuli/inanimate_008_left.png"" class=""coveredImage test"" style = ""width:100px; height:100px;position:fixed; top:25%;        transform: translate(-50%, -50%);left:61.5%""></img><img src=""media/f.png""style = ""width:30px x; height:30px;position:fixed; top:43%;    transform: translate(-50%, -50%);left:40%""></img><img src=""media/j.png""style = ""width:30px; height:30px;position:fixed; top:43%;    transform: translate(-50%, -50%);left:60%""></img>","media/stimuli/inanimate_008_left.png","inanimate","left","pair","media/stimuli/animate_006_right.png","animate","right","pair","media/stimuli/inanimate_008_left.png","inanimate","left","pair","animacy_pose","","","",""
"","","","","","html-keyboard-response","43","273622","0.0-43.0","SS1678233195436","5b757a03976ecb0001b1168f","6406d7f26dd5b7fc1e3377bd","6407ce5981783d9f5ce64f1c","1536","714","","1041","","f","","","<img src=""media/stimuli/animate_010_right.png"" class=""coveredImage test"" style = ""width:100px; height:100px; position:fixed; top:10%;    transform: translate(-50%, -50%);left:44.5%""></img><img src=""media/stimuli/animate_010_right.png"" class=""coveredImage test"" style = ""width:100px; height:100px; position:fixed; top:10%;    transform: translate(-50%, -50%);left:51.5%""></img><img src=""media/stimuli/animate_010_left.png"" class=""coveredImage test"" style = ""width:100px; height:100px;position:fixed; top:25%;        transform: translate(-50%, -50%);left:34.5%""></img><img src=""media/stimuli/animate_010_left.png"" class=""coveredImage test"" style = ""width:100px; height:100px;position:fixed; top:25%;        transform: translate(-50%, -50%);left:41.5%""></img><img src=""media/stimuli/animate_006_right.png"" class=""coveredImage test"" style = ""width:100px; height:100px;position:fixed; top:25%;        transform: translate(-50%, -50%);left:54.5%""></img><img src=""media/stimuli/animate_006_right.png"" class=""coveredImage test"" style = ""width:100px; height:100px;position:fixed; top:25%;        transform: translate(-50%, -50%);left:61.5%""></img><img src=""media/f.png""style = ""width:30px x; height:30px;position:fixed; top:43%;    transform: translate(-50%, -50%);left:40%""></img><img src=""media/j.png""style = ""width:30px; height:30px;position:fixed; top:43%;    transform: translate(-50%, -50%);left:60%""></img>","media/stimuli/animate_010_right.png","animate","right","pair","media/stimuli/animate_010_left.png","animate","left","pair","media/stimuli/animate_006_right.png","animate","right","pair","pose_identity","","","",""
"","","","","","html-keyboard-response","44","274676","0.0-44.0","SS1678233195436","5b757a03976ecb0001b1168f","6406d7f26dd5b7fc1e3377bd","6407ce5981783d9f5ce64f1c","1536","714","","1049","","j","","","<img src=""media/stimuli/inanimate_001_right.png"" class=""coveredImage test"" style = ""width:100px; height:100px; position:fixed; top:10%;    transform: translate(-50%, -50%);left:48%""></img><img src=""media/stimuli/animate_012_right.png"" class=""coveredImage test"" style = ""width:100px; height:100px;position:fixed; top:25%;        transform: translate(-50%, -50%);left:38%""></img><img src=""media/stimuli/inanimate_010_right.png"" class=""coveredImage test"" style = ""width:100px; height:100px;position:fixed; top:25%;        transform: translate(-50%, -50%);left:58%""></img><img src=""media/f.png""style = ""width:30px x; height:30px;position:fixed; top:43%;    transform: translate(-50%, -50%);left:40%""></img><img src=""media/j.png""style = ""width:30px; height:30px;position:fixed; top:43%;    transform: translate(-50%, -50%);left:60%""></img>","media/stimuli/inanimate_001_right.png","inanimate","right","single","media/stimuli/animate_012_right.png","animate","right","single","media/stimuli/inanimate_010_right.png","inanimate","right","single","animacy_identity","","","",""
"","","","","","html-keyboard-response","45","275822","0.0-45.0","SS1678233195436","5b757a03976ecb0001b1168f","6406d7f26dd5b7fc1e3377bd","6407ce5981783d9f5ce64f1c","1536","714","","1143","","j","","","<img src=""media/stimuli/animate_006_left.png"" class=""coveredImage test"" style = ""width:100px; height:100px; position:fixed; top:10%;    transform: translate(-50%, -50%);left:48%""></img><img src=""media/stimuli/inanimate_004_left.png"" class=""coveredImage test"" style = ""width:100px; height:100px;position:fixed; top:25%;        transform: translate(-50%, -50%);left:38%""></img><img src=""media/stimuli/animate_006_left.png"" class=""coveredImage test"" style = ""width:100px; height:100px;position:fixed; top:25%;        transform: translate(-50%, -50%);left:54.5%""></img><img src=""media/stimuli/animate_006_left.png"" class=""coveredImage test"" style = ""width:100px; height:100px;position:fixed; top:25%;        transform: translate(-50%, -50%);left:61.5%""></img><img src=""media/f.png""style = ""width:30px x; height:30px;position:fixed; top:43%;    transform: translate(-50%, -50%);left:40%""></img><img src=""media/j.png""style = ""width:30px; height:30px;position:fixed; top:43%;    transform: translate(-50%, -50%);left:60%""></img>","media/stimuli/animate_006_left.png","animate","left","single","media/stimuli/inanimate_004_left.png","inanimate","left","single","media/stimuli/animate_006_left.png","animate","left","pair","animacy_number","","","",""
"","","","","","html-keyboard-response","46","278292","0.0-46.0","SS1678233195436","5b757a03976ecb0001b1168f","6406d7f26dd5b7fc1e3377bd","6407ce5981783d9f5ce64f1c","1536","714","","2466","","j","","","","","","","","","","","","","","","","","","","",""
"","","","","","survey-likert","47","284824","0.0-47.0","SS1678233195436","5b757a03976ecb0001b1168f","6406d7f26dd5b7fc1e3377bd","6407ce5981783d9f5ce64f1c","1536","714","","6525","","{""Q0"":2}","[0]","complexity","","","","","","","","","","","","","","","media/stimuli/animate_009_right.png","animate","single","right"
"","","","","","survey-likert","48","288027","0.0-48.0","SS1678233195436","5b757a03976ecb0001b1168f","6406d7f26dd5b7fc1e3377bd","6407ce5981783d9f5ce64f1c","1536","714","","3198","","{""Q0"":2}","[0]","complexity","","","","","","","","","","","","","","","media/stimuli/animate_006_left.png","animate","single","left"
"","","","","","survey-likert","49","290762","0.0-49.0","SS1678233195436","5b757a03976ecb0001b1168f","6406d7f26dd5b7fc1e3377bd","6407ce5981783d9f5ce64f1c","1536","714","","2730","","{""Q0"":2}","[0]","complexity","","","","","","","","","","","","","","","media/stimuli/inanimate_006_right.png","inanimate","single","right"
"","","","","","survey-likert","50","293492","0.0-50.0","SS1678233195436","5b757a03976ecb0001b1168f","6406d7f26dd5b7fc1e3377bd","6407ce5981783d9f5ce64f1c","1536","714","","2727","","{""Q0"":1}","[0]","complexity","","","","","","","","","","","","","","","media/stimuli/inanimate_012_left.png","inanimate","single","left"
"","","","","","survey-likert","51","296486","0.0-51.0","SS1678233195436","5b757a03976ecb0001b1168f","6406d7f26dd5b7fc1e3377bd","6407ce5981783d9f5ce64f1c","1536","714","","2989","","{""Q0"":2}","[0]","complexity","","","","","","","","","","","","","","","media/stimuli/inanimate_010_left.png","inanimate","single","left"
"","","","","","survey-likert","52","299170","0.0-52.0","SS1678233195436","5b757a03976ecb0001b1168f","6406d7f26dd5b7fc1e3377bd","6407ce5981783d9f5ce64f1c","1536","714","","2680","","{""Q0"":1}","[0]","complexity","","","","","","","","","","","","","","","media/stimuli/inanimate_004_left.png","inanimate","pair","left"
"","","","","","survey-likert","53","301886","0.0-53.0","SS1678233195436","5b757a03976ecb0001b1168f","6406d7f26dd5b7fc1e3377bd","6407ce5981783d9f5ce64f1c","1536","714","","2711","","{""Q0"":3}","[0]","complexity","","","","","","","","","","","","","","","media/stimuli/animate_011_left.png","animate","single","left"
"","","","","","survey-likert","54","303754","0.0-54.0","SS1678233195436","5b757a03976ecb0001b1168f","6406d7f26dd5b7fc1e3377bd","6407ce5981783d9f5ce64f1c","1536","714","","1862","","{""Q0"":2}","[0]","complexity","","","","","","","","","","","","","","","media/stimuli/inanimate_010_right.png","inanimate","single","right"
"","","","","","survey-likert","55","305780","0.0-55.0","SS1678233195436","5b757a03976ecb0001b1168f","6406d7f26dd5b7fc1e3377bd","6407ce5981783d9f5ce64f1c","1536","714","","2021","","{""Q0"":2}","[0]","complexity","","","","","","","","","","","","","","","media/stimuli/inanimate_006_right.png","inanimate","pair","right"
"","","","","","survey-likert","56","308107","0.0-56.0","SS1678233195436","5b757a03976ecb0001b1168f","6406d7f26dd5b7fc1e3377bd","6407ce5981783d9f5ce64f1c","1536","714","","2322","","{""Q0"":1}","[0]","complexity","","","","","","","","","","","","","","","media/stimuli/inanimate_001_right.png","inanimate","pair","right"
"","","","","","survey-likert","57","310372","0.0-57.0","SS1678233195436","5b757a03976ecb0001b1168f","6406d7f26dd5b7fc1e3377bd","6407ce5981783d9f5ce64f1c","1536","714","","2260","","{""Q0"":2}","[0]","complexity","","","","","","","","","","","","","","","media/stimuli/animate_008_right.png","animate","pair","right"
"","","","","","survey-likert","58","312893","0.0-58.0","SS1678233195436","5b757a03976ecb0001b1168f","6406d7f26dd5b7fc1e3377bd","6407ce5981783d9f5ce64f1c","1536","714","","2517","","{""Q0"":1}","[0]","complexity","","","","","","","","","","","","","","","media/stimuli/inanimate_005_right.png","inanimate","single","right"
"","","","","","html-keyboard-response","59","316642","0.0-59.0","SS1678233195436","5b757a03976ecb0001b1168f","6406d7f26dd5b7fc1e3377bd","6407ce5981783d9f5ce64f1c","1536","714","","3744","","k","","","","","","","","","","","","","","","","","","","",""
"","","","","","survey-likert","60","321041","0.0-60.0","SS1678233195436","5b757a03976ecb0001b1168f","6406d7f26dd5b7fc1e3377bd","6407ce5981783d9f5ce64f1c","1536","714","","4393","","{""Q0"":1}","[0]","complexity","","","","","","","","","","","","","","","media/stimuli/inanimate_001_left.png","inanimate","single","left"
"","","","","","survey-likert","61","323873","0.0-61.0","SS1678233195436","5b757a03976ecb0001b1168f","6406d7f26dd5b7fc1e3377bd","6407ce5981783d9f5ce64f1c","1536","714","","2828","","{""Q0"":2}","[0]","complexity","","","","","","","","","","","","","","","media/stimuli/animate_010_left.png","animate","single","left"
"","","","","","survey-likert","62","325871","0.0-62.0","SS1678233195436","5b757a03976ecb0001b1168f","6406d7f26dd5b7fc1e3377bd","6407ce5981783d9f5ce64f1c","1536","714","","1995","","{""Q0"":2}","[0]","complexity","","","","","","","","","","","","","","","media/stimuli/inanimate_008_left.png","inanimate","pair","left"
"","","","","","survey-likert","63","329014","0.0-63.0","SS1678233195436","5b757a03976ecb0001b1168f","6406d7f26dd5b7fc1e3377bd","6407ce5981783d9f5ce64f1c","1536","714","","3138","","{""Q0"":1}","[0]","complexity","","","","","","","","","","","","","","","media/stimuli/inanimate_005_left.png","inanimate","pair","left"
"","","","","","survey-likert","64","331168","0.0-64.0","SS1678233195436","5b757a03976ecb0001b1168f","6406d7f26dd5b7fc1e3377bd","6407ce5981783d9f5ce64f1c","1536","714","","2149","","{""Q0"":2}","[0]","complexity","","","","","","","","","","","","","","","media/stimuli/animate_006_left.png","animate","pair","left"
"","","","","","survey-likert","65","333085","0.0-65.0","SS1678233195436","5b757a03976ecb0001b1168f","6406d7f26dd5b7fc1e3377bd","6407ce5981783d9f5ce64f1c","1536","714","","1913","","{""Q0"":2}","[0]","complexity","","","","","","","","","","","","","","","media/stimuli/animate_005_left.png","animate","single","left"
"","","","","","survey-likert","66","334886","0.0-66.0","SS1678233195436","5b757a03976ecb0001b1168f","6406d7f26dd5b7fc1e3377bd","6407ce5981783d9f5ce64f1c","1536","714","","1795","","{""Q0"":2}","[0]","complexity","","","","","","","","","","","","","","","media/stimuli/animate_007_left.png","animate","single","left"
"","","","","","survey-likert","67","337163","0.0-67.0","SS1678233195436","5b757a03976ecb0001b1168f","6406d7f26dd5b7fc1e3377bd","6407ce5981783d9f5ce64f1c","1536","714","","2272","","{""Q0"":2}","[0]","complexity","","","","","","","","","","","","","","","media/stimuli/animate_010_right.png","animate","pair","right"
"","","","","","survey-likert","68","339289","0.0-68.0","SS1678233195436","5b757a03976ecb0001b1168f","6406d7f26dd5b7fc1e3377bd","6407ce5981783d9f5ce64f1c","1536","714","","2121","","{""Q0"":1}","[0]","complexity","","","","","","","","","","","","","","","media/stimuli/inanimate_001_left.png","inanimate","pair","left"
"","","","","","survey-likert","69","341364","0.0-69.0","SS1678233195436","5b757a03976ecb0001b1168f","6406d7f26dd5b7fc1e3377bd","6407ce5981783d9f5ce64f1c","1536","714","","2070","","{""Q0"":2}","[0]","complexity","","","","","","","","","","","","","","","media/stimuli/animate_005_right.png","animate","single","right"
"","","","","","survey-likert","70","344756","0.0-70.0","SS1678233195436","5b757a03976ecb0001b1168f","6406d7f26dd5b7fc1e3377bd","6407ce5981783d9f5ce64f1c","1536","714","","3387","","{""Q0"":1}","[0]","complexity","","","","","","","","","","","","","","","media/stimuli/inanimate_004_right.png","inanimate","pair","right"
"","","","","","survey-likert","71","348002","0.0-71.0","SS1678233195436","5b757a03976ecb0001b1168f","6406d7f26dd5b7fc1e3377bd","6407ce5981783d9f5ce64f1c","1536","714","","3240","","{""Q0"":2}","[0]","complexity","","","","","","","","","","","","","","","media/stimuli/animate_009_right.png","animate","pair","right"
"","","","","","html-keyboard-response","72","350233","0.0-72.0","SS1678233195436","5b757a03976ecb0001b1168f","6406d7f26dd5b7fc1e3377bd","6407ce5981783d9f5ce64f1c","1536","714","","2227","","k","","","","","","","","","","","","","","","","","","","",""
"","","","","","survey-likert","73","354118","0.0-73.0","SS1678233195436","5b757a03976ecb0001b1168f","6406d7f26dd5b7fc1e3377bd","6407ce5981783d9f5ce64f1c","1536","714","","3878","","{""Q0"":1}","[0]","complexity","","","","","","","","","","","","","","","media/stimuli/inanimate_009_left.png","inanimate","single","left"
"","","","","","survey-likert","74","358487","0.0-74.0","SS1678233195436","5b757a03976ecb0001b1168f","6406d7f26dd5b7fc1e3377bd","6407ce5981783d9f5ce64f1c","1536","714","","4364","","{""Q0"":1}","[0]","complexity","","","","","","","","","","","","","","","media/stimuli/inanimate_009_left.png","inanimate","pair","left"
"","","","","","survey-likert","75","360325","0.0-75.0","SS1678233195436","5b757a03976ecb0001b1168f","6406d7f26dd5b7fc1e3377bd","6407ce5981783d9f5ce64f1c","1536","714","","1833","","{""Q0"":2}","[0]","complexity","","","","","","","","","","","","","","","media/stimuli/inanimate_007_left.png","inanimate","pair","left"
"","","","","","survey-likert","76","362053","0.0-76.0","SS1678233195436","5b757a03976ecb0001b1168f","6406d7f26dd5b7fc1e3377bd","6407ce5981783d9f5ce64f1c","1536","714","","1723","","{""Q0"":2}","[0]","complexity","","","","","","","","","","","","","","","media/stimuli/inanimate_011_right.png","inanimate","pair","right"
"","","","","","survey-likert","77","364729","0.0-77.0","SS1678233195436","5b757a03976ecb0001b1168f","6406d7f26dd5b7fc1e3377bd","6407ce5981783d9f5ce64f1c","1536","714","","2672","","{""Q0"":2}","[0]","complexity","","","","","","","","","","","","","","","media/stimuli/animate_008_left.png","animate","pair","left"
"","","","","","survey-likert","78","367366","0.0-78.0","SS1678233195436","5b757a03976ecb0001b1168f","6406d7f26dd5b7fc1e3377bd","6407ce5981783d9f5ce64f1c","1536","714","","2632","","{""Q0"":2}","[0]","complexity","","","","","","","","","","","","","","","media/stimuli/animate_001_right.png","animate","pair","right"
"","","","","","survey-likert","79","369854","0.0-79.0","SS1678233195436","5b757a03976ecb0001b1168f","6406d7f26dd5b7fc1e3377bd","6407ce5981783d9f5ce64f1c","1536","714","","2484","","{""Q0"":2}","[0]","complexity","","","","","","","","","","","","","","","media/stimuli/inanimate_010_right.png","inanimate","pair","right"
"","","","","","survey-likert","80","371745","0.0-80.0","SS1678233195436","5b757a03976ecb0001b1168f","6406d7f26dd5b7fc1e3377bd","6407ce5981783d9f5ce64f1c","1536","714","","1886","","{""Q0"":1}","[0]","complexity","","","","","","","","","","","","","","","media/stimuli/inanimate_009_right.png","inanimate","single","right"
"","","","","","survey-likert","81","373569","0.0-81.0","SS1678233195436","5b757a03976ecb0001b1168f","6406d7f26dd5b7fc1e3377bd","6407ce5981783d9f5ce64f1c","1536","714","","1820","","{""Q0"":2}","[0]","complexity","","","","","","","","","","","","","","","media/stimuli/animate_002_left.png","animate","pair","left"
"","","","","","survey-likert","82","376858","0.0-82.0","SS1678233195436","5b757a03976ecb0001b1168f","6406d7f26dd5b7fc1e3377bd","6407ce5981783d9f5ce64f1c","1536","714","","3284","","{""Q0"":2}","[0]","complexity","","","","","","","","","","","","","","","media/stimuli/animate_003_right.png","animate","single","right"
"","","","","","survey-likert","83","378959","0.0-83.0","SS1678233195436","5b757a03976ecb0001b1168f","6406d7f26dd5b7fc1e3377bd","6407ce5981783d9f5ce64f1c","1536","714","","2097","","{""Q0"":2}","[0]","complexity","","","","","","","","","","","","","","","media/stimuli/animate_005_right.png","animate","pair","right"
"","","","","","survey-likert","84","381441","0.0-84.0","SS1678233195436","5b757a03976ecb0001b1168f","6406d7f26dd5b7fc1e3377bd","6407ce5981783d9f5ce64f1c","1536","714","","2477","","{""Q0"":2}","[0]","complexity","","","","","","","","","","","","","","","media/stimuli/animate_007_left.png","animate","pair","left"
"","","","","","html-keyboard-response","85","383715","0.0-85.0","SS1678233195436","5b757a03976ecb0001b1168f","6406d7f26dd5b7fc1e3377bd","6407ce5981783d9f5ce64f1c","1536","714","","2269","","k","","","","","","","","","","","","","","","","","","","",""
"","","","","","html-keyboard-response","86","386837","0.0-86.0","SS1678233195436","5b757a03976ecb0001b1168f","6406d7f26dd5b7fc1e3377bd","6407ce5981783d9f5ce64f1c","1536","714","","3116","","j","","","<img src=""media/stimuli/animate_008_right.png"" class=""coveredImage test"" style = ""width:100px; height:100px; position:fixed; top:10%;    transform: translate(-50%, -50%);left:48%""></img><img src=""media/stimuli/animate_005_right.png"" class=""coveredImage test"" style = ""width:100px; height:100px;position:fixed; top:25%;        transform: translate(-50%, -50%);left:38%""></img><img src=""media/stimuli/animate_008_right.png"" class=""coveredImage test"" style = ""width:100px; height:100px;position:fixed; top:25%;        transform: translate(-50%, -50%);left:54.5%""></img><img src=""media/stimuli/animate_008_right.png"" class=""coveredImage test"" style = ""width:100px; height:100px;position:fixed; top:25%;        transform: translate(-50%, -50%);left:61.5%""></img><img src=""media/f.png""style = ""width:30px x; height:30px;position:fixed; top:43%;    transform: translate(-50%, -50%);left:40%""></img><img src=""media/j.png""style = ""width:30px; height:30px;position:fixed; top:43%;    transform: translate(-50%, -50%);left:60%""></img>","media/stimuli/animate_008_right.png","animate","right","single","media/stimuli/animate_005_right.png","animate","right","single","media/stimuli/animate_008_right.png","animate","right","pair","identity_number","","","",""
"","","","","","html-keyboard-response","87","388401","0.0-87.0","SS1678233195436","5b757a03976ecb0001b1168f","6406d7f26dd5b7fc1e3377bd","6407ce5981783d9f5ce64f1c","1536","714","","1559","","f","","","<img src=""media/stimuli/animate_012_left.png"" class=""coveredImage test"" style = ""width:100px; height:100px; position:fixed; top:10%;    transform: translate(-50%, -50%);left:48%""></img><img src=""media/stimuli/animate_012_left.png"" class=""coveredImage test"" style = ""width:100px; height:100px;position:fixed; top:25%;        transform: translate(-50%, -50%);left:34.5%""></img><img src=""media/stimuli/animate_012_left.png"" class=""coveredImage test"" style = ""width:100px; height:100px;position:fixed; top:25%;        transform: translate(-50%, -50%);left:41.5%""></img><img src=""media/stimuli/animate_012_right.png"" class=""coveredImage test"" style = ""width:100px; height:100px;position:fixed; top:25%;        transform: translate(-50%, -50%);left:58%""></img><img src=""media/f.png""style = ""width:30px x; height:30px;position:fixed; top:43%;    transform: translate(-50%, -50%);left:40%""></img><img src=""media/j.png""style = ""width:30px; height:30px;position:fixed; top:43%;    transform: translate(-50%, -50%);left:60%""></img>","media/stimuli/animate_012_left.png","animate","left","single","media/stimuli/animate_012_left.png","animate","left","pair","media/stimuli/animate_012_right.png","animate","right","single","number_pose","","","",""
"","","","","","html-keyboard-response","88","390071","0.0-88.0","SS1678233195436","5b757a03976ecb0001b1168f","6406d7f26dd5b7fc1e3377bd","6407ce5981783d9f5ce64f1c","1536","714","","1662","","f","","","<img src=""media/stimuli/animate_003_left.png"" class=""coveredImage test"" style = ""width:100px; height:100px; position:fixed; top:10%;    transform: translate(-50%, -50%);left:44.5%""></img><img src=""media/stimuli/animate_003_left.png"" class=""coveredImage test"" style = ""width:100px; height:100px; position:fixed; top:10%;    transform: translate(-50%, -50%);left:51.5%""></img><img src=""media/stimuli/animate_003_left.png"" class=""coveredImage test"" style = ""width:100px; height:100px;position:fixed; top:25%;        transform: translate(-50%, -50%);left:38%""></img><img src=""media/stimuli/animate_003_right.png"" class=""coveredImage test"" style = ""width:100px; height:100px;position:fixed; top:25%;        transform: translate(-50%, -50%);left:54.5%""></img><img src=""media/stimuli/animate_003_right.png"" class=""coveredImage test"" style = ""width:100px; height:100px;position:fixed; top:25%;        transform: translate(-50%, -50%);left:61.5%""></img><img src=""media/f.png""style = ""width:30px x; height:30px;position:fixed; top:43%;    transform: translate(-50%, -50%);left:40%""></img><img src=""media/j.png""style = ""width:30px; height:30px;position:fixed; top:43%;    transform: translate(-50%, -50%);left:60%""></img>","media/stimuli/animate_003_left.png","animate","left","pair","media/stimuli/animate_003_left.png","animate","left","single","media/stimuli/animate_003_right.png","animate","right","pair","number_pose","","","",""
"","","","","","html-keyboard-response","89","392235","0.0-89.0","SS1678233195436","5b757a03976ecb0001b1168f","6406d7f26dd5b7fc1e3377bd","6407ce5981783d9f5ce64f1c","1536","714","","2158","","f","","","<img src=""media/stimuli/inanimate_005_right.png"" class=""coveredImage test"" style = ""width:100px; height:100px; position:fixed; top:10%;    transform: translate(-50%, -50%);left:48%""></img><img src=""media/stimuli/inanimate_009_right.png"" class=""coveredImage test"" style = ""width:100px; height:100px;position:fixed; top:25%;        transform: translate(-50%, -50%);left:38%""></img><img src=""media/stimuli/animate_005_right.png"" class=""coveredImage test"" style = ""width:100px; height:100px;position:fixed; top:25%;        transform: translate(-50%, -50%);left:58%""></img><img src=""media/f.png""style = ""width:30px x; height:30px;position:fixed; top:43%;    transform: translate(-50%, -50%);left:40%""></img><img src=""media/j.png""style = ""width:30px; height:30px;position:fixed; top:43%;    transform: translate(-50%, -50%);left:60%""></img>","media/stimuli/inanimate_005_right.png","inanimate","right","single","media/stimuli/inanimate_009_right.png","inanimate","right","single","media/stimuli/animate_005_right.png","animate","right","single","identity_animacy","","","",""
"","","","","","html-keyboard-response","90","393113","0.0-90.0","SS1678233195436","5b757a03976ecb0001b1168f","6406d7f26dd5b7fc1e3377bd","6407ce5981783d9f5ce64f1c","1536","714","","869","","j","","","<img src=""media/stimuli/animate_006_left.png"" class=""coveredImage test"" style = ""width:100px; height:100px; position:fixed; top:10%;    transform: translate(-50%, -50%);left:48%""></img><img src=""media/stimuli/animate_009_left.png"" class=""coveredImage test"" style = ""width:100px; height:100px;position:fixed; top:25%;        transform: translate(-50%, -50%);left:38%""></img><img src=""media/stimuli/animate_006_left.png"" class=""coveredImage test"" style = ""width:100px; height:100px;position:fixed; top:25%;        transform: translate(-50%, -50%);left:54.5%""></img><img src=""media/stimuli/animate_006_left.png"" class=""coveredImage test"" style = ""width:100px; height:100px;position:fixed; top:25%;        transform: translate(-50%, -50%);left:61.5%""></img><img src=""media/f.png""style = ""width:30px x; height:30px;position:fixed; top:43%;    transform: translate(-50%, -50%);left:40%""></img><img src=""media/j.png""style = ""width:30px; height:30px;position:fixed; top:43%;    transform: translate(-50%, -50%);left:60%""></img>","media/stimuli/animate_006_left.png","animate","left","single","media/stimuli/animate_009_left.png","animate","left","single","media/stimuli/animate_006_left.png","animate","left","pair","identity_number","","","",""
"","","","","","html-keyboard-response","91","393871","0.0-91.0","SS1678233195436","5b757a03976ecb0001b1168f","6406d7f26dd5b7fc1e3377bd","6407ce5981783d9f5ce64f1c","1536","714","","751","","j","","","<img src=""media/stimuli/inanimate_005_right.png"" class=""coveredImage test"" style = ""width:100px; height:100px; position:fixed; top:10%;    transform: translate(-50%, -50%);left:44.5%""></img><img src=""media/stimuli/inanimate_005_right.png"" class=""coveredImage test"" style = ""width:100px; height:100px; position:fixed; top:10%;    transform: translate(-50%, -50%);left:51.5%""></img><img src=""media/stimuli/animate_003_left.png"" class=""coveredImage test"" style = ""width:100px; height:100px;position:fixed; top:25%;        transform: translate(-50%, -50%);left:38%""></img><img src=""media/stimuli/inanimate_005_right.png"" class=""coveredImage test"" style = ""width:100px; height:100px;position:fixed; top:25%;        transform: translate(-50%, -50%);left:58%""></img><img src=""media/f.png""style = ""width:30px x; height:30px;position:fixed; top:43%;    transform: translate(-50%, -50%);left:40%""></img><img src=""media/j.png""style = ""width:30px; height:30px;position:fixed; top:43%;    transform: translate(-50%, -50%);left:60%""></img>","media/stimuli/inanimate_005_right.png","inanimate","right","pair","media/stimuli/animate_003_left.png","animate","left","single","media/stimuli/inanimate_005_right.png","inanimate","right","single","animacy_pose","","","",""
"","","","","","html-keyboard-response","92","394639","0.0-92.0","SS1678233195436","5b757a03976ecb0001b1168f","6406d7f26dd5b7fc1e3377bd","6407ce5981783d9f5ce64f1c","1536","714","","761","","f","","","<img src=""media/stimuli/inanimate_004_right.png"" class=""coveredImage test"" style = ""width:100px; height:100px; position:fixed; top:10%;    transform: translate(-50%, -50%);left:44.5%""></img><img src=""media/stimuli/inanimate_004_right.png"" class=""coveredImage test"" style = ""width:100px; height:100px; position:fixed; top:10%;    transform: translate(-50%, -50%);left:51.5%""></img><img src=""media/stimuli/inanimate_004_left.png"" class=""coveredImage test"" style = ""width:100px; height:100px;position:fixed; top:25%;        transform: translate(-50%, -50%);left:34.5%""></img><img src=""media/stimuli/inanimate_004_left.png"" class=""coveredImage test"" style = ""width:100px; height:100px;position:fixed; top:25%;        transform: translate(-50%, -50%);left:41.5%""></img><img src=""media/stimuli/inanimate_005_right.png"" class=""coveredImage test"" style = ""width:100px; height:100px;position:fixed; top:25%;        transform: translate(-50%, -50%);left:54.5%""></img><img src=""media/stimuli/inanimate_005_right.png"" class=""coveredImage test"" style = ""width:100px; height:100px;position:fixed; top:25%;        transform: translate(-50%, -50%);left:61.5%""></img><img src=""media/f.png""style = ""width:30px x; height:30px;position:fixed; top:43%;    transform: translate(-50%, -50%);left:40%""></img><img src=""media/j.png""style = ""width:30px; height:30px;position:fixed; top:43%;    transform: translate(-50%, -50%);left:60%""></img>","media/stimuli/inanimate_004_right.png","inanimate","right","pair","media/stimuli/inanimate_004_left.png","inanimate","left","pair","media/stimuli/inanimate_005_right.png","inanimate","right","pair","pose_identity","","","",""
"","","","","","html-keyboard-response","93","397065","0.0-93.0","SS1678233195436","5b757a03976ecb0001b1168f","6406d7f26dd5b7fc1e3377bd","6407ce5981783d9f5ce64f1c","1536","714","","2419","","f","","","<img src=""media/stimuli/inanimate_001_right.png"" class=""coveredImage test"" style = ""width:100px; height:100px; position:fixed; top:10%;    transform: translate(-50%, -50%);left:48%""></img><img src=""media/stimuli/inanimate_007_right.png"" class=""coveredImage test"" style = ""width:100px; height:100px;position:fixed; top:25%;        transform: translate(-50%, -50%);left:38%""></img><img src=""media/stimuli/animate_005_right.png"" class=""coveredImage test"" style = ""width:100px; height:100px;position:fixed; top:25%;        transform: translate(-50%, -50%);left:58%""></img><img src=""media/f.png""style = ""width:30px x; height:30px;position:fixed; top:43%;    transform: translate(-50%, -50%);left:40%""></img><img src=""media/j.png""style = ""width:30px; height:30px;position:fixed; top:43%;    transform: translate(-50%, -50%);left:60%""></img>","media/stimuli/inanimate_001_right.png","inanimate","right","single","media/stimuli/inanimate_007_right.png","inanimate","right","single","media/stimuli/animate_005_right.png","animate","right","single","identity_animacy","","","",""
"","","","","","html-keyboard-response","94","398240","0.0-94.0","SS1678233195436","5b757a03976ecb0001b1168f","6406d7f26dd5b7fc1e3377bd","6407ce5981783d9f5ce64f1c","1536","714","","1171","","j","","","<img src=""media/stimuli/animate_001_right.png"" class=""coveredImage test"" style = ""width:100px; height:100px; position:fixed; top:10%;    transform: translate(-50%, -50%);left:44.5%""></img><img src=""media/stimuli/animate_001_right.png"" class=""coveredImage test"" style = ""width:100px; height:100px; position:fixed; top:10%;    transform: translate(-50%, -50%);left:51.5%""></img><img src=""media/stimuli/animate_008_right.png"" class=""coveredImage test"" style = ""width:100px; height:100px;position:fixed; top:25%;        transform: translate(-50%, -50%);left:34.5%""></img><img src=""media/stimuli/animate_008_right.png"" class=""coveredImage test"" style = ""width:100px; height:100px;position:fixed; top:25%;        transform: translate(-50%, -50%);left:41.5%""></img><img src=""media/stimuli/animate_001_right.png"" class=""coveredImage test"" style = ""width:100px; height:100px;position:fixed; top:25%;        transform: translate(-50%, -50%);left:58%""></img><img src=""media/f.png""style = ""width:30px x; height:30px;position:fixed; top:43%;    transform: translate(-50%, -50%);left:40%""></img><img src=""media/j.png""style = ""width:30px; height:30px;position:fixed; top:43%;    transform: translate(-50%, -50%);left:60%""></img>","media/stimuli/animate_001_right.png","animate","right","pair","media/stimuli/animate_008_right.png","animate","right","pair","media/stimuli/animate_001_right.png","animate","right","single","identity_number","","","",""
"","","","","","html-keyboard-response","95","399539","0.0-95.0","SS1678233195436","5b757a03976ecb0001b1168f","6406d7f26dd5b7fc1e3377bd","6407ce5981783d9f5ce64f1c","1536","714","","1290","","j","","","<img src=""media/stimuli/animate_007_left.png"" class=""coveredImage test"" style = ""width:100px; height:100px; position:fixed; top:10%;    transform: translate(-50%, -50%);left:48%""></img><img src=""media/stimuli/inanimate_012_left.png"" class=""coveredImage test"" style = ""width:100px; height:100px;position:fixed; top:25%;        transform: translate(-50%, -50%);left:38%""></img><img src=""media/stimuli/animate_007_left.png"" class=""coveredImage test"" style = ""width:100px; height:100px;position:fixed; top:25%;        transform: translate(-50%, -50%);left:54.5%""></img><img src=""media/stimuli/animate_007_left.png"" class=""coveredImage test"" style = ""width:100px; height:100px;position:fixed; top:25%;        transform: translate(-50%, -50%);left:61.5%""></img><img src=""media/f.png""style = ""width:30px x; height:30px;position:fixed; top:43%;    transform: translate(-50%, -50%);left:40%""></img><img src=""media/j.png""style = ""width:30px; height:30px;position:fixed; top:43%;    transform: translate(-50%, -50%);left:60%""></img>","media/stimuli/animate_007_left.png","animate","left","single","media/stimuli/inanimate_012_left.png","inanimate","left","single","media/stimuli/animate_007_left.png","animate","left","pair","animacy_number","","","",""
"","","","","","html-keyboard-response","96","401437","0.0-96.0","SS1678233195436","5b757a03976ecb0001b1168f","6406d7f26dd5b7fc1e3377bd","6407ce5981783d9f5ce64f1c","1536","714","","1891","","j","","","<img src=""media/stimuli/inanimate_011_right.png"" class=""coveredImage test"" style = ""width:100px; height:100px; position:fixed; top:10%;    transform: translate(-50%, -50%);left:48%""></img><img src=""media/stimuli/animate_008_right.png"" class=""coveredImage test"" style = ""width:100px; height:100px;position:fixed; top:25%;        transform: translate(-50%, -50%);left:38%""></img><img src=""media/stimuli/inanimate_005_right.png"" class=""coveredImage test"" style = ""width:100px; height:100px;position:fixed; top:25%;        transform: translate(-50%, -50%);left:58%""></img><img src=""media/f.png""style = ""width:30px x; height:30px;position:fixed; top:43%;    transform: translate(-50%, -50%);left:40%""></img><img src=""media/j.png""style = ""width:30px; height:30px;position:fixed; top:43%;    transform: translate(-50%, -50%);left:60%""></img>","media/stimuli/inanimate_011_right.png","inanimate","right","single","media/stimuli/animate_008_right.png","animate","right","single","media/stimuli/inanimate_005_right.png","inanimate","right","single","animacy_identity","","","",""
"","","","","","html-keyboard-response","97","402917","0.0-97.0","SS1678233195436","5b757a03976ecb0001b1168f","6406d7f26dd5b7fc1e3377bd","6407ce5981783d9f5ce64f1c","1536","714","","1473","","f","","","<img src=""media/stimuli/animate_001_right.png"" class=""coveredImage test"" style = ""width:100px; height:100px; position:fixed; top:10%;    transform: translate(-50%, -50%);left:48%""></img><img src=""media/stimuli/animate_001_left.png"" class=""coveredImage test"" style = ""width:100px; height:100px;position:fixed; top:25%;        transform: translate(-50%, -50%);left:38%""></img><img src=""media/stimuli/animate_012_right.png"" class=""coveredImage test"" style = ""width:100px; height:100px;position:fixed; top:25%;        transform: translate(-50%, -50%);left:58%""></img><img src=""media/f.png""style = ""width:30px x; height:30px;position:fixed; top:43%;    transform: translate(-50%, -50%);left:40%""></img><img src=""media/j.png""style = ""width:30px; height:30px;position:fixed; top:43%;    transform: translate(-50%, -50%);left:60%""></img>","media/stimuli/animate_001_right.png","animate","right","single","media/stimuli/animate_001_left.png","animate","left","single","media/stimuli/animate_012_right.png","animate","right","single","pose_identity","","","",""
"","","","","","html-keyboard-response","98","404907","0.0-98.0","SS1678233195436","5b757a03976ecb0001b1168f","6406d7f26dd5b7fc1e3377bd","6407ce5981783d9f5ce64f1c","1536","714","","1986","","j","","","","","","","","","","","","","","","","","","","",""
"","","","","","html-keyboard-response","99","408636","0.0-99.0","SS1678233195436","5b757a03976ecb0001b1168f","6406d7f26dd5b7fc1e3377bd","6407ce5981783d9f5ce64f1c","1536","714","","3722","","f","","","<img src=""media/stimuli/animate_010_right.png"" class=""coveredImage test"" style = ""width:100px; height:100px; position:fixed; top:10%;    transform: translate(-50%, -50%);left:48%""></img><img src=""media/stimuli/animate_012_right.png"" class=""coveredImage test"" style = ""width:100px; height:100px;position:fixed; top:25%;        transform: translate(-50%, -50%);left:38%""></img><img src=""media/stimuli/inanimate_010_right.png"" class=""coveredImage test"" style = ""width:100px; height:100px;position:fixed; top:25%;        transform: translate(-50%, -50%);left:58%""></img><img src=""media/f.png""style = ""width:30px x; height:30px;position:fixed; top:43%;    transform: translate(-50%, -50%);left:40%""></img><img src=""media/j.png""style = ""width:30px; height:30px;position:fixed; top:43%;    transform: translate(-50%, -50%);left:60%""></img>","media/stimuli/animate_010_right.png","animate","right","single","media/stimuli/animate_012_right.png","animate","right","single","media/stimuli/inanimate_010_right.png","inanimate","right","single","identity_animacy","","","",""
"","","","","","html-keyboard-response","100","410798","0.0-100.0","SS1678233195436","5b757a03976ecb0001b1168f","6406d7f26dd5b7fc1e3377bd","6407ce5981783d9f5ce64f1c","1536","714","","2154","","f","","","<img src=""media/stimuli/animate_001_right.png"" class=""coveredImage test"" style = ""width:100px; height:100px; position:fixed; top:10%;    transform: translate(-50%, -50%);left:44.5%""></img><img src=""media/stimuli/animate_001_right.png"" class=""coveredImage test"" style = ""width:100px; height:100px; position:fixed; top:10%;    transform: translate(-50%, -50%);left:51.5%""></img><img src=""media/stimuli/animate_001_right.png"" class=""coveredImage test"" style = ""width:100px; height:100px;position:fixed; top:25%;        transform: translate(-50%, -50%);left:38%""></img><img src=""media/stimuli/animate_001_left.png"" class=""coveredImage test"" style = ""width:100px; height:100px;position:fixed; top:25%;        transform: translate(-50%, -50%);left:54.5%""></img><img src=""media/stimuli/animate_001_left.png"" class=""coveredImage test"" style = ""width:100px; height:100px;position:fixed; top:25%;        transform: translate(-50%, -50%);left:61.5%""></img><img src=""media/f.png""style = ""width:30px x; height:30px;position:fixed; top:43%;    transform: translate(-50%, -50%);left:40%""></img><img src=""media/j.png""style = ""width:30px; height:30px;position:fixed; top:43%;    transform: translate(-50%, -50%);left:60%""></img>","media/stimuli/animate_001_right.png","animate","right","pair","media/stimuli/animate_001_right.png","animate","right","single","media/stimuli/animate_001_left.png","animate","left","pair","number_pose","","","",""
"","","","","","html-keyboard-response","101","411845","0.0-101.0","SS1678233195436","5b757a03976ecb0001b1168f","6406d7f26dd5b7fc1e3377bd","6407ce5981783d9f5ce64f1c","1536","714","","1044","","f","","","<img src=""media/stimuli/inanimate_003_right.png"" class=""coveredImage test"" style = ""width:100px; height:100px; position:fixed; top:10%;    transform: translate(-50%, -50%);left:44.5%""></img><img src=""media/stimuli/inanimate_003_right.png"" class=""coveredImage test"" style = ""width:100px; height:100px; position:fixed; top:10%;    transform: translate(-50%, -50%);left:51.5%""></img><img src=""media/stimuli/inanimate_003_right.png"" class=""coveredImage test"" style = ""width:100px; height:100px;position:fixed; top:25%;        transform: translate(-50%, -50%);left:34.5%""></img><img src=""media/stimuli/inanimate_003_right.png"" class=""coveredImage test"" style = ""width:100px; height:100px;position:fixed; top:25%;        transform: translate(-50%, -50%);left:41.5%""></img><img src=""media/stimuli/animate_001_left.png"" class=""coveredImage test"" style = ""width:100px; height:100px;position:fixed; top:25%;        transform: translate(-50%, -50%);left:54.5%""></img><img src=""media/stimuli/animate_001_left.png"" class=""coveredImage test"" style = ""width:100px; height:100px;position:fixed; top:25%;        transform: translate(-50%, -50%);left:61.5%""></img><img src=""media/f.png""style = ""width:30px x; height:30px;position:fixed; top:43%;    transform: translate(-50%, -50%);left:40%""></img><img src=""media/j.png""style = ""width:30px; height:30px;position:fixed; top:43%;    transform: translate(-50%, -50%);left:60%""></img>","media/stimuli/inanimate_003_right.png","inanimate","right","pair","media/stimuli/inanimate_003_right.png","inanimate","right","pair","media/stimuli/animate_001_left.png","animate","left","pair","pose_animacy","","","",""
"","","","","","html-keyboard-response","102","412687","0.0-102.0","SS1678233195436","5b757a03976ecb0001b1168f","6406d7f26dd5b7fc1e3377bd","6407ce5981783d9f5ce64f1c","1536","714","","835","","j","","","<img src=""media/stimuli/inanimate_002_right.png"" class=""coveredImage test"" style = ""width:100px; height:100px; position:fixed; top:10%;    transform: translate(-50%, -50%);left:48%""></img><img src=""media/stimuli/inanimate_010_right.png"" class=""coveredImage test"" style = ""width:100px; height:100px;position:fixed; top:25%;        transform: translate(-50%, -50%);left:38%""></img><img src=""media/stimuli/inanimate_002_right.png"" class=""coveredImage test"" style = ""width:100px; height:100px;position:fixed; top:25%;        transform: translate(-50%, -50%);left:54.5%""></img><img src=""media/stimuli/inanimate_002_right.png"" class=""coveredImage test"" style = ""width:100px; height:100px;position:fixed; top:25%;        transform: translate(-50%, -50%);left:61.5%""></img><img src=""media/f.png""style = ""width:30px x; height:30px;position:fixed; top:43%;    transform: translate(-50%, -50%);left:40%""></img><img src=""media/j.png""style = ""width:30px; height:30px;position:fixed; top:43%;    transform: translate(-50%, -50%);left:60%""></img>","media/stimuli/inanimate_002_right.png","inanimate","right","single","media/stimuli/inanimate_010_right.png","inanimate","right","single","media/stimuli/inanimate_002_right.png","inanimate","right","pair","identity_number","","","",""
"","","","","","html-keyboard-response","103","413445","0.0-103.0","SS1678233195436","5b757a03976ecb0001b1168f","6406d7f26dd5b7fc1e3377bd","6407ce5981783d9f5ce64f1c","1536","714","","752","","f","","","<img src=""media/stimuli/inanimate_005_left.png"" class=""coveredImage test"" style = ""width:100px; height:100px; position:fixed; top:10%;    transform: translate(-50%, -50%);left:44.5%""></img><img src=""media/stimuli/inanimate_005_left.png"" class=""coveredImage test"" style = ""width:100px; height:100px; position:fixed; top:10%;    transform: translate(-50%, -50%);left:51.5%""></img><img src=""media/stimuli/inanimate_005_left.png"" class=""coveredImage test"" style = ""width:100px; height:100px;position:fixed; top:25%;        transform: translate(-50%, -50%);left:38%""></img><img src=""media/stimuli/animate_012_left.png"" class=""coveredImage test"" style = ""width:100px; height:100px;position:fixed; top:25%;        transform: translate(-50%, -50%);left:54.5%""></img><img src=""media/stimuli/animate_012_left.png"" class=""coveredImage test"" style = ""width:100px; height:100px;position:fixed; top:25%;        transform: translate(-50%, -50%);left:61.5%""></img><img src=""media/f.png""style = ""width:30px x; height:30px;position:fixed; top:43%;    transform: translate(-50%, -50%);left:40%""></img><img src=""media/j.png""style = ""width:30px; height:30px;position:fixed; top:43%;    transform: translate(-50%, -50%);left:60%""></img>","media/stimuli/inanimate_005_left.png","inanimate","left","pair","media/stimuli/inanimate_005_left.png","inanimate","left","single","media/stimuli/animate_012_left.png","animate","left","pair","number_animacy","","","",""
"","","","","","html-keyboard-response","104","414303","0.0-104.0","SS1678233195436","5b757a03976ecb0001b1168f","6406d7f26dd5b7fc1e3377bd","6407ce5981783d9f5ce64f1c","1536","714","","854","","f","","","<img src=""media/stimuli/inanimate_001_left.png"" class=""coveredImage test"" style = ""width:100px; height:100px; position:fixed; top:10%;    transform: translate(-50%, -50%);left:44.5%""></img><img src=""media/stimuli/inanimate_001_left.png"" class=""coveredImage test"" style = ""width:100px; height:100px; position:fixed; top:10%;    transform: translate(-50%, -50%);left:51.5%""></img><img src=""media/stimuli/inanimate_001_right.png"" class=""coveredImage test"" style = ""width:100px; height:100px;position:fixed; top:25%;        transform: translate(-50%, -50%);left:34.5%""></img><img src=""media/stimuli/inanimate_001_right.png"" class=""coveredImage test"" style = ""width:100px; height:100px;position:fixed; top:25%;        transform: translate(-50%, -50%);left:41.5%""></img><img src=""media/stimuli/inanimate_005_left.png"" class=""coveredImage test"" style = ""width:100px; height:100px;position:fixed; top:25%;        transform: translate(-50%, -50%);left:54.5%""></img><img src=""media/stimuli/inanimate_005_left.png"" class=""coveredImage test"" style = ""width:100px; height:100px;position:fixed; top:25%;        transform: translate(-50%, -50%);left:61.5%""></img><img src=""media/f.png""style = ""width:30px x; height:30px;position:fixed; top:43%;    transform: translate(-50%, -50%);left:40%""></img><img src=""media/j.png""style = ""width:30px; height:30px;position:fixed; top:43%;    transform: translate(-50%, -50%);left:60%""></img>","media/stimuli/inanimate_001_left.png","inanimate","left","pair","media/stimuli/inanimate_001_right.png","inanimate","right","pair","media/stimuli/inanimate_005_left.png","inanimate","left","pair","pose_identity","","","",""
"","","","","","html-keyboard-response","105","416709","0.0-105.0","SS1678233195436","5b757a03976ecb0001b1168f","6406d7f26dd5b7fc1e3377bd","6407ce5981783d9f5ce64f1c","1536","714","","2400","","f","","","<img src=""media/stimuli/inanimate_009_left.png"" class=""coveredImage test"" style = ""width:100px; height:100px; position:fixed; top:10%;    transform: translate(-50%, -50%);left:48%""></img><img src=""media/stimuli/inanimate_009_left.png"" class=""coveredImage test"" style = ""width:100px; height:100px;position:fixed; top:25%;        transform: translate(-50%, -50%);left:34.5%""></img><img src=""media/stimuli/inanimate_009_left.png"" class=""coveredImage test"" style = ""width:100px; height:100px;position:fixed; top:25%;        transform: translate(-50%, -50%);left:41.5%""></img><img src=""media/stimuli/inanimate_009_right.png"" class=""coveredImage test"" style = ""width:100px; height:100px;position:fixed; top:25%;        transform: translate(-50%, -50%);left:58%""></img><img src=""media/f.png""style = ""width:30px x; height:30px;position:fixed; top:43%;    transform: translate(-50%, -50%);left:40%""></img><img src=""media/j.png""style = ""width:30px; height:30px;position:fixed; top:43%;    transform: translate(-50%, -50%);left:60%""></img>","media/stimuli/inanimate_009_left.png","inanimate","left","single","media/stimuli/inanimate_009_left.png","inanimate","left","pair","media/stimuli/inanimate_009_right.png","inanimate","right","single","number_pose","","","",""
"","","","","","html-keyboard-response","106","418272","0.0-106.0","SS1678233195436","5b757a03976ecb0001b1168f","6406d7f26dd5b7fc1e3377bd","6407ce5981783d9f5ce64f1c","1536","714","","1558","","f","","","<img src=""media/stimuli/animate_012_right.png"" class=""coveredImage test"" style = ""width:100px; height:100px; position:fixed; top:10%;    transform: translate(-50%, -50%);left:44.5%""></img><img src=""media/stimuli/animate_012_right.png"" class=""coveredImage test"" style = ""width:100px; height:100px; position:fixed; top:10%;    transform: translate(-50%, -50%);left:51.5%""></img><img src=""media/stimuli/animate_012_right.png"" class=""coveredImage test"" style = ""width:100px; height:100px;position:fixed; top:25%;        transform: translate(-50%, -50%);left:38%""></img><img src=""media/stimuli/animate_002_right.png"" class=""coveredImage test"" style = ""width:100px; height:100px;position:fixed; top:25%;        transform: translate(-50%, -50%);left:54.5%""></img><img src=""media/stimuli/animate_002_right.png"" class=""coveredImage test"" style = ""width:100px; height:100px;position:fixed; top:25%;        transform: translate(-50%, -50%);left:61.5%""></img><img src=""media/f.png""style = ""width:30px x; height:30px;position:fixed; top:43%;    transform: translate(-50%, -50%);left:40%""></img><img src=""media/j.png""style = ""width:30px; height:30px;position:fixed; top:43%;    transform: translate(-50%, -50%);left:60%""></img>","media/stimuli/animate_012_right.png","animate","right","pair","media/stimuli/animate_012_right.png","animate","right","single","media/stimuli/animate_002_right.png","animate","right","pair","number_identity","","","",""
"","","","","","html-keyboard-response","107","419129","0.0-107.0","SS1678233195436","5b757a03976ecb0001b1168f","6406d7f26dd5b7fc1e3377bd","6407ce5981783d9f5ce64f1c","1536","714","","854","","f","","","<img src=""media/stimuli/inanimate_012_right.png"" class=""coveredImage test"" style = ""width:100px; height:100px; position:fixed; top:10%;    transform: translate(-50%, -50%);left:44.5%""></img><img src=""media/stimuli/inanimate_012_right.png"" class=""coveredImage test"" style = ""width:100px; height:100px; position:fixed; top:10%;    transform: translate(-50%, -50%);left:51.5%""></img><img src=""media/stimuli/inanimate_012_right.png"" class=""coveredImage test"" style = ""width:100px; height:100px;position:fixed; top:25%;        transform: translate(-50%, -50%);left:34.5%""></img><img src=""media/stimuli/inanimate_012_right.png"" class=""coveredImage test"" style = ""width:100px; height:100px;position:fixed; top:25%;        transform: translate(-50%, -50%);left:41.5%""></img><img src=""media/stimuli/animate_008_right.png"" class=""coveredImage test"" style = ""width:100px; height:100px;position:fixed; top:25%;        transform: translate(-50%, -50%);left:54.5%""></img><img src=""media/stimuli/animate_008_right.png"" class=""coveredImage test"" style = ""width:100px; height:100px;position:fixed; top:25%;        transform: translate(-50%, -50%);left:61.5%""></img><img src=""media/f.png""style = ""width:30px x; height:30px;position:fixed; top:43%;    transform: translate(-50%, -50%);left:40%""></img><img src=""media/j.png""style = ""width:30px; height:30px;position:fixed; top:43%;    transform: translate(-50%, -50%);left:60%""></img>","media/stimuli/inanimate_012_right.png","inanimate","right","pair","media/stimuli/inanimate_012_right.png","inanimate","right","pair","media/stimuli/animate_008_right.png","animate","right","pair","filler_animacy","","","",""
"","","","","","html-keyboard-response","108","420608","0.0-108.0","SS1678233195436","5b757a03976ecb0001b1168f","6406d7f26dd5b7fc1e3377bd","6407ce5981783d9f5ce64f1c","1536","714","","1469","","f","","","<img src=""media/stimuli/inanimate_011_left.png"" class=""coveredImage test"" style = ""width:100px; height:100px; position:fixed; top:10%;    transform: translate(-50%, -50%);left:44.5%""></img><img src=""media/stimuli/inanimate_011_left.png"" class=""coveredImage test"" style = ""width:100px; height:100px; position:fixed; top:10%;    transform: translate(-50%, -50%);left:51.5%""></img><img src=""media/stimuli/inanimate_011_left.png"" class=""coveredImage test"" style = ""width:100px; height:100px;position:fixed; top:25%;        transform: translate(-50%, -50%);left:38%""></img><img src=""media/stimuli/inanimate_011_right.png"" class=""coveredImage test"" style = ""width:100px; height:100px;position:fixed; top:25%;        transform: translate(-50%, -50%);left:54.5%""></img><img src=""media/stimuli/inanimate_011_right.png"" class=""coveredImage test"" style = ""width:100px; height:100px;position:fixed; top:25%;        transform: translate(-50%, -50%);left:61.5%""></img><img src=""media/f.png""style = ""width:30px x; height:30px;position:fixed; top:43%;    transform: translate(-50%, -50%);left:40%""></img><img src=""media/j.png""style = ""width:30px; height:30px;position:fixed; top:43%;    transform: translate(-50%, -50%);left:60%""></img>","media/stimuli/inanimate_011_left.png","inanimate","left","pair","media/stimuli/inanimate_011_left.png","inanimate","left","single","media/stimuli/inanimate_011_right.png","inanimate","right","pair","number_pose","","","",""
"","","","","","html-keyboard-response","109","422070","0.0-109.0","SS1678233195436","5b757a03976ecb0001b1168f","6406d7f26dd5b7fc1e3377bd","6407ce5981783d9f5ce64f1c","1536","714","","1457","","f","","","<img src=""media/stimuli/inanimate_011_right.png"" class=""coveredImage test"" style = ""width:100px; height:100px; position:fixed; top:10%;    transform: translate(-50%, -50%);left:48%""></img><img src=""media/stimuli/inanimate_011_right.png"" class=""coveredImage test"" style = ""width:100px; height:100px;position:fixed; top:25%;        transform: translate(-50%, -50%);left:34.5%""></img><img src=""media/stimuli/inanimate_011_right.png"" class=""coveredImage test"" style = ""width:100px; height:100px;position:fixed; top:25%;        transform: translate(-50%, -50%);left:41.5%""></img><img src=""media/stimuli/animate_009_right.png"" class=""coveredImage test"" style = ""width:100px; height:100px;position:fixed; top:25%;        transform: translate(-50%, -50%);left:58%""></img><img src=""media/f.png""style = ""width:30px x; height:30px;position:fixed; top:43%;    transform: translate(-50%, -50%);left:40%""></img><img src=""media/j.png""style = ""width:30px; height:30px;position:fixed; top:43%;    transform: translate(-50%, -50%);left:60%""></img>","media/stimuli/inanimate_011_right.png","inanimate","right","single","media/stimuli/inanimate_011_right.png","inanimate","right","pair","media/stimuli/animate_009_right.png","animate","right","single","number_animacy","","","",""
"","","","","","html-keyboard-response","110","423046","0.0-110.0","SS1678233195436","5b757a03976ecb0001b1168f","6406d7f26dd5b7fc1e3377bd","6407ce5981783d9f5ce64f1c","1536","714","","968","","j","","","<img src=""media/stimuli/animate_008_right.png"" class=""coveredImage test"" style = ""width:100px; height:100px; position:fixed; top:10%;    transform: translate(-50%, -50%);left:48%""></img><img src=""media/stimuli/animate_004_right.png"" class=""coveredImage test"" style = ""width:100px; height:100px;position:fixed; top:25%;        transform: translate(-50%, -50%);left:38%""></img><img src=""media/stimuli/animate_008_right.png"" class=""coveredImage test"" style = ""width:100px; height:100px;position:fixed; top:25%;        transform: translate(-50%, -50%);left:54.5%""></img><img src=""media/stimuli/animate_008_right.png"" class=""coveredImage test"" style = ""width:100px; height:100px;position:fixed; top:25%;        transform: translate(-50%, -50%);left:61.5%""></img><img src=""media/f.png""style = ""width:30px x; height:30px;position:fixed; top:43%;    transform: translate(-50%, -50%);left:40%""></img><img src=""media/j.png""style = ""width:30px; height:30px;position:fixed; top:43%;    transform: translate(-50%, -50%);left:60%""></img>","media/stimuli/animate_008_right.png","animate","right","single","media/stimuli/animate_004_right.png","animate","right","single","media/stimuli/animate_008_right.png","animate","right","pair","identity_number","","","",""
"","","","","","html-keyboard-response","111","424748","0.0-111.0","SS1678233195436","5b757a03976ecb0001b1168f","6406d7f26dd5b7fc1e3377bd","6407ce5981783d9f5ce64f1c","1536","714","","1694","","j","","","","","","","","","","","","","","","","","","","",""
"","","","","","survey-likert","112","428134","0.0-112.0","SS1678233195436","5b757a03976ecb0001b1168f","6406d7f26dd5b7fc1e3377bd","6407ce5981783d9f5ce64f1c","1536","714","","3378","","{""Q0"":2}","[0]","complexity","","","","","","","","","","","","","","","media/stimuli/inanimate_008_left.png","inanimate","single","left"
"","","","","","survey-likert","113","432030","0.0-113.0","SS1678233195436","5b757a03976ecb0001b1168f","6406d7f26dd5b7fc1e3377bd","6407ce5981783d9f5ce64f1c","1536","714","","3890","","{""Q0"":2}","[0]","complexity","","","","","","","","","","","","","","","media/stimuli/animate_006_right.png","animate","pair","right"
"","","","","","survey-likert","114","433965","0.0-114.0","SS1678233195436","5b757a03976ecb0001b1168f","6406d7f26dd5b7fc1e3377bd","6407ce5981783d9f5ce64f1c","1536","714","","1930","","{""Q0"":2}","[0]","complexity","","","","","","","","","","","","","","","media/stimuli/animate_001_left.png","animate","pair","left"
"","","","","","survey-likert","115","435790","0.0-115.0","SS1678233195436","5b757a03976ecb0001b1168f","6406d7f26dd5b7fc1e3377bd","6407ce5981783d9f5ce64f1c","1536","714","","1818","","{""Q0"":2}","[0]","complexity","","","","","","","","","","","","","","","media/stimuli/animate_007_right.png","animate","single","right"
"","","","","","survey-likert","116","437834","0.0-116.0","SS1678233195436","5b757a03976ecb0001b1168f","6406d7f26dd5b7fc1e3377bd","6407ce5981783d9f5ce64f1c","1536","714","","2038","","{""Q0"":2}","[0]","complexity","","","","","","","","","","","","","","","media/stimuli/animate_010_left.png","animate","pair","left"
"","","","","","survey-likert","117","439772","0.0-117.0","SS1678233195436","5b757a03976ecb0001b1168f","6406d7f26dd5b7fc1e3377bd","6407ce5981783d9f5ce64f1c","1536","714","","1932","","{""Q0"":2}","[0]","complexity","","","","","","","","","","","","","","","media/stimuli/animate_003_right.png","animate","pair","right"
"","","","","","survey-likert","118","442419","0.0-118.0","SS1678233195436","5b757a03976ecb0001b1168f","6406d7f26dd5b7fc1e3377bd","6407ce5981783d9f5ce64f1c","1536","714","","2642","","{""Q0"":2}","[0]","complexity","","","","","","","","","","","","","","","media/stimuli/inanimate_008_right.png","inanimate","pair","right"
"","","","","","survey-likert","119","444598","0.0-119.0","SS1678233195436","5b757a03976ecb0001b1168f","6406d7f26dd5b7fc1e3377bd","6407ce5981783d9f5ce64f1c","1536","714","","2172","","{""Q0"":1}","[0]","complexity","","","","","","","","","","","","","","","media/stimuli/inanimate_009_right.png","inanimate","pair","right"
"","","","","","survey-likert","120","446454","0.0-120.0","SS1678233195436","5b757a03976ecb0001b1168f","6406d7f26dd5b7fc1e3377bd","6407ce5981783d9f5ce64f1c","1536","714","","1851","","{""Q0"":2}","[0]","complexity","","","","","","","","","","","","","","","media/stimuli/inanimate_011_right.png","inanimate","single","right"
"","","","","","survey-likert","121","448127","0.0-121.0","SS1678233195436","5b757a03976ecb0001b1168f","6406d7f26dd5b7fc1e3377bd","6407ce5981783d9f5ce64f1c","1536","714","","1669","","{""Q0"":2}","[0]","complexity","","","","","","","","","","","","","","","media/stimuli/animate_002_right.png","animate","pair","right"
"","","","","","survey-likert","122","450243","0.0-122.0","SS1678233195436","5b757a03976ecb0001b1168f","6406d7f26dd5b7fc1e3377bd","6407ce5981783d9f5ce64f1c","1536","714","","2111","","{""Q0"":2}","[0]","complexity","","","","","","","","","","","","","","","media/stimuli/inanimate_007_left.png","inanimate","single","left"
