"success","timeout","failed_images","failed_audio","failed_video","trial_type","trial_index","time_elapsed","internal_node_id","subject","prolific_id","study","session","window_width","window_height","view_history","rt","stimulus_type","response","question_order","rating_type","stimulus","target","target_animacy","target_pose","target_number","left","left_animacy","left_pose","left_number","right","right_animacy","right_pose","right_number","comparison_type","rating_stimulus","rating_animacy","rating_number","rating_pose"
"true","false","[]","[]","[]","preload","0","3911","0.0-0.0","SS1678233856088","61539b3fa541b182c0fadde1","6406d7f26dd5b7fc1e3377bd","6407ce73917d5ae8b1f07e08","1920","929","","","","","","","","","","","","","","","","","","","","","","","",""
"","","","","","instructions","1","6189","0.0-1.0","SS1678233856088","61539b3fa541b182c0fadde1","6406d7f26dd5b7fc1e3377bd","6407ce73917d5ae8b1f07e08","1920","929","[{""page_index"":0,""viewing_time"":2273}]","2274","","","","","","","","","","","","","","","","","","","","","",""
"","","","","","instructions","2","22949","0.0-2.0","SS1678233856088","61539b3fa541b182c0fadde1","6406d7f26dd5b7fc1e3377bd","6407ce73917d5ae8b1f07e08","1920","929","[{""page_index"":0,""viewing_time"":14751}]","14751","instructions","","","","","","","","","","","","","","","","","","","","",""
"","","","","","instructions","3","26781","0.0-3.0","SS1678233856088","61539b3fa541b182c0fadde1","6406d7f26dd5b7fc1e3377bd","6407ce73917d5ae8b1f07e08","1920","929","[{""page_index"":0,""viewing_time"":3831}]","3831","instructions","","","","","","","","","","","","","","","","","","","","",""
"","","","","","survey-likert","4","37485","0.0-4.0","SS1678233856088","61539b3fa541b182c0fadde1","6406d7f26dd5b7fc1e3377bd","6407ce73917d5ae8b1f07e08","1920","929","","10703","","{""Q0"":4}","[0]","anchoring","","","","","","","","","","","","","","","","","",""
"","","","","","survey-likert","5","42140","0.0-5.0","SS1678233856088","61539b3fa541b182c0fadde1","6406d7f26dd5b7fc1e3377bd","6407ce73917d5ae8b1f07e08","1920","929","","4653","","{""Q0"":2}","[0]","anchoring","","","","","","","","","","","","","","","","","",""
"","","","","","instructions","6","43717","0.0-6.0","SS1678233856088","61539b3fa541b182c0fadde1","6406d7f26dd5b7fc1e3377bd","6407ce73917d5ae8b1f07e08","1920","929","[{""page_index"":0,""viewing_time"":1574}]","1574","instructions","","","","","","","","","","","","","","","","","","","","",""
"true","","","","","fullscreen","7","47111","0.0-7.0","SS1678233856088","61539b3fa541b182c0fadde1","6406d7f26dd5b7fc1e3377bd","6407ce73917d5ae8b1f07e08","1920","929","","","","","","","","","","","","","","","","","","","","","","","",""
"","","","","","html-keyboard-response","8","57063","0.0-8.0","SS1678233856088","61539b3fa541b182c0fadde1","6406d7f26dd5b7fc1e3377bd","6407ce73917d5ae8b1f07e08","1920","929","","9947","","f","","","<img src=""media/stimuli/animate_008_right.png"" class=""coveredImage test"" style = ""width:100px; height:100px; position:fixed; top:10%;    transform: translate(-50%, -50%);left:48%""></img><img src=""media/stimuli/animate_009_right.png"" class=""coveredImage test"" style = ""width:100px; height:100px;position:fixed; top:25%;        transform: translate(-50%, -50%);left:38%""></img><img src=""media/stimuli/inanimate_003_right.png"" class=""coveredImage test"" style = ""width:100px; height:100px;position:fixed; top:25%;        transform: translate(-50%, -50%);left:58%""></img><img src=""media/f.png""style = ""width:30px x; height:30px;position:fixed; top:43%;    transform: translate(-50%, -50%);left:40%""></img><img src=""media/j.png""style = ""width:30px; height:30px;position:fixed; top:43%;    transform: translate(-50%, -50%);left:60%""></img>","media/stimuli/animate_008_right.png","animate","right","single","media/stimuli/animate_009_right.png","animate","right","single","media/stimuli/inanimate_003_right.png","inanimate","right","single","identity_animacy","","","",""
"","","","","","html-keyboard-response","9","60661","0.0-9.0","SS1678233856088","61539b3fa541b182c0fadde1","6406d7f26dd5b7fc1e3377bd","6407ce73917d5ae8b1f07e08","1920","929","","3594","","f","","","<img src=""media/stimuli/inanimate_009_right.png"" class=""coveredImage test"" style = ""width:100px; height:100px; position:fixed; top:10%;    transform: translate(-50%, -50%);left:48%""></img><img src=""media/stimuli/inanimate_009_left.png"" class=""coveredImage test"" style = ""width:100px; height:100px;position:fixed; top:25%;        transform: translate(-50%, -50%);left:38%""></img><img src=""media/stimuli/inanimate_009_right.png"" class=""coveredImage test"" style = ""width:100px; height:100px;position:fixed; top:25%;        transform: translate(-50%, -50%);left:54.5%""></img><img src=""media/stimuli/inanimate_009_right.png"" class=""coveredImage test"" style = ""width:100px; height:100px;position:fixed; top:25%;        transform: translate(-50%, -50%);left:61.5%""></img><img src=""media/f.png""style = ""width:30px x; height:30px;position:fixed; top:43%;    transform: translate(-50%, -50%);left:40%""></img><img src=""media/j.png""style = ""width:30px; height:30px;position:fixed; top:43%;    transform: translate(-50%, -50%);left:60%""></img>","media/stimuli/inanimate_009_right.png","inanimate","right","single","media/stimuli/inanimate_009_left.png","inanimate","left","single","media/stimuli/inanimate_009_right.png","inanimate","right","pair","pose_number","","","",""
"","","","","","html-keyboard-response","10","63269","0.0-10.0","SS1678233856088","61539b3fa541b182c0fadde1","6406d7f26dd5b7fc1e3377bd","6407ce73917d5ae8b1f07e08","1920","929","","2604","","f","","","<img src=""media/stimuli/animate_010_right.png"" class=""coveredImage test"" style = ""width:100px; height:100px; position:fixed; top:10%;    transform: translate(-50%, -50%);left:48%""></img><img src=""media/stimuli/animate_010_left.png"" class=""coveredImage test"" style = ""width:100px; height:100px;position:fixed; top:25%;        transform: translate(-50%, -50%);left:38%""></img><img src=""media/stimuli/animate_005_right.png"" class=""coveredImage test"" style = ""width:100px; height:100px;position:fixed; top:25%;        transform: translate(-50%, -50%);left:58%""></img><img src=""media/f.png""style = ""width:30px x; height:30px;position:fixed; top:43%;    transform: translate(-50%, -50%);left:40%""></img><img src=""media/j.png""style = ""width:30px; height:30px;position:fixed; top:43%;    transform: translate(-50%, -50%);left:60%""></img>","media/stimuli/animate_010_right.png","animate","right","single","media/stimuli/animate_010_left.png","animate","left","single","media/stimuli/animate_005_right.png","animate","right","single","pose_identity","","","",""
"","","","","","html-keyboard-response","11","67733","0.0-11.0","SS1678233856088","61539b3fa541b182c0fadde1","6406d7f26dd5b7fc1e3377bd","6407ce73917d5ae8b1f07e08","1920","929","","4460","","j","","","<img src=""media/stimuli/inanimate_006_left.png"" class=""coveredImage test"" style = ""width:100px; height:100px; position:fixed; top:10%;    transform: translate(-50%, -50%);left:48%""></img><img src=""media/stimuli/animate_012_left.png"" class=""coveredImage test"" style = ""width:100px; height:100px;position:fixed; top:25%;        transform: translate(-50%, -50%);left:38%""></img><img src=""media/stimuli/inanimate_007_left.png"" class=""coveredImage test"" style = ""width:100px; height:100px;position:fixed; top:25%;        transform: translate(-50%, -50%);left:58%""></img><img src=""media/f.png""style = ""width:30px x; height:30px;position:fixed; top:43%;    transform: translate(-50%, -50%);left:40%""></img><img src=""media/j.png""style = ""width:30px; height:30px;position:fixed; top:43%;    transform: translate(-50%, -50%);left:60%""></img>","media/stimuli/inanimate_006_left.png","inanimate","left","single","media/stimuli/animate_012_left.png","animate","left","single","media/stimuli/inanimate_007_left.png","inanimate","left","single","animacy_identity","","","",""
"","","","","","html-keyboard-response","12","70261","0.0-12.0","SS1678233856088","61539b3fa541b182c0fadde1","6406d7f26dd5b7fc1e3377bd","6407ce73917d5ae8b1f07e08","1920","929","","2523","","f","","","<img src=""media/stimuli/animate_005_left.png"" class=""coveredImage test"" style = ""width:100px; height:100px; position:fixed; top:10%;    transform: translate(-50%, -50%);left:44.5%""></img><img src=""media/stimuli/animate_005_left.png"" class=""coveredImage test"" style = ""width:100px; height:100px; position:fixed; top:10%;    transform: translate(-50%, -50%);left:51.5%""></img><img src=""media/stimuli/animate_005_right.png"" class=""coveredImage test"" style = ""width:100px; height:100px;position:fixed; top:25%;        transform: translate(-50%, -50%);left:34.5%""></img><img src=""media/stimuli/animate_005_right.png"" class=""coveredImage test"" style = ""width:100px; height:100px;position:fixed; top:25%;        transform: translate(-50%, -50%);left:41.5%""></img><img src=""media/stimuli/animate_005_left.png"" class=""coveredImage test"" style = ""width:100px; height:100px;position:fixed; top:25%;        transform: translate(-50%, -50%);left:58%""></img><img src=""media/f.png""style = ""width:30px x; height:30px;position:fixed; top:43%;    transform: translate(-50%, -50%);left:40%""></img><img src=""media/j.png""style = ""width:30px; height:30px;position:fixed; top:43%;    transform: translate(-50%, -50%);left:60%""></img>","media/stimuli/animate_005_left.png","animate","left","pair","media/stimuli/animate_005_right.png","animate","right","pair","media/stimuli/animate_005_left.png","animate","left","single","pose_number","","","",""
"","","","","","html-keyboard-response","13","74676","0.0-13.0","SS1678233856088","61539b3fa541b182c0fadde1","6406d7f26dd5b7fc1e3377bd","6407ce73917d5ae8b1f07e08","1920","929","","4411","","j","","","<img src=""media/stimuli/inanimate_009_left.png"" class=""coveredImage test"" style = ""width:100px; height:100px; position:fixed; top:10%;    transform: translate(-50%, -50%);left:48%""></img><img src=""media/stimuli/animate_008_left.png"" class=""coveredImage test"" style = ""width:100px; height:100px;position:fixed; top:25%;        transform: translate(-50%, -50%);left:38%""></img><img src=""media/stimuli/inanimate_006_left.png"" class=""coveredImage test"" style = ""width:100px; height:100px;position:fixed; top:25%;        transform: translate(-50%, -50%);left:58%""></img><img src=""media/f.png""style = ""width:30px x; height:30px;position:fixed; top:43%;    transform: translate(-50%, -50%);left:40%""></img><img src=""media/j.png""style = ""width:30px; height:30px;position:fixed; top:43%;    transform: translate(-50%, -50%);left:60%""></img>","media/stimuli/inanimate_009_left.png","inanimate","left","single","media/stimuli/animate_008_left.png","animate","left","single","media/stimuli/inanimate_006_left.png","inanimate","left","single","animacy_identity","","","",""
"","","","","","html-keyboard-response","14","77300","0.0-14.0","SS1678233856088","61539b3fa541b182c0fadde1","6406d7f26dd5b7fc1e3377bd","6407ce73917d5ae8b1f07e08","1920","929","","2621","","j","","","<img src=""media/stimuli/animate_008_right.png"" class=""coveredImage test"" style = ""width:100px; height:100px; position:fixed; top:10%;    transform: translate(-50%, -50%);left:48%""></img><img src=""media/stimuli/inanimate_006_right.png"" class=""coveredImage test"" style = ""width:100px; height:100px;position:fixed; top:25%;        transform: translate(-50%, -50%);left:38%""></img><img src=""media/stimuli/animate_003_right.png"" class=""coveredImage test"" style = ""width:100px; height:100px;position:fixed; top:25%;        transform: translate(-50%, -50%);left:58%""></img><img src=""media/f.png""style = ""width:30px x; height:30px;position:fixed; top:43%;    transform: translate(-50%, -50%);left:40%""></img><img src=""media/j.png""style = ""width:30px; height:30px;position:fixed; top:43%;    transform: translate(-50%, -50%);left:60%""></img>","media/stimuli/animate_008_right.png","animate","right","single","media/stimuli/inanimate_006_right.png","inanimate","right","single","media/stimuli/animate_003_right.png","animate","right","single","animacy_identity","","","",""
"","","","","","html-keyboard-response","15","78534","0.0-15.0","SS1678233856088","61539b3fa541b182c0fadde1","6406d7f26dd5b7fc1e3377bd","6407ce73917d5ae8b1f07e08","1920","929","","1231","","f","","","<img src=""media/stimuli/inanimate_007_right.png"" class=""coveredImage test"" style = ""width:100px; height:100px; position:fixed; top:10%;    transform: translate(-50%, -50%);left:48%""></img><img src=""media/stimuli/inanimate_007_left.png"" class=""coveredImage test"" style = ""width:100px; height:100px;position:fixed; top:25%;        transform: translate(-50%, -50%);left:38%""></img><img src=""media/stimuli/animate_009_right.png"" class=""coveredImage test"" style = ""width:100px; height:100px;position:fixed; top:25%;        transform: translate(-50%, -50%);left:58%""></img><img src=""media/f.png""style = ""width:30px x; height:30px;position:fixed; top:43%;    transform: translate(-50%, -50%);left:40%""></img><img src=""media/j.png""style = ""width:30px; height:30px;position:fixed; top:43%;    transform: translate(-50%, -50%);left:60%""></img>","media/stimuli/inanimate_007_right.png","inanimate","right","single","media/stimuli/inanimate_007_left.png","inanimate","left","single","media/stimuli/animate_009_right.png","animate","right","single","pose_animacy","","","",""
"","","","","","html-keyboard-response","16","82085","0.0-16.0","SS1678233856088","61539b3fa541b182c0fadde1","6406d7f26dd5b7fc1e3377bd","6407ce73917d5ae8b1f07e08","1920","929","","3546","","j","","","<img src=""media/stimuli/inanimate_008_right.png"" class=""coveredImage test"" style = ""width:100px; height:100px; position:fixed; top:10%;    transform: translate(-50%, -50%);left:44.5%""></img><img src=""media/stimuli/inanimate_008_right.png"" class=""coveredImage test"" style = ""width:100px; height:100px; position:fixed; top:10%;    transform: translate(-50%, -50%);left:51.5%""></img><img src=""media/stimuli/inanimate_005_right.png"" class=""coveredImage test"" style = ""width:100px; height:100px;position:fixed; top:25%;        transform: translate(-50%, -50%);left:34.5%""></img><img src=""media/stimuli/inanimate_005_right.png"" class=""coveredImage test"" style = ""width:100px; height:100px;position:fixed; top:25%;        transform: translate(-50%, -50%);left:41.5%""></img><img src=""media/stimuli/inanimate_008_right.png"" class=""coveredImage test"" style = ""width:100px; height:100px;position:fixed; top:25%;        transform: translate(-50%, -50%);left:58%""></img><img src=""media/f.png""style = ""width:30px x; height:30px;position:fixed; top:43%;    transform: translate(-50%, -50%);left:40%""></img><img src=""media/j.png""style = ""width:30px; height:30px;position:fixed; top:43%;    transform: translate(-50%, -50%);left:60%""></img>","media/stimuli/inanimate_008_right.png","inanimate","right","pair","media/stimuli/inanimate_005_right.png","inanimate","right","pair","media/stimuli/inanimate_008_right.png","inanimate","right","single","identity_number","","","",""
"","","","","","html-keyboard-response","17","83333","0.0-17.0","SS1678233856088","61539b3fa541b182c0fadde1","6406d7f26dd5b7fc1e3377bd","6407ce73917d5ae8b1f07e08","1920","929","","1244","","f","","","<img src=""media/stimuli/animate_008_right.png"" class=""coveredImage test"" style = ""width:100px; height:100px; position:fixed; top:10%;    transform: translate(-50%, -50%);left:48%""></img><img src=""media/stimuli/animate_008_right.png"" class=""coveredImage test"" style = ""width:100px; height:100px;position:fixed; top:25%;        transform: translate(-50%, -50%);left:34.5%""></img><img src=""media/stimuli/animate_008_right.png"" class=""coveredImage test"" style = ""width:100px; height:100px;position:fixed; top:25%;        transform: translate(-50%, -50%);left:41.5%""></img><img src=""media/stimuli/animate_008_left.png"" class=""coveredImage test"" style = ""width:100px; height:100px;position:fixed; top:25%;        transform: translate(-50%, -50%);left:58%""></img><img src=""media/f.png""style = ""width:30px x; height:30px;position:fixed; top:43%;    transform: translate(-50%, -50%);left:40%""></img><img src=""media/j.png""style = ""width:30px; height:30px;position:fixed; top:43%;    transform: translate(-50%, -50%);left:60%""></img>","media/stimuli/animate_008_right.png","animate","right","single","media/stimuli/animate_008_right.png","animate","right","pair","media/stimuli/animate_008_left.png","animate","left","single","number_pose","","","",""
"","","","","","html-keyboard-response","18","85173","0.0-18.0","SS1678233856088","61539b3fa541b182c0fadde1","6406d7f26dd5b7fc1e3377bd","6407ce73917d5ae8b1f07e08","1920","929","","1837","","f","","","<img src=""media/stimuli/inanimate_002_right.png"" class=""coveredImage test"" style = ""width:100px; height:100px; position:fixed; top:10%;    transform: translate(-50%, -50%);left:48%""></img><img src=""media/stimuli/inanimate_002_left.png"" class=""coveredImage test"" style = ""width:100px; height:100px;position:fixed; top:25%;        transform: translate(-50%, -50%);left:38%""></img><img src=""media/stimuli/inanimate_002_right.png"" class=""coveredImage test"" style = ""width:100px; height:100px;position:fixed; top:25%;        transform: translate(-50%, -50%);left:54.5%""></img><img src=""media/stimuli/inanimate_002_right.png"" class=""coveredImage test"" style = ""width:100px; height:100px;position:fixed; top:25%;        transform: translate(-50%, -50%);left:61.5%""></img><img src=""media/f.png""style = ""width:30px x; height:30px;position:fixed; top:43%;    transform: translate(-50%, -50%);left:40%""></img><img src=""media/j.png""style = ""width:30px; height:30px;position:fixed; top:43%;    transform: translate(-50%, -50%);left:60%""></img>","media/stimuli/inanimate_002_right.png","inanimate","right","single","media/stimuli/inanimate_002_left.png","inanimate","left","single","media/stimuli/inanimate_002_right.png","inanimate","right","pair","pose_number","","","",""
"","","","","","html-keyboard-response","19","87156","0.0-19.0","SS1678233856088","61539b3fa541b182c0fadde1","6406d7f26dd5b7fc1e3377bd","6407ce73917d5ae8b1f07e08","1920","929","","1978","","j","","","<img src=""media/stimuli/inanimate_001_left.png"" class=""coveredImage test"" style = ""width:100px; height:100px; position:fixed; top:10%;    transform: translate(-50%, -50%);left:48%""></img><img src=""media/stimuli/animate_003_right.png"" class=""coveredImage test"" style = ""width:100px; height:100px;position:fixed; top:25%;        transform: translate(-50%, -50%);left:34.5%""></img><img src=""media/stimuli/animate_003_right.png"" class=""coveredImage test"" style = ""width:100px; height:100px;position:fixed; top:25%;        transform: translate(-50%, -50%);left:41.5%""></img><img src=""media/stimuli/inanimate_001_left.png"" class=""coveredImage test"" style = ""width:100px; height:100px;position:fixed; top:25%;        transform: translate(-50%, -50%);left:54.5%""></img><img src=""media/stimuli/inanimate_001_left.png"" class=""coveredImage test"" style = ""width:100px; height:100px;position:fixed; top:25%;        transform: translate(-50%, -50%);left:61.5%""></img><img src=""media/f.png""style = ""width:30px x; height:30px;position:fixed; top:43%;    transform: translate(-50%, -50%);left:40%""></img><img src=""media/j.png""style = ""width:30px; height:30px;position:fixed; top:43%;    transform: translate(-50%, -50%);left:60%""></img>","media/stimuli/inanimate_001_left.png","inanimate","left","single","media/stimuli/animate_003_right.png","animate","right","pair","media/stimuli/inanimate_001_left.png","inanimate","left","pair","animacy_pose","","","",""
"","","","","","html-keyboard-response","20","90518","0.0-20.0","SS1678233856088","61539b3fa541b182c0fadde1","6406d7f26dd5b7fc1e3377bd","6407ce73917d5ae8b1f07e08","1920","929","","3359",""," ","","","","","","","","","","","","","","","","","","","",""
"","","","","","survey-likert","21","95324","0.0-21.0","SS1678233856088","61539b3fa541b182c0fadde1","6406d7f26dd5b7fc1e3377bd","6407ce73917d5ae8b1f07e08","1920","929","","4803","","{""Q0"":1}","[0]","complexity","","","","","","","","","","","","","","","media/stimuli/inanimate_001_right.png","inanimate","single","right"
"","","","","","survey-likert","22","100340","0.0-22.0","SS1678233856088","61539b3fa541b182c0fadde1","6406d7f26dd5b7fc1e3377bd","6407ce73917d5ae8b1f07e08","1920","929","","5013","","{""Q0"":1}","[0]","complexity","","","","","","","","","","","","","","","media/stimuli/animate_010_left.png","animate","pair","left"
"","","","","","survey-likert","23","103564","0.0-23.0","SS1678233856088","61539b3fa541b182c0fadde1","6406d7f26dd5b7fc1e3377bd","6407ce73917d5ae8b1f07e08","1920","929","","3221","","{""Q0"":1}","[0]","complexity","","","","","","","","","","","","","","","media/stimuli/animate_009_left.png","animate","single","left"
"","","","","","survey-likert","24","106861","0.0-24.0","SS1678233856088","61539b3fa541b182c0fadde1","6406d7f26dd5b7fc1e3377bd","6407ce73917d5ae8b1f07e08","1920","929","","3293","","{""Q0"":1}","[0]","complexity","","","","","","","","","","","","","","","media/stimuli/animate_002_left.png","animate","single","left"
"","","","","","survey-likert","25","109604","0.0-25.0","SS1678233856088","61539b3fa541b182c0fadde1","6406d7f26dd5b7fc1e3377bd","6407ce73917d5ae8b1f07e08","1920","929","","2741","","{""Q0"":1}","[0]","complexity","","","","","","","","","","","","","","","media/stimuli/animate_008_left.png","animate","single","left"
"","","","","","survey-likert","26","112108","0.0-26.0","SS1678233856088","61539b3fa541b182c0fadde1","6406d7f26dd5b7fc1e3377bd","6407ce73917d5ae8b1f07e08","1920","929","","2501","","{""Q0"":1}","[0]","complexity","","","","","","","","","","","","","","","media/stimuli/animate_003_left.png","animate","pair","left"
"","","","","","survey-likert","27","114564","0.0-27.0","SS1678233856088","61539b3fa541b182c0fadde1","6406d7f26dd5b7fc1e3377bd","6407ce73917d5ae8b1f07e08","1920","929","","2453","","{""Q0"":1}","[0]","complexity","","","","","","","","","","","","","","","media/stimuli/inanimate_008_left.png","inanimate","pair","left"
"","","","","","survey-likert","28","116988","0.0-28.0","SS1678233856088","61539b3fa541b182c0fadde1","6406d7f26dd5b7fc1e3377bd","6407ce73917d5ae8b1f07e08","1920","929","","2421","","{""Q0"":1}","[0]","complexity","","","","","","","","","","","","","","","media/stimuli/inanimate_010_right.png","inanimate","pair","right"
"","","","","","survey-likert","29","120044","0.0-29.0","SS1678233856088","61539b3fa541b182c0fadde1","6406d7f26dd5b7fc1e3377bd","6407ce73917d5ae8b1f07e08","1920","929","","3053","","{""Q0"":1}","[0]","complexity","","","","","","","","","","","","","","","media/stimuli/inanimate_002_left.png","inanimate","pair","left"
"","","","","","survey-likert","30","123556","0.0-30.0","SS1678233856088","61539b3fa541b182c0fadde1","6406d7f26dd5b7fc1e3377bd","6407ce73917d5ae8b1f07e08","1920","929","","3509","","{""Q0"":1}","[0]","complexity","","","","","","","","","","","","","","","media/stimuli/inanimate_010_left.png","inanimate","pair","left"
"","","","","","survey-likert","31","126444","0.0-31.0","SS1678233856088","61539b3fa541b182c0fadde1","6406d7f26dd5b7fc1e3377bd","6407ce73917d5ae8b1f07e08","1920","929","","2886","","{""Q0"":1}","[0]","complexity","","","","","","","","","","","","","","","media/stimuli/animate_007_right.png","animate","pair","right"
"","","","","","survey-likert","32","129220","0.0-32.0","SS1678233856088","61539b3fa541b182c0fadde1","6406d7f26dd5b7fc1e3377bd","6407ce73917d5ae8b1f07e08","1920","929","","2773","","{""Q0"":1}","[0]","complexity","","","","","","","","","","","","","","","media/stimuli/animate_001_right.png","animate","pair","right"
"","","","","","html-keyboard-response","33","132389","0.0-33.0","SS1678233856088","61539b3fa541b182c0fadde1","6406d7f26dd5b7fc1e3377bd","6407ce73917d5ae8b1f07e08","1920","929","","3166",""," ","","","","","","","","","","","","","","","","","","","",""
"","","","","","survey-likert","34","136924","0.0-34.0","SS1678233856088","61539b3fa541b182c0fadde1","6406d7f26dd5b7fc1e3377bd","6407ce73917d5ae8b1f07e08","1920","929","","4530","","{""Q0"":1}","[0]","complexity","","","","","","","","","","","","","","","media/stimuli/animate_011_left.png","animate","single","left"
"","","","","","survey-likert","35","139500","0.0-35.0","SS1678233856088","61539b3fa541b182c0fadde1","6406d7f26dd5b7fc1e3377bd","6407ce73917d5ae8b1f07e08","1920","929","","2573","","{""Q0"":1}","[0]","complexity","","","","","","","","","","","","","","","media/stimuli/inanimate_002_left.png","inanimate","single","left"
"","","","","","survey-likert","36","143404","0.0-36.0","SS1678233856088","61539b3fa541b182c0fadde1","6406d7f26dd5b7fc1e3377bd","6407ce73917d5ae8b1f07e08","1920","929","","3900","","{""Q0"":1}","[0]","complexity","","","","","","","","","","","","","","","media/stimuli/inanimate_011_right.png","inanimate","single","right"
"","","","","","survey-likert","37","145524","0.0-37.0","SS1678233856088","61539b3fa541b182c0fadde1","6406d7f26dd5b7fc1e3377bd","6407ce73917d5ae8b1f07e08","1920","929","","2116","","{""Q0"":1}","[0]","complexity","","","","","","","","","","","","","","","media/stimuli/animate_002_right.png","animate","pair","right"
"","","","","","survey-likert","38","147692","0.0-38.0","SS1678233856088","61539b3fa541b182c0fadde1","6406d7f26dd5b7fc1e3377bd","6407ce73917d5ae8b1f07e08","1920","929","","2165","","{""Q0"":1}","[0]","complexity","","","","","","","","","","","","","","","media/stimuli/animate_002_left.png","animate","pair","left"
"","","","","","survey-likert","39","150164","0.0-39.0","SS1678233856088","61539b3fa541b182c0fadde1","6406d7f26dd5b7fc1e3377bd","6407ce73917d5ae8b1f07e08","1920","929","","2469","","{""Q0"":1}","[0]","complexity","","","","","","","","","","","","","","","media/stimuli/inanimate_008_right.png","inanimate","single","right"
"","","","","","survey-likert","40","152540","0.0-40.0","SS1678233856088","61539b3fa541b182c0fadde1","6406d7f26dd5b7fc1e3377bd","6407ce73917d5ae8b1f07e08","1920","929","","2373","","{""Q0"":1}","[0]","complexity","","","","","","","","","","","","","","","media/stimuli/inanimate_009_left.png","inanimate","single","left"
"","","","","","survey-likert","41","154572","0.0-41.0","SS1678233856088","61539b3fa541b182c0fadde1","6406d7f26dd5b7fc1e3377bd","6407ce73917d5ae8b1f07e08","1920","929","","2028","","{""Q0"":1}","[0]","complexity","","","","","","","","","","","","","","","media/stimuli/inanimate_006_left.png","inanimate","pair","left"
"","","","","","survey-likert","42","156772","0.0-42.0","SS1678233856088","61539b3fa541b182c0fadde1","6406d7f26dd5b7fc1e3377bd","6407ce73917d5ae8b1f07e08","1920","929","","2197","","{""Q0"":1}","[0]","complexity","","","","","","","","","","","","","","","media/stimuli/animate_009_right.png","animate","single","right"
"","","","","","survey-likert","43","160652","0.0-43.0","SS1678233856088","61539b3fa541b182c0fadde1","6406d7f26dd5b7fc1e3377bd","6407ce73917d5ae8b1f07e08","1920","929","","3878","","{""Q0"":1}","[0]","complexity","","","","","","","","","","","","","","","media/stimuli/animate_010_right.png","animate","single","right"
"","","","","","survey-likert","44","163148","0.0-44.0","SS1678233856088","61539b3fa541b182c0fadde1","6406d7f26dd5b7fc1e3377bd","6407ce73917d5ae8b1f07e08","1920","929","","2492","","{""Q0"":1}","[0]","complexity","","","","","","","","","","","","","","","media/stimuli/inanimate_007_left.png","inanimate","pair","left"
"","","","","","survey-likert","45","165548","0.0-45.0","SS1678233856088","61539b3fa541b182c0fadde1","6406d7f26dd5b7fc1e3377bd","6407ce73917d5ae8b1f07e08","1920","929","","2397","","{""Q0"":1}","[0]","complexity","","","","","","","","","","","","","","","media/stimuli/animate_011_right.png","animate","pair","right"
"","","","","","html-keyboard-response","46","166645","0.0-46.0","SS1678233856088","61539b3fa541b182c0fadde1","6406d7f26dd5b7fc1e3377bd","6407ce73917d5ae8b1f07e08","1920","929","","1094",""," ","","","","","","","","","","","","","","","","","","","",""
"","","","","","survey-likert","47","170260","0.0-47.0","SS1678233856088","61539b3fa541b182c0fadde1","6406d7f26dd5b7fc1e3377bd","6407ce73917d5ae8b1f07e08","1920","929","","3609","","{""Q0"":1}","[0]","complexity","","","","","","","","","","","","","","","media/stimuli/animate_009_left.png","animate","pair","left"
"","","","","","survey-likert","48","173748","0.0-48.0","SS1678233856088","61539b3fa541b182c0fadde1","6406d7f26dd5b7fc1e3377bd","6407ce73917d5ae8b1f07e08","1920","929","","3485","","{""Q0"":1}","[0]","complexity","","","","","","","","","","","","","","","media/stimuli/inanimate_004_right.png","inanimate","pair","right"
"","","","","","survey-likert","49","175932","0.0-49.0","SS1678233856088","61539b3fa541b182c0fadde1","6406d7f26dd5b7fc1e3377bd","6407ce73917d5ae8b1f07e08","1920","929","","2181","","{""Q0"":1}","[0]","complexity","","","","","","","","","","","","","","","media/stimuli/inanimate_005_right.png","inanimate","pair","right"
"","","","","","survey-likert","50","177876","0.0-50.0","SS1678233856088","61539b3fa541b182c0fadde1","6406d7f26dd5b7fc1e3377bd","6407ce73917d5ae8b1f07e08","1920","929","","1940","","{""Q0"":1}","[0]","complexity","","","","","","","","","","","","","","","media/stimuli/inanimate_008_right.png","inanimate","pair","right"
"","","","","","survey-likert","51","180108","0.0-51.0","SS1678233856088","61539b3fa541b182c0fadde1","6406d7f26dd5b7fc1e3377bd","6407ce73917d5ae8b1f07e08","1920","929","","2229","","{""Q0"":1}","[0]","complexity","","","","","","","","","","","","","","","media/stimuli/inanimate_006_left.png","inanimate","single","left"
"","","","","","survey-likert","52","182932","0.0-52.0","SS1678233856088","61539b3fa541b182c0fadde1","6406d7f26dd5b7fc1e3377bd","6407ce73917d5ae8b1f07e08","1920","929","","2821","","{""Q0"":1}","[0]","complexity","","","","","","","","","","","","","","","media/stimuli/inanimate_005_right.png","inanimate","single","right"
"","","","","","survey-likert","53","185052","0.0-53.0","SS1678233856088","61539b3fa541b182c0fadde1","6406d7f26dd5b7fc1e3377bd","6407ce73917d5ae8b1f07e08","1920","929","","2117","","{""Q0"":1}","[0]","complexity","","","","","","","","","","","","","","","media/stimuli/animate_003_left.png","animate","single","left"
"","","","","","survey-likert","54","187077","0.0-54.0","SS1678233856088","61539b3fa541b182c0fadde1","6406d7f26dd5b7fc1e3377bd","6407ce73917d5ae8b1f07e08","1920","929","","2021","","{""Q0"":1}","[0]","complexity","","","","","","","","","","","","","","","media/stimuli/inanimate_009_right.png","inanimate","pair","right"
"","","","","","survey-likert","55","189940","0.0-55.0","SS1678233856088","61539b3fa541b182c0fadde1","6406d7f26dd5b7fc1e3377bd","6407ce73917d5ae8b1f07e08","1920","929","","2860","","{""Q0"":1}","[0]","complexity","","","","","","","","","","","","","","","media/stimuli/animate_003_right.png","animate","single","right"
"","","","","","survey-likert","56","192700","0.0-56.0","SS1678233856088","61539b3fa541b182c0fadde1","6406d7f26dd5b7fc1e3377bd","6407ce73917d5ae8b1f07e08","1920","929","","2757","","{""Q0"":1}","[0]","complexity","","","","","","","","","","","","","","","media/stimuli/inanimate_003_left.png","inanimate","pair","left"
"","","","","","survey-likert","57","196796","0.0-57.0","SS1678233856088","61539b3fa541b182c0fadde1","6406d7f26dd5b7fc1e3377bd","6407ce73917d5ae8b1f07e08","1920","929","","4092","","{""Q0"":1}","[0]","complexity","","","","","","","","","","","","","","","media/stimuli/inanimate_011_left.png","inanimate","single","left"
"","","","","","survey-likert","58","199172","0.0-58.0","SS1678233856088","61539b3fa541b182c0fadde1","6406d7f26dd5b7fc1e3377bd","6407ce73917d5ae8b1f07e08","1920","929","","2372","","{""Q0"":1}","[0]","complexity","","","","","","","","","","","","","","","media/stimuli/inanimate_011_left.png","inanimate","pair","left"
"","","","","","html-keyboard-response","59","200180","0.0-59.0","SS1678233856088","61539b3fa541b182c0fadde1","6406d7f26dd5b7fc1e3377bd","6407ce73917d5ae8b1f07e08","1920","929","","1005",""," ","","","","","","","","","","","","","","","","","","","",""
"","","","","","survey-likert","60","203564","0.0-60.0","SS1678233856088","61539b3fa541b182c0fadde1","6406d7f26dd5b7fc1e3377bd","6407ce73917d5ae8b1f07e08","1920","929","","3376","","{""Q0"":1}","[0]","complexity","","","","","","","","","","","","","","","media/stimuli/animate_007_right.png","animate","single","right"
"","","","","","survey-likert","61","206404","0.0-61.0","SS1678233856088","61539b3fa541b182c0fadde1","6406d7f26dd5b7fc1e3377bd","6407ce73917d5ae8b1f07e08","1920","929","","2837","","{""Q0"":1}","[0]","complexity","","","","","","","","","","","","","","","media/stimuli/inanimate_009_right.png","inanimate","single","right"
"","","","","","survey-likert","62","211868","0.0-62.0","SS1678233856088","61539b3fa541b182c0fadde1","6406d7f26dd5b7fc1e3377bd","6407ce73917d5ae8b1f07e08","1920","929","","5461","","{""Q0"":1}","[0]","complexity","","","","","","","","","","","","","","","media/stimuli/inanimate_012_right.png","inanimate","single","right"
"","","","","","survey-likert","63","213900","0.0-63.0","SS1678233856088","61539b3fa541b182c0fadde1","6406d7f26dd5b7fc1e3377bd","6407ce73917d5ae8b1f07e08","1920","929","","2028","","{""Q0"":1}","[0]","complexity","","","","","","","","","","","","","","","media/stimuli/inanimate_005_left.png","inanimate","pair","left"
"","","","","","survey-likert","64","216172","0.0-64.0","SS1678233856088","61539b3fa541b182c0fadde1","6406d7f26dd5b7fc1e3377bd","6407ce73917d5ae8b1f07e08","1920","929","","2268","","{""Q0"":1}","[0]","complexity","","","","","","","","","","","","","","","media/stimuli/inanimate_004_left.png","inanimate","pair","left"
"","","","","","survey-likert","65","219876","0.0-65.0","SS1678233856088","61539b3fa541b182c0fadde1","6406d7f26dd5b7fc1e3377bd","6407ce73917d5ae8b1f07e08","1920","929","","3701","","{""Q0"":1}","[0]","complexity","","","","","","","","","","","","","","","media/stimuli/inanimate_003_right.png","inanimate","single","right"
"","","","","","survey-likert","66","222572","0.0-66.0","SS1678233856088","61539b3fa541b182c0fadde1","6406d7f26dd5b7fc1e3377bd","6407ce73917d5ae8b1f07e08","1920","929","","2692","","{""Q0"":1}","[0]","complexity","","","","","","","","","","","","","","","media/stimuli/animate_004_left.png","animate","single","left"
"","","","","","survey-likert","67","224636","0.0-67.0","SS1678233856088","61539b3fa541b182c0fadde1","6406d7f26dd5b7fc1e3377bd","6407ce73917d5ae8b1f07e08","1920","929","","2061","","{""Q0"":1}","[0]","complexity","","","","","","","","","","","","","","","media/stimuli/inanimate_002_right.png","inanimate","single","right"
"","","","","","survey-likert","68","227052","0.0-68.0","SS1678233856088","61539b3fa541b182c0fadde1","6406d7f26dd5b7fc1e3377bd","6407ce73917d5ae8b1f07e08","1920","929","","2412","","{""Q0"":1}","[0]","complexity","","","","","","","","","","","","","","","media/stimuli/animate_012_left.png","animate","single","left"
"","","","","","survey-likert","69","228980","0.0-69.0","SS1678233856088","61539b3fa541b182c0fadde1","6406d7f26dd5b7fc1e3377bd","6407ce73917d5ae8b1f07e08","1920","929","","1924","","{""Q0"":1}","[0]","complexity","","","","","","","","","","","","","","","media/stimuli/inanimate_003_left.png","inanimate","single","left"
"","","","","","survey-likert","70","230788","0.0-70.0","SS1678233856088","61539b3fa541b182c0fadde1","6406d7f26dd5b7fc1e3377bd","6407ce73917d5ae8b1f07e08","1920","929","","1805","","{""Q0"":1}","[0]","complexity","","","","","","","","","","","","","","","media/stimuli/animate_007_left.png","animate","pair","left"
"","","","","","survey-likert","71","232924","0.0-71.0","SS1678233856088","61539b3fa541b182c0fadde1","6406d7f26dd5b7fc1e3377bd","6407ce73917d5ae8b1f07e08","1920","929","","2132","","{""Q0"":1}","[0]","complexity","","","","","","","","","","","","","","","media/stimuli/animate_005_right.png","animate","single","right"
"","","","","","html-keyboard-response","72","233925","0.0-72.0","SS1678233856088","61539b3fa541b182c0fadde1","6406d7f26dd5b7fc1e3377bd","6407ce73917d5ae8b1f07e08","1920","929","","998",""," ","","","","","","","","","","","","","","","","","","","",""
"","","","","","survey-likert","73","239300","0.0-73.0","SS1678233856088","61539b3fa541b182c0fadde1","6406d7f26dd5b7fc1e3377bd","6407ce73917d5ae8b1f07e08","1920","929","","5368","","{""Q0"":1}","[0]","complexity","","","","","","","","","","","","","","","media/stimuli/animate_005_right.png","animate","pair","right"
"","","","","","survey-likert","74","241108","0.0-74.0","SS1678233856088","61539b3fa541b182c0fadde1","6406d7f26dd5b7fc1e3377bd","6407ce73917d5ae8b1f07e08","1920","929","","1804","","{""Q0"":1}","[0]","complexity","","","","","","","","","","","","","","","media/stimuli/animate_008_right.png","animate","single","right"
"","","","","","survey-likert","75","243140","0.0-75.0","SS1678233856088","61539b3fa541b182c0fadde1","6406d7f26dd5b7fc1e3377bd","6407ce73917d5ae8b1f07e08","1920","929","","2028","","{""Q0"":1}","[0]","complexity","","","","","","","","","","","","","","","media/stimuli/inanimate_007_left.png","inanimate","single","left"
"","","","","","survey-likert","76","246660","0.0-76.0","SS1678233856088","61539b3fa541b182c0fadde1","6406d7f26dd5b7fc1e3377bd","6407ce73917d5ae8b1f07e08","1920","929","","3517","","{""Q0"":1}","[0]","complexity","","","","","","","","","","","","","","","media/stimuli/inanimate_005_left.png","inanimate","single","left"
"","","","","","survey-likert","77","248764","0.0-77.0","SS1678233856088","61539b3fa541b182c0fadde1","6406d7f26dd5b7fc1e3377bd","6407ce73917d5ae8b1f07e08","1920","929","","2101","","{""Q0"":1}","[0]","complexity","","","","","","","","","","","","","","","media/stimuli/inanimate_001_right.png","inanimate","pair","right"
"","","","","","survey-likert","78","251084","0.0-78.0","SS1678233856088","61539b3fa541b182c0fadde1","6406d7f26dd5b7fc1e3377bd","6407ce73917d5ae8b1f07e08","1920","929","","2316","","{""Q0"":1}","[0]","complexity","","","","","","","","","","","","","","","media/stimuli/animate_004_right.png","animate","single","right"
"","","","","","survey-likert","79","253364","0.0-79.0","SS1678233856088","61539b3fa541b182c0fadde1","6406d7f26dd5b7fc1e3377bd","6407ce73917d5ae8b1f07e08","1920","929","","2275","","{""Q0"":1}","[0]","complexity","","","","","","","","","","","","","","","media/stimuli/animate_012_right.png","animate","pair","right"
"","","","","","survey-likert","80","255476","0.0-80.0","SS1678233856088","61539b3fa541b182c0fadde1","6406d7f26dd5b7fc1e3377bd","6407ce73917d5ae8b1f07e08","1920","929","","2108","","{""Q0"":1}","[0]","complexity","","","","","","","","","","","","","","","media/stimuli/inanimate_012_left.png","inanimate","pair","left"
"","","","","","survey-likert","81","257668","0.0-81.0","SS1678233856088","61539b3fa541b182c0fadde1","6406d7f26dd5b7fc1e3377bd","6407ce73917d5ae8b1f07e08","1920","929","","2189","","{""Q0"":1}","[0]","complexity","","","","","","","","","","","","","","","media/stimuli/animate_006_left.png","animate","pair","left"
"","","","","","survey-likert","82","260148","0.0-82.0","SS1678233856088","61539b3fa541b182c0fadde1","6406d7f26dd5b7fc1e3377bd","6407ce73917d5ae8b1f07e08","1920","929","","2476","","{""Q0"":1}","[0]","complexity","","","","","","","","","","","","","","","media/stimuli/animate_002_right.png","animate","single","right"
"","","","","","survey-likert","83","262404","0.0-83.0","SS1678233856088","61539b3fa541b182c0fadde1","6406d7f26dd5b7fc1e3377bd","6407ce73917d5ae8b1f07e08","1920","929","","2253","","{""Q0"":1}","[0]","complexity","","","","","","","","","","","","","","","media/stimuli/animate_003_right.png","animate","pair","right"
"","","","","","survey-likert","84","264469","0.0-84.0","SS1678233856088","61539b3fa541b182c0fadde1","6406d7f26dd5b7fc1e3377bd","6407ce73917d5ae8b1f07e08","1920","929","","2061","","{""Q0"":1}","[0]","complexity","","","","","","","","","","","","","","","media/stimuli/animate_009_right.png","animate","pair","right"
"","","","","","html-keyboard-response","85","267173","0.0-85.0","SS1678233856088","61539b3fa541b182c0fadde1","6406d7f26dd5b7fc1e3377bd","6407ce73917d5ae8b1f07e08","1920","929","","2701",""," ","","","","","","","","","","","","","","","","","","","",""
"","","","","","html-keyboard-response","86","272469","0.0-86.0","SS1678233856088","61539b3fa541b182c0fadde1","6406d7f26dd5b7fc1e3377bd","6407ce73917d5ae8b1f07e08","1920","929","","5289","","f","","","<img src=""media/stimuli/inanimate_008_right.png"" class=""coveredImage test"" style = ""width:100px; height:100px; position:fixed; top:10%;    transform: translate(-50%, -50%);left:44.5%""></img><img src=""media/stimuli/inanimate_008_right.png"" class=""coveredImage test"" style = ""width:100px; height:100px; position:fixed; top:10%;    transform: translate(-50%, -50%);left:51.5%""></img><img src=""media/stimuli/inanimate_008_right.png"" class=""coveredImage test"" style = ""width:100px; height:100px;position:fixed; top:25%;        transform: translate(-50%, -50%);left:38%""></img><img src=""media/stimuli/inanimate_001_right.png"" class=""coveredImage test"" style = ""width:100px; height:100px;position:fixed; top:25%;        transform: translate(-50%, -50%);left:54.5%""></img><img src=""media/stimuli/inanimate_001_right.png"" class=""coveredImage test"" style = ""width:100px; height:100px;position:fixed; top:25%;        transform: translate(-50%, -50%);left:61.5%""></img><img src=""media/f.png""style = ""width:30px x; height:30px;position:fixed; top:43%;    transform: translate(-50%, -50%);left:40%""></img><img src=""media/j.png""style = ""width:30px; height:30px;position:fixed; top:43%;    transform: translate(-50%, -50%);left:60%""></img>","media/stimuli/inanimate_008_right.png","inanimate","right","pair","media/stimuli/inanimate_008_right.png","inanimate","right","single","media/stimuli/inanimate_001_right.png","inanimate","right","pair","number_identity","","","",""
"","","","","","html-keyboard-response","87","274532","0.0-87.0","SS1678233856088","61539b3fa541b182c0fadde1","6406d7f26dd5b7fc1e3377bd","6407ce73917d5ae8b1f07e08","1920","929","","2055","","f","","","<img src=""media/stimuli/inanimate_001_left.png"" class=""coveredImage test"" style = ""width:100px; height:100px; position:fixed; top:10%;    transform: translate(-50%, -50%);left:44.5%""></img><img src=""media/stimuli/inanimate_001_left.png"" class=""coveredImage test"" style = ""width:100px; height:100px; position:fixed; top:10%;    transform: translate(-50%, -50%);left:51.5%""></img><img src=""media/stimuli/inanimate_002_left.png"" class=""coveredImage test"" style = ""width:100px; height:100px;position:fixed; top:25%;        transform: translate(-50%, -50%);left:34.5%""></img><img src=""media/stimuli/inanimate_002_left.png"" class=""coveredImage test"" style = ""width:100px; height:100px;position:fixed; top:25%;        transform: translate(-50%, -50%);left:41.5%""></img><img src=""media/stimuli/animate_009_left.png"" class=""coveredImage test"" style = ""width:100px; height:100px;position:fixed; top:25%;        transform: translate(-50%, -50%);left:54.5%""></img><img src=""media/stimuli/animate_009_left.png"" class=""coveredImage test"" style = ""width:100px; height:100px;position:fixed; top:25%;        transform: translate(-50%, -50%);left:61.5%""></img><img src=""media/f.png""style = ""width:30px x; height:30px;position:fixed; top:43%;    transform: translate(-50%, -50%);left:40%""></img><img src=""media/j.png""style = ""width:30px; height:30px;position:fixed; top:43%;    transform: translate(-50%, -50%);left:60%""></img>","media/stimuli/inanimate_001_left.png","inanimate","left","pair","media/stimuli/inanimate_002_left.png","inanimate","left","pair","media/stimuli/animate_009_left.png","animate","left","pair","identity_animacy","","","",""
"","","","","","html-keyboard-response","88","275764","0.0-88.0","SS1678233856088","61539b3fa541b182c0fadde1","6406d7f26dd5b7fc1e3377bd","6407ce73917d5ae8b1f07e08","1920","929","","1226","","f","","","<img src=""media/stimuli/animate_007_left.png"" class=""coveredImage test"" style = ""width:100px; height:100px; position:fixed; top:10%;    transform: translate(-50%, -50%);left:48%""></img><img src=""media/stimuli/animate_007_left.png"" class=""coveredImage test"" style = ""width:100px; height:100px;position:fixed; top:25%;        transform: translate(-50%, -50%);left:38%""></img><img src=""media/stimuli/inanimate_005_right.png"" class=""coveredImage test"" style = ""width:100px; height:100px;position:fixed; top:25%;        transform: translate(-50%, -50%);left:58%""></img><img src=""media/f.png""style = ""width:30px x; height:30px;position:fixed; top:43%;    transform: translate(-50%, -50%);left:40%""></img><img src=""media/j.png""style = ""width:30px; height:30px;position:fixed; top:43%;    transform: translate(-50%, -50%);left:60%""></img>","media/stimuli/animate_007_left.png","animate","left","single","media/stimuli/animate_007_left.png","animate","left","single","media/stimuli/inanimate_005_right.png","inanimate","right","single","pose_animacy","","","",""
"","","","","","html-keyboard-response","89","278437","0.0-89.0","SS1678233856088","61539b3fa541b182c0fadde1","6406d7f26dd5b7fc1e3377bd","6407ce73917d5ae8b1f07e08","1920","929","","2669","","f","","","<img src=""media/stimuli/inanimate_006_right.png"" class=""coveredImage test"" style = ""width:100px; height:100px; position:fixed; top:10%;    transform: translate(-50%, -50%);left:48%""></img><img src=""media/stimuli/inanimate_006_left.png"" class=""coveredImage test"" style = ""width:100px; height:100px;position:fixed; top:25%;        transform: translate(-50%, -50%);left:38%""></img><img src=""media/stimuli/inanimate_003_right.png"" class=""coveredImage test"" style = ""width:100px; height:100px;position:fixed; top:25%;        transform: translate(-50%, -50%);left:58%""></img><img src=""media/f.png""style = ""width:30px x; height:30px;position:fixed; top:43%;    transform: translate(-50%, -50%);left:40%""></img><img src=""media/j.png""style = ""width:30px; height:30px;position:fixed; top:43%;    transform: translate(-50%, -50%);left:60%""></img>","media/stimuli/inanimate_006_right.png","inanimate","right","single","media/stimuli/inanimate_006_left.png","inanimate","left","single","media/stimuli/inanimate_003_right.png","inanimate","right","single","pose_identity","","","",""
"","","","","","html-keyboard-response","90","279764","0.0-90.0","SS1678233856088","61539b3fa541b182c0fadde1","6406d7f26dd5b7fc1e3377bd","6407ce73917d5ae8b1f07e08","1920","929","","1316","","f","","","<img src=""media/stimuli/inanimate_002_right.png"" class=""coveredImage test"" style = ""width:100px; height:100px; position:fixed; top:10%;    transform: translate(-50%, -50%);left:44.5%""></img><img src=""media/stimuli/inanimate_002_right.png"" class=""coveredImage test"" style = ""width:100px; height:100px; position:fixed; top:10%;    transform: translate(-50%, -50%);left:51.5%""></img><img src=""media/stimuli/inanimate_002_right.png"" class=""coveredImage test"" style = ""width:100px; height:100px;position:fixed; top:25%;        transform: translate(-50%, -50%);left:34.5%""></img><img src=""media/stimuli/inanimate_002_right.png"" class=""coveredImage test"" style = ""width:100px; height:100px;position:fixed; top:25%;        transform: translate(-50%, -50%);left:41.5%""></img><img src=""media/stimuli/animate_004_left.png"" class=""coveredImage test"" style = ""width:100px; height:100px;position:fixed; top:25%;        transform: translate(-50%, -50%);left:54.5%""></img><img src=""media/stimuli/animate_004_left.png"" class=""coveredImage test"" style = ""width:100px; height:100px;position:fixed; top:25%;        transform: translate(-50%, -50%);left:61.5%""></img><img src=""media/f.png""style = ""width:30px x; height:30px;position:fixed; top:43%;    transform: translate(-50%, -50%);left:40%""></img><img src=""media/j.png""style = ""width:30px; height:30px;position:fixed; top:43%;    transform: translate(-50%, -50%);left:60%""></img>","media/stimuli/inanimate_002_right.png","inanimate","right","pair","media/stimuli/inanimate_002_right.png","inanimate","right","pair","media/stimuli/animate_004_left.png","animate","left","pair","pose_animacy","","","",""
"","","","","","html-keyboard-response","91","281973","0.0-91.0","SS1678233856088","61539b3fa541b182c0fadde1","6406d7f26dd5b7fc1e3377bd","6407ce73917d5ae8b1f07e08","1920","929","","2202","","j","","","<img src=""media/stimuli/inanimate_004_left.png"" class=""coveredImage test"" style = ""width:100px; height:100px; position:fixed; top:10%;    transform: translate(-50%, -50%);left:48%""></img><img src=""media/stimuli/animate_002_left.png"" class=""coveredImage test"" style = ""width:100px; height:100px;position:fixed; top:25%;        transform: translate(-50%, -50%);left:34.5%""></img><img src=""media/stimuli/animate_002_left.png"" class=""coveredImage test"" style = ""width:100px; height:100px;position:fixed; top:25%;        transform: translate(-50%, -50%);left:41.5%""></img><img src=""media/stimuli/inanimate_004_right.png"" class=""coveredImage test"" style = ""width:100px; height:100px;position:fixed; top:25%;        transform: translate(-50%, -50%);left:54.5%""></img><img src=""media/stimuli/inanimate_004_right.png"" class=""coveredImage test"" style = ""width:100px; height:100px;position:fixed; top:25%;        transform: translate(-50%, -50%);left:61.5%""></img><img src=""media/f.png""style = ""width:30px x; height:30px;position:fixed; top:43%;    transform: translate(-50%, -50%);left:40%""></img><img src=""media/j.png""style = ""width:30px; height:30px;position:fixed; top:43%;    transform: translate(-50%, -50%);left:60%""></img>","media/stimuli/inanimate_004_left.png","inanimate","left","single","media/stimuli/animate_002_left.png","animate","left","pair","media/stimuli/inanimate_004_right.png","inanimate","right","pair","animacy_pose","","","",""
"","","","","","html-keyboard-response","92","283364","0.0-92.0","SS1678233856088","61539b3fa541b182c0fadde1","6406d7f26dd5b7fc1e3377bd","6407ce73917d5ae8b1f07e08","1920","929","","1382","","j","","","<img src=""media/stimuli/animate_012_left.png"" class=""coveredImage test"" style = ""width:100px; height:100px; position:fixed; top:10%;    transform: translate(-50%, -50%);left:48%""></img><img src=""media/stimuli/animate_004_left.png"" class=""coveredImage test"" style = ""width:100px; height:100px;position:fixed; top:25%;        transform: translate(-50%, -50%);left:38%""></img><img src=""media/stimuli/animate_012_left.png"" class=""coveredImage test"" style = ""width:100px; height:100px;position:fixed; top:25%;        transform: translate(-50%, -50%);left:54.5%""></img><img src=""media/stimuli/animate_012_left.png"" class=""coveredImage test"" style = ""width:100px; height:100px;position:fixed; top:25%;        transform: translate(-50%, -50%);left:61.5%""></img><img src=""media/f.png""style = ""width:30px x; height:30px;position:fixed; top:43%;    transform: translate(-50%, -50%);left:40%""></img><img src=""media/j.png""style = ""width:30px; height:30px;position:fixed; top:43%;    transform: translate(-50%, -50%);left:60%""></img>","media/stimuli/animate_012_left.png","animate","left","single","media/stimuli/animate_004_left.png","animate","left","single","media/stimuli/animate_012_left.png","animate","left","pair","identity_number","","","",""
"","","","","","html-keyboard-response","93","284516","0.0-93.0","SS1678233856088","61539b3fa541b182c0fadde1","6406d7f26dd5b7fc1e3377bd","6407ce73917d5ae8b1f07e08","1920","929","","1142","","j","","","<img src=""media/stimuli/inanimate_008_left.png"" class=""coveredImage test"" style = ""width:100px; height:100px; position:fixed; top:10%;    transform: translate(-50%, -50%);left:48%""></img><img src=""media/stimuli/animate_006_left.png"" class=""coveredImage test"" style = ""width:100px; height:100px;position:fixed; top:25%;        transform: translate(-50%, -50%);left:38%""></img><img src=""media/stimuli/inanimate_008_left.png"" class=""coveredImage test"" style = ""width:100px; height:100px;position:fixed; top:25%;        transform: translate(-50%, -50%);left:54.5%""></img><img src=""media/stimuli/inanimate_008_left.png"" class=""coveredImage test"" style = ""width:100px; height:100px;position:fixed; top:25%;        transform: translate(-50%, -50%);left:61.5%""></img><img src=""media/f.png""style = ""width:30px x; height:30px;position:fixed; top:43%;    transform: translate(-50%, -50%);left:40%""></img><img src=""media/j.png""style = ""width:30px; height:30px;position:fixed; top:43%;    transform: translate(-50%, -50%);left:60%""></img>","media/stimuli/inanimate_008_left.png","inanimate","left","single","media/stimuli/animate_006_left.png","animate","left","single","media/stimuli/inanimate_008_left.png","inanimate","left","pair","animacy_number","","","",""
"","","","","","html-keyboard-response","94","285653","0.0-94.0","SS1678233856088","61539b3fa541b182c0fadde1","6406d7f26dd5b7fc1e3377bd","6407ce73917d5ae8b1f07e08","1920","929","","1129","","j","","","<img src=""media/stimuli/inanimate_007_right.png"" class=""coveredImage test"" style = ""width:100px; height:100px; position:fixed; top:10%;    transform: translate(-50%, -50%);left:48%""></img><img src=""media/stimuli/animate_004_right.png"" class=""coveredImage test"" style = ""width:100px; height:100px;position:fixed; top:25%;        transform: translate(-50%, -50%);left:38%""></img><img src=""media/stimuli/inanimate_007_left.png"" class=""coveredImage test"" style = ""width:100px; height:100px;position:fixed; top:25%;        transform: translate(-50%, -50%);left:58%""></img><img src=""media/f.png""style = ""width:30px x; height:30px;position:fixed; top:43%;    transform: translate(-50%, -50%);left:40%""></img><img src=""media/j.png""style = ""width:30px; height:30px;position:fixed; top:43%;    transform: translate(-50%, -50%);left:60%""></img>","media/stimuli/inanimate_007_right.png","inanimate","right","single","media/stimuli/animate_004_right.png","animate","right","single","media/stimuli/inanimate_007_left.png","inanimate","left","single","animacy_pose","","","",""
"","","","","","html-keyboard-response","95","286532","0.0-95.0","SS1678233856088","61539b3fa541b182c0fadde1","6406d7f26dd5b7fc1e3377bd","6407ce73917d5ae8b1f07e08","1920","929","","870","","f","","","<img src=""media/stimuli/animate_009_right.png"" class=""coveredImage test"" style = ""width:100px; height:100px; position:fixed; top:10%;    transform: translate(-50%, -50%);left:48%""></img><img src=""media/stimuli/animate_009_left.png"" class=""coveredImage test"" style = ""width:100px; height:100px;position:fixed; top:25%;        transform: translate(-50%, -50%);left:38%""></img><img src=""media/stimuli/animate_011_right.png"" class=""coveredImage test"" style = ""width:100px; height:100px;position:fixed; top:25%;        transform: translate(-50%, -50%);left:58%""></img><img src=""media/f.png""style = ""width:30px x; height:30px;position:fixed; top:43%;    transform: translate(-50%, -50%);left:40%""></img><img src=""media/j.png""style = ""width:30px; height:30px;position:fixed; top:43%;    transform: translate(-50%, -50%);left:60%""></img>","media/stimuli/animate_009_right.png","animate","right","single","media/stimuli/animate_009_left.png","animate","left","single","media/stimuli/animate_011_right.png","animate","right","single","pose_identity","","","",""
"","","","","","html-keyboard-response","96","287332","0.0-96.0","SS1678233856088","61539b3fa541b182c0fadde1","6406d7f26dd5b7fc1e3377bd","6407ce73917d5ae8b1f07e08","1920","929","","794","","j","","","<img src=""media/stimuli/inanimate_010_right.png"" class=""coveredImage test"" style = ""width:100px; height:100px; position:fixed; top:10%;    transform: translate(-50%, -50%);left:48%""></img><img src=""media/stimuli/inanimate_010_left.png"" class=""coveredImage test"" style = ""width:100px; height:100px;position:fixed; top:25%;        transform: translate(-50%, -50%);left:38%""></img><img src=""media/stimuli/inanimate_010_right.png"" class=""coveredImage test"" style = ""width:100px; height:100px;position:fixed; top:25%;        transform: translate(-50%, -50%);left:54.5%""></img><img src=""media/stimuli/inanimate_010_right.png"" class=""coveredImage test"" style = ""width:100px; height:100px;position:fixed; top:25%;        transform: translate(-50%, -50%);left:61.5%""></img><img src=""media/f.png""style = ""width:30px x; height:30px;position:fixed; top:43%;    transform: translate(-50%, -50%);left:40%""></img><img src=""media/j.png""style = ""width:30px; height:30px;position:fixed; top:43%;    transform: translate(-50%, -50%);left:60%""></img>","media/stimuli/inanimate_010_right.png","inanimate","right","single","media/stimuli/inanimate_010_left.png","inanimate","left","single","media/stimuli/inanimate_010_right.png","inanimate","right","pair","pose_number","","","",""
"","","","","","html-keyboard-response","97","289848","0.0-97.0","SS1678233856088","61539b3fa541b182c0fadde1","6406d7f26dd5b7fc1e3377bd","6407ce73917d5ae8b1f07e08","1920","929","","2506","","j","","","<img src=""media/stimuli/animate_012_right.png"" class=""coveredImage test"" style = ""width:100px; height:100px; position:fixed; top:10%;    transform: translate(-50%, -50%);left:48%""></img><img src=""media/stimuli/animate_006_right.png"" class=""coveredImage test"" style = ""width:100px; height:100px;position:fixed; top:25%;        transform: translate(-50%, -50%);left:38%""></img><img src=""media/stimuli/animate_012_left.png"" class=""coveredImage test"" style = ""width:100px; height:100px;position:fixed; top:25%;        transform: translate(-50%, -50%);left:58%""></img><img src=""media/f.png""style = ""width:30px x; height:30px;position:fixed; top:43%;    transform: translate(-50%, -50%);left:40%""></img><img src=""media/j.png""style = ""width:30px; height:30px;position:fixed; top:43%;    transform: translate(-50%, -50%);left:60%""></img>","media/stimuli/animate_012_right.png","animate","right","single","media/stimuli/animate_006_right.png","animate","right","single","media/stimuli/animate_012_left.png","animate","left","single","identity_pose","","","",""
"","","","","","html-keyboard-response","98","291125","0.0-98.0","SS1678233856088","61539b3fa541b182c0fadde1","6406d7f26dd5b7fc1e3377bd","6407ce73917d5ae8b1f07e08","1920","929","","1269",""," ","","","","","","","","","","","","","","","","","","","",""
"","","","","","html-keyboard-response","99","292021","0.0-99.0","SS1678233856088","61539b3fa541b182c0fadde1","6406d7f26dd5b7fc1e3377bd","6407ce73917d5ae8b1f07e08","1920","929","","888","","f","","","<img src=""media/stimuli/animate_005_right.png"" class=""coveredImage test"" style = ""width:100px; height:100px; position:fixed; top:10%;    transform: translate(-50%, -50%);left:48%""></img><img src=""media/stimuli/animate_005_right.png"" class=""coveredImage test"" style = ""width:100px; height:100px;position:fixed; top:25%;        transform: translate(-50%, -50%);left:34.5%""></img><img src=""media/stimuli/animate_005_right.png"" class=""coveredImage test"" style = ""width:100px; height:100px;position:fixed; top:25%;        transform: translate(-50%, -50%);left:41.5%""></img><img src=""media/stimuli/inanimate_010_right.png"" class=""coveredImage test"" style = ""width:100px; height:100px;position:fixed; top:25%;        transform: translate(-50%, -50%);left:58%""></img><img src=""media/f.png""style = ""width:30px x; height:30px;position:fixed; top:43%;    transform: translate(-50%, -50%);left:40%""></img><img src=""media/j.png""style = ""width:30px; height:30px;position:fixed; top:43%;    transform: translate(-50%, -50%);left:60%""></img>","media/stimuli/animate_005_right.png","animate","right","single","media/stimuli/animate_005_right.png","animate","right","pair","media/stimuli/inanimate_010_right.png","inanimate","right","single","number_animacy","","","",""
"","","","","","html-keyboard-response","100","293220","0.0-100.0","SS1678233856088","61539b3fa541b182c0fadde1","6406d7f26dd5b7fc1e3377bd","6407ce73917d5ae8b1f07e08","1920","929","","1189","","f","","","<img src=""media/stimuli/animate_012_right.png"" class=""coveredImage test"" style = ""width:100px; height:100px; position:fixed; top:10%;    transform: translate(-50%, -50%);left:48%""></img><img src=""media/stimuli/animate_012_left.png"" class=""coveredImage test"" style = ""width:100px; height:100px;position:fixed; top:25%;        transform: translate(-50%, -50%);left:38%""></img><img src=""media/stimuli/animate_004_right.png"" class=""coveredImage test"" style = ""width:100px; height:100px;position:fixed; top:25%;        transform: translate(-50%, -50%);left:58%""></img><img src=""media/f.png""style = ""width:30px x; height:30px;position:fixed; top:43%;    transform: translate(-50%, -50%);left:40%""></img><img src=""media/j.png""style = ""width:30px; height:30px;position:fixed; top:43%;    transform: translate(-50%, -50%);left:60%""></img>","media/stimuli/animate_012_right.png","animate","right","single","media/stimuli/animate_012_left.png","animate","left","single","media/stimuli/animate_004_right.png","animate","right","single","pose_identity","","","",""
"","","","","","html-keyboard-response","101","296245","0.0-101.0","SS1678233856088","61539b3fa541b182c0fadde1","6406d7f26dd5b7fc1e3377bd","6407ce73917d5ae8b1f07e08","1920","929","","3022","","f","","","<img src=""media/stimuli/animate_010_right.png"" class=""coveredImage test"" style = ""width:100px; height:100px; position:fixed; top:10%;    transform: translate(-50%, -50%);left:48%""></img><img src=""media/stimuli/animate_010_left.png"" class=""coveredImage test"" style = ""width:100px; height:100px;position:fixed; top:25%;        transform: translate(-50%, -50%);left:38%""></img><img src=""media/stimuli/animate_010_right.png"" class=""coveredImage test"" style = ""width:100px; height:100px;position:fixed; top:25%;        transform: translate(-50%, -50%);left:54.5%""></img><img src=""media/stimuli/animate_010_right.png"" class=""coveredImage test"" style = ""width:100px; height:100px;position:fixed; top:25%;        transform: translate(-50%, -50%);left:61.5%""></img><img src=""media/f.png""style = ""width:30px x; height:30px;position:fixed; top:43%;    transform: translate(-50%, -50%);left:40%""></img><img src=""media/j.png""style = ""width:30px; height:30px;position:fixed; top:43%;    transform: translate(-50%, -50%);left:60%""></img>","media/stimuli/animate_010_right.png","animate","right","single","media/stimuli/animate_010_left.png","animate","left","single","media/stimuli/animate_010_right.png","animate","right","pair","pose_number","","","",""
"","","","","","html-keyboard-response","102","298565","0.0-102.0","SS1678233856088","61539b3fa541b182c0fadde1","6406d7f26dd5b7fc1e3377bd","6407ce73917d5ae8b1f07e08","1920","929","","2310","","j","","","<img src=""media/stimuli/animate_003_right.png"" class=""coveredImage test"" style = ""width:100px; height:100px; position:fixed; top:10%;    transform: translate(-50%, -50%);left:48%""></img><img src=""media/stimuli/inanimate_009_right.png"" class=""coveredImage test"" style = ""width:100px; height:100px;position:fixed; top:25%;        transform: translate(-50%, -50%);left:38%""></img><img src=""media/stimuli/animate_003_left.png"" class=""coveredImage test"" style = ""width:100px; height:100px;position:fixed; top:25%;        transform: translate(-50%, -50%);left:58%""></img><img src=""media/f.png""style = ""width:30px x; height:30px;position:fixed; top:43%;    transform: translate(-50%, -50%);left:40%""></img><img src=""media/j.png""style = ""width:30px; height:30px;position:fixed; top:43%;    transform: translate(-50%, -50%);left:60%""></img>","media/stimuli/animate_003_right.png","animate","right","single","media/stimuli/inanimate_009_right.png","inanimate","right","single","media/stimuli/animate_003_left.png","animate","left","single","animacy_pose","","","",""
"","","","","","html-keyboard-response","103","299910","0.0-103.0","SS1678233856088","61539b3fa541b182c0fadde1","6406d7f26dd5b7fc1e3377bd","6407ce73917d5ae8b1f07e08","1920","929","","1338","","f","","","<img src=""media/stimuli/animate_009_right.png"" class=""coveredImage test"" style = ""width:100px; height:100px; position:fixed; top:10%;    transform: translate(-50%, -50%);left:48%""></img><img src=""media/stimuli/animate_009_right.png"" class=""coveredImage test"" style = ""width:100px; height:100px;position:fixed; top:25%;        transform: translate(-50%, -50%);left:34.5%""></img><img src=""media/stimuli/animate_009_right.png"" class=""coveredImage test"" style = ""width:100px; height:100px;position:fixed; top:25%;        transform: translate(-50%, -50%);left:41.5%""></img><img src=""media/stimuli/animate_003_right.png"" class=""coveredImage test"" style = ""width:100px; height:100px;position:fixed; top:25%;        transform: translate(-50%, -50%);left:58%""></img><img src=""media/f.png""style = ""width:30px x; height:30px;position:fixed; top:43%;    transform: translate(-50%, -50%);left:40%""></img><img src=""media/j.png""style = ""width:30px; height:30px;position:fixed; top:43%;    transform: translate(-50%, -50%);left:60%""></img>","media/stimuli/animate_009_right.png","animate","right","single","media/stimuli/animate_009_right.png","animate","right","pair","media/stimuli/animate_003_right.png","animate","right","single","number_identity","","","",""
"","","","","","html-keyboard-response","104","301749","0.0-104.0","SS1678233856088","61539b3fa541b182c0fadde1","6406d7f26dd5b7fc1e3377bd","6407ce73917d5ae8b1f07e08","1920","929","","1829","","j","","","<img src=""media/stimuli/animate_011_right.png"" class=""coveredImage test"" style = ""width:100px; height:100px; position:fixed; top:10%;    transform: translate(-50%, -50%);left:44.5%""></img><img src=""media/stimuli/animate_011_right.png"" class=""coveredImage test"" style = ""width:100px; height:100px; position:fixed; top:10%;    transform: translate(-50%, -50%);left:51.5%""></img><img src=""media/stimuli/animate_004_right.png"" class=""coveredImage test"" style = ""width:100px; height:100px;position:fixed; top:25%;        transform: translate(-50%, -50%);left:34.5%""></img><img src=""media/stimuli/animate_004_right.png"" class=""coveredImage test"" style = ""width:100px; height:100px;position:fixed; top:25%;        transform: translate(-50%, -50%);left:41.5%""></img><img src=""media/stimuli/animate_011_left.png"" class=""coveredImage test"" style = ""width:100px; height:100px;position:fixed; top:25%;        transform: translate(-50%, -50%);left:54.5%""></img><img src=""media/stimuli/animate_011_left.png"" class=""coveredImage test"" style = ""width:100px; height:100px;position:fixed; top:25%;        transform: translate(-50%, -50%);left:61.5%""></img><img src=""media/f.png""style = ""width:30px x; height:30px;position:fixed; top:43%;    transform: translate(-50%, -50%);left:40%""></img><img src=""media/j.png""style = ""width:30px; height:30px;position:fixed; top:43%;    transform: translate(-50%, -50%);left:60%""></img>","media/stimuli/animate_011_right.png","animate","right","pair","media/stimuli/animate_004_right.png","animate","right","pair","media/stimuli/animate_011_left.png","animate","left","pair","identity_pose","","","",""
"","","","","","html-keyboard-response","105","302933","0.0-105.0","SS1678233856088","61539b3fa541b182c0fadde1","6406d7f26dd5b7fc1e3377bd","6407ce73917d5ae8b1f07e08","1920","929","","1173","","j","","","<img src=""media/stimuli/animate_012_right.png"" class=""coveredImage test"" style = ""width:100px; height:100px; position:fixed; top:10%;    transform: translate(-50%, -50%);left:48%""></img><img src=""media/stimuli/inanimate_004_right.png"" class=""coveredImage test"" style = ""width:100px; height:100px;position:fixed; top:25%;        transform: translate(-50%, -50%);left:38%""></img><img src=""media/stimuli/animate_012_right.png"" class=""coveredImage test"" style = ""width:100px; height:100px;position:fixed; top:25%;        transform: translate(-50%, -50%);left:54.5%""></img><img src=""media/stimuli/animate_012_right.png"" class=""coveredImage test"" style = ""width:100px; height:100px;position:fixed; top:25%;        transform: translate(-50%, -50%);left:61.5%""></img><img src=""media/f.png""style = ""width:30px x; height:30px;position:fixed; top:43%;    transform: translate(-50%, -50%);left:40%""></img><img src=""media/j.png""style = ""width:30px; height:30px;position:fixed; top:43%;    transform: translate(-50%, -50%);left:60%""></img>","media/stimuli/animate_012_right.png","animate","right","single","media/stimuli/inanimate_004_right.png","inanimate","right","single","media/stimuli/animate_012_right.png","animate","right","pair","animacy_number","","","",""
"","","","","","html-keyboard-response","106","304804","0.0-106.0","SS1678233856088","61539b3fa541b182c0fadde1","6406d7f26dd5b7fc1e3377bd","6407ce73917d5ae8b1f07e08","1920","929","","1865","","f","","","<img src=""media/stimuli/animate_007_left.png"" class=""coveredImage test"" style = ""width:100px; height:100px; position:fixed; top:10%;    transform: translate(-50%, -50%);left:44.5%""></img><img src=""media/stimuli/animate_007_left.png"" class=""coveredImage test"" style = ""width:100px; height:100px; position:fixed; top:10%;    transform: translate(-50%, -50%);left:51.5%""></img><img src=""media/stimuli/animate_001_left.png"" class=""coveredImage test"" style = ""width:100px; height:100px;position:fixed; top:25%;        transform: translate(-50%, -50%);left:34.5%""></img><img src=""media/stimuli/animate_001_left.png"" class=""coveredImage test"" style = ""width:100px; height:100px;position:fixed; top:25%;        transform: translate(-50%, -50%);left:41.5%""></img><img src=""media/stimuli/inanimate_002_left.png"" class=""coveredImage test"" style = ""width:100px; height:100px;position:fixed; top:25%;        transform: translate(-50%, -50%);left:54.5%""></img><img src=""media/stimuli/inanimate_002_left.png"" class=""coveredImage test"" style = ""width:100px; height:100px;position:fixed; top:25%;        transform: translate(-50%, -50%);left:61.5%""></img><img src=""media/f.png""style = ""width:30px x; height:30px;position:fixed; top:43%;    transform: translate(-50%, -50%);left:40%""></img><img src=""media/j.png""style = ""width:30px; height:30px;position:fixed; top:43%;    transform: translate(-50%, -50%);left:60%""></img>","media/stimuli/animate_007_left.png","animate","left","pair","media/stimuli/animate_001_left.png","animate","left","pair","media/stimuli/inanimate_002_left.png","inanimate","left","pair","identity_animacy","","","",""
"","","","","","html-keyboard-response","107","306005","0.0-107.0","SS1678233856088","61539b3fa541b182c0fadde1","6406d7f26dd5b7fc1e3377bd","6407ce73917d5ae8b1f07e08","1920","929","","1197","","j","","","<img src=""media/stimuli/animate_008_left.png"" class=""coveredImage test"" style = ""width:100px; height:100px; position:fixed; top:10%;    transform: translate(-50%, -50%);left:44.5%""></img><img src=""media/stimuli/animate_008_left.png"" class=""coveredImage test"" style = ""width:100px; height:100px; position:fixed; top:10%;    transform: translate(-50%, -50%);left:51.5%""></img><img src=""media/stimuli/inanimate_010_right.png"" class=""coveredImage test"" style = ""width:100px; height:100px;position:fixed; top:25%;        transform: translate(-50%, -50%);left:34.5%""></img><img src=""media/stimuli/inanimate_010_right.png"" class=""coveredImage test"" style = ""width:100px; height:100px;position:fixed; top:25%;        transform: translate(-50%, -50%);left:41.5%""></img><img src=""media/stimuli/animate_008_left.png"" class=""coveredImage test"" style = ""width:100px; height:100px;position:fixed; top:25%;        transform: translate(-50%, -50%);left:54.5%""></img><img src=""media/stimuli/animate_008_left.png"" class=""coveredImage test"" style = ""width:100px; height:100px;position:fixed; top:25%;        transform: translate(-50%, -50%);left:61.5%""></img><img src=""media/f.png""style = ""width:30px x; height:30px;position:fixed; top:43%;    transform: translate(-50%, -50%);left:40%""></img><img src=""media/j.png""style = ""width:30px; height:30px;position:fixed; top:43%;    transform: translate(-50%, -50%);left:60%""></img>","media/stimuli/animate_008_left.png","animate","left","pair","media/stimuli/inanimate_010_right.png","inanimate","right","pair","media/stimuli/animate_008_left.png","animate","left","pair","animacy_pose","","","",""
"","","","","","html-keyboard-response","108","307060","0.0-108.0","SS1678233856088","61539b3fa541b182c0fadde1","6406d7f26dd5b7fc1e3377bd","6407ce73917d5ae8b1f07e08","1920","929","","1046","","f","","","<img src=""media/stimuli/inanimate_005_left.png"" class=""coveredImage test"" style = ""width:100px; height:100px; position:fixed; top:10%;    transform: translate(-50%, -50%);left:44.5%""></img><img src=""media/stimuli/inanimate_005_left.png"" class=""coveredImage test"" style = ""width:100px; height:100px; position:fixed; top:10%;    transform: translate(-50%, -50%);left:51.5%""></img><img src=""media/stimuli/inanimate_005_right.png"" class=""coveredImage test"" style = ""width:100px; height:100px;position:fixed; top:25%;        transform: translate(-50%, -50%);left:34.5%""></img><img src=""media/stimuli/inanimate_005_right.png"" class=""coveredImage test"" style = ""width:100px; height:100px;position:fixed; top:25%;        transform: translate(-50%, -50%);left:41.5%""></img><img src=""media/stimuli/inanimate_012_left.png"" class=""coveredImage test"" style = ""width:100px; height:100px;position:fixed; top:25%;        transform: translate(-50%, -50%);left:54.5%""></img><img src=""media/stimuli/inanimate_012_left.png"" class=""coveredImage test"" style = ""width:100px; height:100px;position:fixed; top:25%;        transform: translate(-50%, -50%);left:61.5%""></img><img src=""media/f.png""style = ""width:30px x; height:30px;position:fixed; top:43%;    transform: translate(-50%, -50%);left:40%""></img><img src=""media/j.png""style = ""width:30px; height:30px;position:fixed; top:43%;    transform: translate(-50%, -50%);left:60%""></img>","media/stimuli/inanimate_005_left.png","inanimate","left","pair","media/stimuli/inanimate_005_right.png","inanimate","right","pair","media/stimuli/inanimate_012_left.png","inanimate","left","pair","pose_identity","","","",""
"","","","","","html-keyboard-response","109","308293","0.0-109.0","SS1678233856088","61539b3fa541b182c0fadde1","6406d7f26dd5b7fc1e3377bd","6407ce73917d5ae8b1f07e08","1920","929","","1228","","f","","","<img src=""media/stimuli/inanimate_007_right.png"" class=""coveredImage test"" style = ""width:100px; height:100px; position:fixed; top:10%;    transform: translate(-50%, -50%);left:44.5%""></img><img src=""media/stimuli/inanimate_007_right.png"" class=""coveredImage test"" style = ""width:100px; height:100px; position:fixed; top:10%;    transform: translate(-50%, -50%);left:51.5%""></img><img src=""media/stimuli/inanimate_007_left.png"" class=""coveredImage test"" style = ""width:100px; height:100px;position:fixed; top:25%;        transform: translate(-50%, -50%);left:34.5%""></img><img src=""media/stimuli/inanimate_007_left.png"" class=""coveredImage test"" style = ""width:100px; height:100px;position:fixed; top:25%;        transform: translate(-50%, -50%);left:41.5%""></img><img src=""media/stimuli/inanimate_007_right.png"" class=""coveredImage test"" style = ""width:100px; height:100px;position:fixed; top:25%;        transform: translate(-50%, -50%);left:58%""></img><img src=""media/f.png""style = ""width:30px x; height:30px;position:fixed; top:43%;    transform: translate(-50%, -50%);left:40%""></img><img src=""media/j.png""style = ""width:30px; height:30px;position:fixed; top:43%;    transform: translate(-50%, -50%);left:60%""></img>","media/stimuli/inanimate_007_right.png","inanimate","right","pair","media/stimuli/inanimate_007_left.png","inanimate","left","pair","media/stimuli/inanimate_007_right.png","inanimate","right","single","pose_number","","","",""
"","","","","","html-keyboard-response","110","309188","0.0-110.0","SS1678233856088","61539b3fa541b182c0fadde1","6406d7f26dd5b7fc1e3377bd","6407ce73917d5ae8b1f07e08","1920","929","","885","","f","","","<img src=""media/stimuli/inanimate_005_left.png"" class=""coveredImage test"" style = ""width:100px; height:100px; position:fixed; top:10%;    transform: translate(-50%, -50%);left:48%""></img><img src=""media/stimuli/inanimate_005_left.png"" class=""coveredImage test"" style = ""width:100px; height:100px;position:fixed; top:25%;        transform: translate(-50%, -50%);left:34.5%""></img><img src=""media/stimuli/inanimate_005_left.png"" class=""coveredImage test"" style = ""width:100px; height:100px;position:fixed; top:25%;        transform: translate(-50%, -50%);left:41.5%""></img><img src=""media/stimuli/inanimate_003_left.png"" class=""coveredImage test"" style = ""width:100px; height:100px;position:fixed; top:25%;        transform: translate(-50%, -50%);left:58%""></img><img src=""media/f.png""style = ""width:30px x; height:30px;position:fixed; top:43%;    transform: translate(-50%, -50%);left:40%""></img><img src=""media/j.png""style = ""width:30px; height:30px;position:fixed; top:43%;    transform: translate(-50%, -50%);left:60%""></img>","media/stimuli/inanimate_005_left.png","inanimate","left","single","media/stimuli/inanimate_005_left.png","inanimate","left","pair","media/stimuli/inanimate_003_left.png","inanimate","left","single","number_identity","","","",""
"","","","","","html-keyboard-response","111","310662","0.0-111.0","SS1678233856088","61539b3fa541b182c0fadde1","6406d7f26dd5b7fc1e3377bd","6407ce73917d5ae8b1f07e08","1920","929","","1469",""," ","","","","","","","","","","","","","","","","","","","",""
"","","","","","survey-likert","112","322725","0.0-112.0","SS1678233856088","61539b3fa541b182c0fadde1","6406d7f26dd5b7fc1e3377bd","6407ce73917d5ae8b1f07e08","1920","929","","12053","","{""Q0"":1}","[0]","complexity","","","","","","","","","","","","","","","media/stimuli/animate_008_right.png","animate","pair","right"
"","","","","","survey-likert","113","326101","0.0-113.0","SS1678233856088","61539b3fa541b182c0fadde1","6406d7f26dd5b7fc1e3377bd","6407ce73917d5ae8b1f07e08","1920","929","","3372","","{""Q0"":1}","[0]","complexity","","","","","","","","","","","","","","","media/stimuli/animate_006_right.png","animate","single","right"
"","","","","","survey-likert","114","329413","0.0-114.0","SS1678233856088","61539b3fa541b182c0fadde1","6406d7f26dd5b7fc1e3377bd","6407ce73917d5ae8b1f07e08","1920","929","","3306","","{""Q0"":1}","[0]","complexity","","","","","","","","","","","","","","","media/stimuli/animate_001_right.png","animate","single","right"
"","","","","","survey-likert","115","331540","0.0-115.0","SS1678233856088","61539b3fa541b182c0fadde1","6406d7f26dd5b7fc1e3377bd","6407ce73917d5ae8b1f07e08","1920","929","","2123","","{""Q0"":1}","[0]","complexity","","","","","","","","","","","","","","","media/stimuli/animate_010_left.png","animate","single","left"
"","","","","","survey-likert","116","335557","0.0-116.0","SS1678233856088","61539b3fa541b182c0fadde1","6406d7f26dd5b7fc1e3377bd","6407ce73917d5ae8b1f07e08","1920","929","","4012","","{""Q0"":1}","[0]","complexity","","","","","","","","","","","","","","","media/stimuli/inanimate_008_left.png","inanimate","single","left"
"","","","","","survey-likert","117","337781","0.0-117.0","SS1678233856088","61539b3fa541b182c0fadde1","6406d7f26dd5b7fc1e3377bd","6407ce73917d5ae8b1f07e08","1920","929","","2220","","{""Q0"":1}","[0]","complexity","","","","","","","","","","","","","","","media/stimuli/animate_011_left.png","animate","pair","left"
"","","","","","survey-likert","118","339972","0.0-118.0","SS1678233856088","61539b3fa541b182c0fadde1","6406d7f26dd5b7fc1e3377bd","6407ce73917d5ae8b1f07e08","1920","929","","2187","","{""Q0"":1}","[0]","complexity","","","","","","","","","","","","","","","media/stimuli/inanimate_011_right.png","inanimate","pair","right"
"","","","","","survey-likert","119","342148","0.0-119.0","SS1678233856088","61539b3fa541b182c0fadde1","6406d7f26dd5b7fc1e3377bd","6407ce73917d5ae8b1f07e08","1920","929","","2172","","{""Q0"":1}","[0]","complexity","","","","","","","","","","","","","","","media/stimuli/animate_005_left.png","animate","single","left"
"","","","","","survey-likert","120","344669","0.0-120.0","SS1678233856088","61539b3fa541b182c0fadde1","6406d7f26dd5b7fc1e3377bd","6407ce73917d5ae8b1f07e08","1920","929","","2515","","{""Q0"":1}","[0]","complexity","","","","","","","","","","","","","","","media/stimuli/inanimate_010_left.png","inanimate","single","left"
"","","","","","survey-likert","121","346837","0.0-121.0","SS1678233856088","61539b3fa541b182c0fadde1","6406d7f26dd5b7fc1e3377bd","6407ce73917d5ae8b1f07e08","1920","929","","2163","","{""Q0"":1}","[0]","complexity","","","","","","","","","","","","","","","media/stimuli/inanimate_012_right.png","inanimate","pair","right"
"","","","","","survey-likert","122","349429","0.0-122.0","SS1678233856088","61539b3fa541b182c0fadde1","6406d7f26dd5b7fc1e3377bd","6407ce73917d5ae8b1f07e08","1920","929","","2586","","{""Q0"":1}","[0]","complexity","","","","","","","","","","","","","","","media/stimuli/animate_006_left.png","animate","single","left"
"","","","","","survey-likert","123","352428","0.0-123.0","SS1678233856088","61539b3fa541b182c0fadde1","6406d7f26dd5b7fc1e3377bd","6407ce73917d5ae8b1f07e08","1920","929","","2995","","{""Q0"":1}","[0]","complexity","","","","","","","","","","","","","","","media/stimuli/inanimate_006_right.png","inanimate","pair","right"
"","","","","","html-keyboard-response","124","354373","0.0-124.0","SS1678233856088","61539b3fa541b182c0fadde1","6406d7f26dd5b7fc1e3377bd","6407ce73917d5ae8b1f07e08","1920","929","","1940",""," ","","","","","","","","","","","","","","","","","","","",""
"","","","","","html-keyboard-response","125","357429","0.0-125.0","SS1678233856088","61539b3fa541b182c0fadde1","6406d7f26dd5b7fc1e3377bd","6407ce73917d5ae8b1f07e08","1920","929","","3045","","f","","","<img src=""media/stimuli/animate_004_left.png"" class=""coveredImage test"" style = ""width:100px; height:100px; position:fixed; top:10%;    transform: translate(-50%, -50%);left:44.5%""></img><img src=""media/stimuli/animate_004_left.png"" class=""coveredImage test"" style = ""width:100px; height:100px; position:fixed; top:10%;    transform: translate(-50%, -50%);left:51.5%""></img><img src=""media/stimuli/animate_002_left.png"" class=""coveredImage test"" style = ""width:100px; height:100px;position:fixed; top:25%;        transform: translate(-50%, -50%);left:34.5%""></img><img src=""media/stimuli/animate_002_left.png"" class=""coveredImage test"" style = ""width:100px; height:100px;position:fixed; top:25%;        transform: translate(-50%, -50%);left:41.5%""></img><img src=""media/stimuli/inanimate_009_left.png"" class=""coveredImage test"" style = ""width:100px; height:100px;position:fixed; top:25%;        transform: translate(-50%, -50%);left:54.5%""></img><img src=""media/stimuli/inanimate_009_left.png"" class=""coveredImage test"" style = ""width:100px; height:100px;position:fixed; top:25%;        transform: translate(-50%, -50%);left:61.5%""></img><img src=""media/f.png""style = ""width:30px x; height:30px;position:fixed; top:43%;    transform: translate(-50%, -50%);left:40%""></img><img src=""media/j.png""style = ""width:30px; height:30px;position:fixed; top:43%;    transform: translate(-50%, -50%);left:60%""></img>","media/stimuli/animate_004_left.png","animate","left","pair","media/stimuli/animate_002_left.png","animate","left","pair","media/stimuli/inanimate_009_left.png","inanimate","left","pair","identity_animacy","","","",""
"","","","","","html-keyboard-response","126","359909","0.0-126.0","SS1678233856088","61539b3fa541b182c0fadde1","6406d7f26dd5b7fc1e3377bd","6407ce73917d5ae8b1f07e08","1920","929","","2467","","j","","","<img src=""media/stimuli/inanimate_012_left.png"" class=""coveredImage test"" style = ""width:100px; height:100px; position:fixed; top:10%;    transform: translate(-50%, -50%);left:44.5%""></img><img src=""media/stimuli/inanimate_012_left.png"" class=""coveredImage test"" style = ""width:100px; height:100px; position:fixed; top:10%;    transform: translate(-50%, -50%);left:51.5%""></img><img src=""media/stimuli/inanimate_012_left.png"" class=""coveredImage test"" style = ""width:100px; height:100px;position:fixed; top:25%;        transform: translate(-50%, -50%);left:38%""></img><img src=""media/stimuli/inanimate_012_right.png"" class=""coveredImage test"" style = ""width:100px; height:100px;position:fixed; top:25%;        transform: translate(-50%, -50%);left:54.5%""></img><img src=""media/stimuli/inanimate_012_right.png"" class=""coveredImage test"" style = ""width:100px; height:100px;position:fixed; top:25%;        transform: translate(-50%, -50%);left:61.5%""></img><img src=""media/f.png""style = ""width:30px x; height:30px;position:fixed; top:43%;    transform: translate(-50%, -50%);left:40%""></img><img src=""media/j.png""style = ""width:30px; height:30px;position:fixed; top:43%;    transform: translate(-50%, -50%);left:60%""></img>","media/stimuli/inanimate_012_left.png","inanimate","left","pair","media/stimuli/inanimate_012_left.png","inanimate","left","single","media/stimuli/inanimate_012_right.png","inanimate","right","pair","number_pose","","","",""
"","","","","","html-keyboard-response","127","362229","0.0-127.0","SS1678233856088","61539b3fa541b182c0fadde1","6406d7f26dd5b7fc1e3377bd","6407ce73917d5ae8b1f07e08","1920","929","","2308","","j","","","<img src=""media/stimuli/animate_002_right.png"" class=""coveredImage test"" style = ""width:100px; height:100px; position:fixed; top:10%;    transform: translate(-50%, -50%);left:44.5%""></img><img src=""media/stimuli/animate_002_right.png"" class=""coveredImage test"" style = ""width:100px; height:100px; position:fixed; top:10%;    transform: translate(-50%, -50%);left:51.5%""></img><img src=""media/stimuli/animate_001_right.png"" class=""coveredImage test"" style = ""width:100px; height:100px;position:fixed; top:25%;        transform: translate(-50%, -50%);left:34.5%""></img><img src=""media/stimuli/animate_001_right.png"" class=""coveredImage test"" style = ""width:100px; height:100px;position:fixed; top:25%;        transform: translate(-50%, -50%);left:41.5%""></img><img src=""media/stimuli/animate_002_left.png"" class=""coveredImage test"" style = ""width:100px; height:100px;position:fixed; top:25%;        transform: translate(-50%, -50%);left:54.5%""></img><img src=""media/stimuli/animate_002_left.png"" class=""coveredImage test"" style = ""width:100px; height:100px;position:fixed; top:25%;        transform: translate(-50%, -50%);left:61.5%""></img><img src=""media/f.png""style = ""width:30px x; height:30px;position:fixed; top:43%;    transform: translate(-50%, -50%);left:40%""></img><img src=""media/j.png""style = ""width:30px; height:30px;position:fixed; top:43%;    transform: translate(-50%, -50%);left:60%""></img>","media/stimuli/animate_002_right.png","animate","right","pair","media/stimuli/animate_001_right.png","animate","right","pair","media/stimuli/animate_002_left.png","animate","left","pair","identity_pose","","","",""
"","","","","","html-keyboard-response","128","365205","0.0-128.0","SS1678233856088","61539b3fa541b182c0fadde1","6406d7f26dd5b7fc1e3377bd","6407ce73917d5ae8b1f07e08","1920","929","","2968","","j","","","<img src=""media/stimuli/animate_003_right.png"" class=""coveredImage test"" style = ""width:100px; height:100px; position:fixed; top:10%;    transform: translate(-50%, -50%);left:48%""></img><img src=""media/stimuli/animate_003_left.png"" class=""coveredImage test"" style = ""width:100px; height:100px;position:fixed; top:25%;        transform: translate(-50%, -50%);left:38%""></img><img src=""media/stimuli/animate_003_right.png"" class=""coveredImage test"" style = ""width:100px; height:100px;position:fixed; top:25%;        transform: translate(-50%, -50%);left:58%""></img><img src=""media/f.png""style = ""width:30px x; height:30px;position:fixed; top:43%;    transform: translate(-50%, -50%);left:40%""></img><img src=""media/j.png""style = ""width:30px; height:30px;position:fixed; top:43%;    transform: translate(-50%, -50%);left:60%""></img>","media/stimuli/animate_003_right.png","animate","right","single","media/stimuli/animate_003_left.png","animate","left","single","media/stimuli/animate_003_right.png","animate","right","single","pose_filler","","","",""
"","","","","","html-keyboard-response","129","367349","0.0-129.0","SS1678233856088","61539b3fa541b182c0fadde1","6406d7f26dd5b7fc1e3377bd","6407ce73917d5ae8b1f07e08","1920","929","","2138","","f","","","<img src=""media/stimuli/inanimate_001_left.png"" class=""coveredImage test"" style = ""width:100px; height:100px; position:fixed; top:10%;    transform: translate(-50%, -50%);left:44.5%""></img><img src=""media/stimuli/inanimate_001_left.png"" class=""coveredImage test"" style = ""width:100px; height:100px; position:fixed; top:10%;    transform: translate(-50%, -50%);left:51.5%""></img><img src=""media/stimuli/inanimate_009_left.png"" class=""coveredImage test"" style = ""width:100px; height:100px;position:fixed; top:25%;        transform: translate(-50%, -50%);left:34.5%""></img><img src=""media/stimuli/inanimate_009_left.png"" class=""coveredImage test"" style = ""width:100px; height:100px;position:fixed; top:25%;        transform: translate(-50%, -50%);left:41.5%""></img><img src=""media/stimuli/animate_005_left.png"" class=""coveredImage test"" style = ""width:100px; height:100px;position:fixed; top:25%;        transform: translate(-50%, -50%);left:54.5%""></img><img src=""media/stimuli/animate_005_left.png"" class=""coveredImage test"" style = ""width:100px; height:100px;position:fixed; top:25%;        transform: translate(-50%, -50%);left:61.5%""></img><img src=""media/f.png""style = ""width:30px x; height:30px;position:fixed; top:43%;    transform: translate(-50%, -50%);left:40%""></img><img src=""media/j.png""style = ""width:30px; height:30px;position:fixed; top:43%;    transform: translate(-50%, -50%);left:60%""></img>","media/stimuli/inanimate_001_left.png","inanimate","left","pair","media/stimuli/inanimate_009_left.png","inanimate","left","pair","media/stimuli/animate_005_left.png","animate","left","pair","identity_animacy","","","",""
"","","","","","html-keyboard-response","130","369108","0.0-130.0","SS1678233856088","61539b3fa541b182c0fadde1","6406d7f26dd5b7fc1e3377bd","6407ce73917d5ae8b1f07e08","1920","929","","1752","","j","","","<img src=""media/stimuli/inanimate_009_right.png"" class=""coveredImage test"" style = ""width:100px; height:100px; position:fixed; top:10%;    transform: translate(-50%, -50%);left:44.5%""></img><img src=""media/stimuli/inanimate_009_right.png"" class=""coveredImage test"" style = ""width:100px; height:100px; position:fixed; top:10%;    transform: translate(-50%, -50%);left:51.5%""></img><img src=""media/stimuli/animate_006_right.png"" class=""coveredImage test"" style = ""width:100px; height:100px;position:fixed; top:25%;        transform: translate(-50%, -50%);left:38%""></img><img src=""media/stimuli/inanimate_009_left.png"" class=""coveredImage test"" style = ""width:100px; height:100px;position:fixed; top:25%;        transform: translate(-50%, -50%);left:58%""></img><img src=""media/f.png""style = ""width:30px x; height:30px;position:fixed; top:43%;    transform: translate(-50%, -50%);left:40%""></img><img src=""media/j.png""style = ""width:30px; height:30px;position:fixed; top:43%;    transform: translate(-50%, -50%);left:60%""></img>","media/stimuli/inanimate_009_right.png","inanimate","right","pair","media/stimuli/animate_006_right.png","animate","right","single","media/stimuli/inanimate_009_left.png","inanimate","left","single","animacy_pose","","","",""
"","","","","","html-keyboard-response","131","370420","0.0-131.0","SS1678233856088","61539b3fa541b182c0fadde1","6406d7f26dd5b7fc1e3377bd","6407ce73917d5ae8b1f07e08","1920","929","","1303","","f","","","<img src=""media/stimuli/animate_010_left.png"" class=""coveredImage test"" style = ""width:100px; height:100px; position:fixed; top:10%;    transform: translate(-50%, -50%);left:44.5%""></img><img src=""media/stimuli/animate_010_left.png"" class=""coveredImage test"" style = ""width:100px; height:100px; position:fixed; top:10%;    transform: translate(-50%, -50%);left:51.5%""></img><img src=""media/stimuli/animate_010_left.png"" class=""coveredImage test"" style = ""width:100px; height:100px;position:fixed; top:25%;        transform: translate(-50%, -50%);left:38%""></img><img src=""media/stimuli/animate_003_left.png"" class=""coveredImage test"" style = ""width:100px; height:100px;position:fixed; top:25%;        transform: translate(-50%, -50%);left:54.5%""></img><img src=""media/stimuli/animate_003_left.png"" class=""coveredImage test"" style = ""width:100px; height:100px;position:fixed; top:25%;        transform: translate(-50%, -50%);left:61.5%""></img><img src=""media/f.png""style = ""width:30px x; height:30px;position:fixed; top:43%;    transform: translate(-50%, -50%);left:40%""></img><img src=""media/j.png""style = ""width:30px; height:30px;position:fixed; top:43%;    transform: translate(-50%, -50%);left:60%""></img>","media/stimuli/animate_010_left.png","animate","left","pair","media/stimuli/animate_010_left.png","animate","left","single","media/stimuli/animate_003_left.png","animate","left","pair","number_identity","","","",""
"","","","","","html-keyboard-response","132","371956","0.0-132.0","SS1678233856088","61539b3fa541b182c0fadde1","6406d7f26dd5b7fc1e3377bd","6407ce73917d5ae8b1f07e08","1920","929","","1533","","f","","","<img src=""media/stimuli/inanimate_012_right.png"" class=""coveredImage test"" style = ""width:100px; height:100px; position:fixed; top:10%;    transform: translate(-50%, -50%);left:48%""></img><img src=""media/stimuli/inanimate_007_right.png"" class=""coveredImage test"" style = ""width:100px; height:100px;position:fixed; top:25%;        transform: translate(-50%, -50%);left:38%""></img><img src=""media/stimuli/animate_007_right.png"" class=""coveredImage test"" style = ""width:100px; height:100px;position:fixed; top:25%;        transform: translate(-50%, -50%);left:58%""></img><img src=""media/f.png""style = ""width:30px x; height:30px;position:fixed; top:43%;    transform: translate(-50%, -50%);left:40%""></img><img src=""media/j.png""style = ""width:30px; height:30px;position:fixed; top:43%;    transform: translate(-50%, -50%);left:60%""></img>","media/stimuli/inanimate_012_right.png","inanimate","right","single","media/stimuli/inanimate_007_right.png","inanimate","right","single","media/stimuli/animate_007_right.png","animate","right","single","identity_animacy","","","",""
"","","","","","html-keyboard-response","133","373781","0.0-133.0","SS1678233856088","61539b3fa541b182c0fadde1","6406d7f26dd5b7fc1e3377bd","6407ce73917d5ae8b1f07e08","1920","929","","1818","","j","","","<img src=""media/stimuli/inanimate_011_right.png"" class=""coveredImage test"" style = ""width:100px; height:100px; position:fixed; top:10%;    transform: translate(-50%, -50%);left:44.5%""></img><img src=""media/stimuli/inanimate_011_right.png"" class=""coveredImage test"" style = ""width:100px; height:100px; position:fixed; top:10%;    transform: translate(-50%, -50%);left:51.5%""></img><img src=""media/stimuli/inanimate_007_right.png"" class=""coveredImage test"" style = ""width:100px; height:100px;position:fixed; top:25%;        transform: translate(-50%, -50%);left:34.5%""></img><img src=""media/stimuli/inanimate_007_right.png"" class=""coveredImage test"" style = ""width:100px; height:100px;position:fixed; top:25%;        transform: translate(-50%, -50%);left:41.5%""></img><img src=""media/stimuli/inanimate_011_left.png"" class=""coveredImage test"" style = ""width:100px; height:100px;position:fixed; top:25%;        transform: translate(-50%, -50%);left:54.5%""></img><img src=""media/stimuli/inanimate_011_left.png"" class=""coveredImage test"" style = ""width:100px; height:100px;position:fixed; top:25%;        transform: translate(-50%, -50%);left:61.5%""></img><img src=""media/f.png""style = ""width:30px x; height:30px;position:fixed; top:43%;    transform: translate(-50%, -50%);left:40%""></img><img src=""media/j.png""style = ""width:30px; height:30px;position:fixed; top:43%;    transform: translate(-50%, -50%);left:60%""></img>","media/stimuli/inanimate_011_right.png","inanimate","right","pair","media/stimuli/inanimate_007_right.png","inanimate","right","pair","media/stimuli/inanimate_011_left.png","inanimate","left","pair","identity_pose","","","",""
"","","","","","html-keyboard-response","134","374948","0.0-134.0","SS1678233856088","61539b3fa541b182c0fadde1","6406d7f26dd5b7fc1e3377bd","6407ce73917d5ae8b1f07e08","1920","929","","1157","","f","","","<img src=""media/stimuli/inanimate_004_left.png"" class=""coveredImage test"" style = ""width:100px; height:100px; position:fixed; top:10%;    transform: translate(-50%, -50%);left:44.5%""></img><img src=""media/stimuli/inanimate_004_left.png"" class=""coveredImage test"" style = ""width:100px; height:100px; position:fixed; top:10%;    transform: translate(-50%, -50%);left:51.5%""></img><img src=""media/stimuli/inanimate_004_left.png"" class=""coveredImage test"" style = ""width:100px; height:100px;position:fixed; top:25%;        transform: translate(-50%, -50%);left:38%""></img><img src=""media/stimuli/animate_007_left.png"" class=""coveredImage test"" style = ""width:100px; height:100px;position:fixed; top:25%;        transform: translate(-50%, -50%);left:54.5%""></img><img src=""media/stimuli/animate_007_left.png"" class=""coveredImage test"" style = ""width:100px; height:100px;position:fixed; top:25%;        transform: translate(-50%, -50%);left:61.5%""></img><img src=""media/f.png""style = ""width:30px x; height:30px;position:fixed; top:43%;    transform: translate(-50%, -50%);left:40%""></img><img src=""media/j.png""style = ""width:30px; height:30px;position:fixed; top:43%;    transform: translate(-50%, -50%);left:60%""></img>","media/stimuli/inanimate_004_left.png","inanimate","left","pair","media/stimuli/inanimate_004_left.png","inanimate","left","single","media/stimuli/animate_007_left.png","animate","left","pair","number_animacy","","","",""
