"success","timeout","failed_images","failed_audio","failed_video","trial_type","trial_index","time_elapsed","internal_node_id","subject","prolific_id","study","session","window_width","window_height","view_history","rt","stimulus_type","response","question_order","rating_type","rating_stimulus","rating_animacy","rating_number","rating_pose","stimulus","target","target_animacy","target_pose","target_number","left","left_animacy","left_pose","left_number","right","right_animacy","right_pose","right_number","comparison_type"
"true","false","[]","[]","[]","preload","0","2774","0.0-0.0","SS1678233204091","601b75077aa0425330b81e36","6406d7f26dd5b7fc1e3377bd","6407ce5fc8948e240c192951","1920","937","","","","","","","","","","","","","","","","","","","","","","","",""
"","","","","","instructions","1","9896","0.0-1.0","SS1678233204091","601b75077aa0425330b81e36","6406d7f26dd5b7fc1e3377bd","6407ce5fc8948e240c192951","1920","937","[{""page_index"":0,""viewing_time"":7120}]","7120","","","","","","","","","","","","","","","","","","","","","",""
"","","","","","instructions","2","26350","0.0-2.0","SS1678233204091","601b75077aa0425330b81e36","6406d7f26dd5b7fc1e3377bd","6407ce5fc8948e240c192951","1920","937","[{""page_index"":0,""viewing_time"":14452}]","14452","instructions","","","","","","","","","","","","","","","","","","","","",""
"","","","","","instructions","3","31428","0.0-3.0","SS1678233204091","601b75077aa0425330b81e36","6406d7f26dd5b7fc1e3377bd","6407ce5fc8948e240c192951","1920","937","[{""page_index"":0,""viewing_time"":5077}]","5077","instructions","","","","","","","","","","","","","","","","","","","","",""
"","","","","","survey-likert","4","47720","0.0-4.0","SS1678233204091","601b75077aa0425330b81e36","6406d7f26dd5b7fc1e3377bd","6407ce5fc8948e240c192951","1920","937","","16291","","{""Q0"":2}","[0]","anchoring","","","","","","","","","","","","","","","","","",""
"","","","","","survey-likert","5","52597","0.0-5.0","SS1678233204091","601b75077aa0425330b81e36","6406d7f26dd5b7fc1e3377bd","6407ce5fc8948e240c192951","1920","937","","4874","","{""Q0"":2}","[0]","anchoring","","","","","","","","","","","","","","","","","",""
"","","","","","instructions","6","55946","0.0-6.0","SS1678233204091","601b75077aa0425330b81e36","6406d7f26dd5b7fc1e3377bd","6407ce5fc8948e240c192951","1920","937","[{""page_index"":0,""viewing_time"":3346}]","3346","instructions","","","","","","","","","","","","","","","","","","","","",""
"true","","","","","fullscreen","7","59603","0.0-7.0","SS1678233204091","601b75077aa0425330b81e36","6406d7f26dd5b7fc1e3377bd","6407ce5fc8948e240c192951","1920","937","","","","","","","","","","","","","","","","","","","","","","","",""
"","","","","","survey-likert","8","63704","0.0-8.0","SS1678233204091","601b75077aa0425330b81e36","6406d7f26dd5b7fc1e3377bd","6407ce5fc8948e240c192951","1920","937","","4099","","{""Q0"":2}","[0]","complexity","media/stimuli/inanimate_004_right.png","inanimate","single","right","","","","","","","","","","","","","",""
"","","","","","survey-likert","9","67478","0.0-9.0","SS1678233204091","601b75077aa0425330b81e36","6406d7f26dd5b7fc1e3377bd","6407ce5fc8948e240c192951","1920","937","","3770","","{""Q0"":2}","[0]","complexity","media/stimuli/inanimate_009_right.png","inanimate","pair","right","","","","","","","","","","","","","",""
"","","","","","survey-likert","10","72417","0.0-10.0","SS1678233204091","601b75077aa0425330b81e36","6406d7f26dd5b7fc1e3377bd","6407ce5fc8948e240c192951","1920","937","","4936","","{""Q0"":2}","[0]","complexity","media/stimuli/animate_004_left.png","animate","single","left","","","","","","","","","","","","","",""
"","","","","","survey-likert","11","75577","0.0-11.0","SS1678233204091","601b75077aa0425330b81e36","6406d7f26dd5b7fc1e3377bd","6407ce5fc8948e240c192951","1920","937","","3156","","{""Q0"":2}","[0]","complexity","media/stimuli/animate_012_left.png","animate","pair","left","","","","","","","","","","","","","",""
"","","","","","survey-likert","12","79523","0.0-12.0","SS1678233204091","601b75077aa0425330b81e36","6406d7f26dd5b7fc1e3377bd","6407ce5fc8948e240c192951","1920","937","","3943","","{""Q0"":2}","[0]","complexity","media/stimuli/inanimate_012_right.png","inanimate","pair","right","","","","","","","","","","","","","",""
"","","","","","survey-likert","13","83639","0.0-13.0","SS1678233204091","601b75077aa0425330b81e36","6406d7f26dd5b7fc1e3377bd","6407ce5fc8948e240c192951","1920","937","","4113","","{""Q0"":2}","[0]","complexity","media/stimuli/inanimate_006_left.png","inanimate","single","left","","","","","","","","","","","","","",""
"","","","","","survey-likert","14","87367","0.0-14.0","SS1678233204091","601b75077aa0425330b81e36","6406d7f26dd5b7fc1e3377bd","6407ce5fc8948e240c192951","1920","937","","3725","","{""Q0"":2}","[0]","complexity","media/stimuli/inanimate_001_left.png","inanimate","single","left","","","","","","","","","","","","","",""
"","","","","","survey-likert","15","91430","0.0-15.0","SS1678233204091","601b75077aa0425330b81e36","6406d7f26dd5b7fc1e3377bd","6407ce5fc8948e240c192951","1920","937","","4059","","{""Q0"":2}","[0]","complexity","media/stimuli/animate_005_right.png","animate","single","right","","","","","","","","","","","","","",""
"","","","","","survey-likert","16","94691","0.0-16.0","SS1678233204091","601b75077aa0425330b81e36","6406d7f26dd5b7fc1e3377bd","6407ce5fc8948e240c192951","1920","937","","3259","","{""Q0"":2}","[0]","complexity","media/stimuli/animate_003_right.png","animate","single","right","","","","","","","","","","","","","",""
"","","","","","survey-likert","17","97169","0.0-17.0","SS1678233204091","601b75077aa0425330b81e36","6406d7f26dd5b7fc1e3377bd","6407ce5fc8948e240c192951","1920","937","","2475","","{""Q0"":2}","[0]","complexity","media/stimuli/animate_008_left.png","animate","single","left","","","","","","","","","","","","","",""
"","","","","","survey-likert","18","100105","0.0-18.0","SS1678233204091","601b75077aa0425330b81e36","6406d7f26dd5b7fc1e3377bd","6407ce5fc8948e240c192951","1920","937","","2933","","{""Q0"":2}","[0]","complexity","media/stimuli/animate_012_right.png","animate","pair","right","","","","","","","","","","","","","",""
"","","","","","survey-likert","19","103709","0.0-19.0","SS1678233204091","601b75077aa0425330b81e36","6406d7f26dd5b7fc1e3377bd","6407ce5fc8948e240c192951","1920","937","","3600","","{""Q0"":2}","[0]","complexity","media/stimuli/animate_009_right.png","animate","pair","right","","","","","","","","","","","","","",""
"","","","","","html-keyboard-response","20","108961","0.0-20.0","SS1678233204091","601b75077aa0425330b81e36","6406d7f26dd5b7fc1e3377bd","6407ce5fc8948e240c192951","1920","937","","5249","","enter","","","","","","","","","","","","","","","","","","","",""
"","","","","","survey-likert","21","113269","0.0-21.0","SS1678233204091","601b75077aa0425330b81e36","6406d7f26dd5b7fc1e3377bd","6407ce5fc8948e240c192951","1920","937","","4307","","{""Q0"":2}","[0]","complexity","media/stimuli/animate_007_right.png","animate","pair","right","","","","","","","","","","","","","",""
"","","","","","survey-likert","22","117223","0.0-22.0","SS1678233204091","601b75077aa0425330b81e36","6406d7f26dd5b7fc1e3377bd","6407ce5fc8948e240c192951","1920","937","","3949","","{""Q0"":2}","[0]","complexity","media/stimuli/inanimate_011_left.png","inanimate","pair","left","","","","","","","","","","","","","",""
"","","","","","survey-likert","23","120344","0.0-23.0","SS1678233204091","601b75077aa0425330b81e36","6406d7f26dd5b7fc1e3377bd","6407ce5fc8948e240c192951","1920","937","","3118","","{""Q0"":2}","[0]","complexity","media/stimuli/inanimate_012_left.png","inanimate","pair","left","","","","","","","","","","","","","",""
"","","","","","survey-likert","24","123489","0.0-24.0","SS1678233204091","601b75077aa0425330b81e36","6406d7f26dd5b7fc1e3377bd","6407ce5fc8948e240c192951","1920","937","","3142","","{""Q0"":2}","[0]","complexity","media/stimuli/inanimate_005_left.png","inanimate","single","left","","","","","","","","","","","","","",""
"","","","","","survey-likert","25","126673","0.0-25.0","SS1678233204091","601b75077aa0425330b81e36","6406d7f26dd5b7fc1e3377bd","6407ce5fc8948e240c192951","1920","937","","3181","","{""Q0"":2}","[0]","complexity","media/stimuli/inanimate_002_left.png","inanimate","pair","left","","","","","","","","","","","","","",""
"","","","","","survey-likert","26","130183","0.0-26.0","SS1678233204091","601b75077aa0425330b81e36","6406d7f26dd5b7fc1e3377bd","6407ce5fc8948e240c192951","1920","937","","3506","","{""Q0"":2}","[0]","complexity","media/stimuli/animate_002_left.png","animate","single","left","","","","","","","","","","","","","",""
"","","","","","survey-likert","27","133065","0.0-27.0","SS1678233204091","601b75077aa0425330b81e36","6406d7f26dd5b7fc1e3377bd","6407ce5fc8948e240c192951","1920","937","","2879","","{""Q0"":2}","[0]","complexity","media/stimuli/inanimate_003_right.png","inanimate","pair","right","","","","","","","","","","","","","",""
"","","","","","survey-likert","28","136209","0.0-28.0","SS1678233204091","601b75077aa0425330b81e36","6406d7f26dd5b7fc1e3377bd","6407ce5fc8948e240c192951","1920","937","","3140","","{""Q0"":2}","[0]","complexity","media/stimuli/animate_011_left.png","animate","pair","left","","","","","","","","","","","","","",""
"","","","","","survey-likert","29","139813","0.0-29.0","SS1678233204091","601b75077aa0425330b81e36","6406d7f26dd5b7fc1e3377bd","6407ce5fc8948e240c192951","1920","937","","3600","","{""Q0"":2}","[0]","complexity","media/stimuli/animate_004_right.png","animate","pair","right","","","","","","","","","","","","","",""
"","","","","","survey-likert","30","143207","0.0-30.0","SS1678233204091","601b75077aa0425330b81e36","6406d7f26dd5b7fc1e3377bd","6407ce5fc8948e240c192951","1920","937","","3390","","{""Q0"":2}","[0]","complexity","media/stimuli/inanimate_001_left.png","inanimate","pair","left","","","","","","","","","","","","","",""
"","","","","","survey-likert","31","146243","0.0-31.0","SS1678233204091","601b75077aa0425330b81e36","6406d7f26dd5b7fc1e3377bd","6407ce5fc8948e240c192951","1920","937","","3033","","{""Q0"":2}","[0]","complexity","media/stimuli/animate_001_left.png","animate","pair","left","","","","","","","","","","","","","",""
"","","","","","survey-likert","32","148737","0.0-32.0","SS1678233204091","601b75077aa0425330b81e36","6406d7f26dd5b7fc1e3377bd","6407ce5fc8948e240c192951","1920","937","","2490","","{""Q0"":2}","[0]","complexity","media/stimuli/inanimate_007_right.png","inanimate","pair","right","","","","","","","","","","","","","",""
"","","","","","html-keyboard-response","33","152592","0.0-33.0","SS1678233204091","601b75077aa0425330b81e36","6406d7f26dd5b7fc1e3377bd","6407ce5fc8948e240c192951","1920","937","","3852","","enter","","","","","","","","","","","","","","","","","","","",""
"","","","","","survey-likert","34","159493","0.0-34.0","SS1678233204091","601b75077aa0425330b81e36","6406d7f26dd5b7fc1e3377bd","6407ce5fc8948e240c192951","1920","937","","6899","","{""Q0"":2}","[0]","complexity","media/stimuli/animate_006_right.png","animate","single","right","","","","","","","","","","","","","",""
"","","","","","survey-likert","35","162817","0.0-35.0","SS1678233204091","601b75077aa0425330b81e36","6406d7f26dd5b7fc1e3377bd","6407ce5fc8948e240c192951","1920","937","","3321","","{""Q0"":2}","[0]","complexity","media/stimuli/inanimate_005_right.png","inanimate","single","right","","","","","","","","","","","","","",""
"","","","","","survey-likert","36","165775","0.0-36.0","SS1678233204091","601b75077aa0425330b81e36","6406d7f26dd5b7fc1e3377bd","6407ce5fc8948e240c192951","1920","937","","2954","","{""Q0"":2}","[0]","complexity","media/stimuli/inanimate_002_right.png","inanimate","single","right","","","","","","","","","","","","","",""
"","","","","","survey-likert","37","168611","0.0-37.0","SS1678233204091","601b75077aa0425330b81e36","6406d7f26dd5b7fc1e3377bd","6407ce5fc8948e240c192951","1920","937","","2833","","{""Q0"":2}","[0]","complexity","media/stimuli/animate_006_right.png","animate","pair","right","","","","","","","","","","","","","",""
"","","","","","survey-likert","38","171429","0.0-38.0","SS1678233204091","601b75077aa0425330b81e36","6406d7f26dd5b7fc1e3377bd","6407ce5fc8948e240c192951","1920","937","","2814","","{""Q0"":2}","[0]","complexity","media/stimuli/animate_006_left.png","animate","pair","left","","","","","","","","","","","","","",""
"","","","","","survey-likert","39","174597","0.0-39.0","SS1678233204091","601b75077aa0425330b81e36","6406d7f26dd5b7fc1e3377bd","6407ce5fc8948e240c192951","1920","937","","3165","","{""Q0"":2}","[0]","complexity","media/stimuli/animate_001_left.png","animate","single","left","","","","","","","","","","","","","",""
"","","","","","survey-likert","40","178511","0.0-40.0","SS1678233204091","601b75077aa0425330b81e36","6406d7f26dd5b7fc1e3377bd","6407ce5fc8948e240c192951","1920","937","","3910","","{""Q0"":2}","[0]","complexity","media/stimuli/inanimate_005_right.png","inanimate","pair","right","","","","","","","","","","","","","",""
"","","","","","survey-likert","41","181153","0.0-41.0","SS1678233204091","601b75077aa0425330b81e36","6406d7f26dd5b7fc1e3377bd","6407ce5fc8948e240c192951","1920","937","","2639","","{""Q0"":2}","[0]","complexity","media/stimuli/inanimate_008_left.png","inanimate","pair","left","","","","","","","","","","","","","",""
"","","","","","survey-likert","42","183620","0.0-42.0","SS1678233204091","601b75077aa0425330b81e36","6406d7f26dd5b7fc1e3377bd","6407ce5fc8948e240c192951","1920","937","","2463","","{""Q0"":2}","[0]","complexity","media/stimuli/animate_009_left.png","animate","single","left","","","","","","","","","","","","","",""
"","","","","","survey-likert","43","186069","0.0-43.0","SS1678233204091","601b75077aa0425330b81e36","6406d7f26dd5b7fc1e3377bd","6407ce5fc8948e240c192951","1920","937","","2446","","{""Q0"":2}","[0]","complexity","media/stimuli/animate_004_right.png","animate","single","right","","","","","","","","","","","","","",""
"","","","","","survey-likert","44","188708","0.0-44.0","SS1678233204091","601b75077aa0425330b81e36","6406d7f26dd5b7fc1e3377bd","6407ce5fc8948e240c192951","1920","937","","2635","","{""Q0"":2}","[0]","complexity","media/stimuli/inanimate_008_right.png","inanimate","single","right","","","","","","","","","","","","","",""
"","","","","","survey-likert","45","192343","0.0-45.0","SS1678233204091","601b75077aa0425330b81e36","6406d7f26dd5b7fc1e3377bd","6407ce5fc8948e240c192951","1920","937","","3631","","{""Q0"":2}","[0]","complexity","media/stimuli/animate_011_right.png","animate","single","right","","","","","","","","","","","","","",""
"","","","","","html-keyboard-response","46","195272","0.0-46.0","SS1678233204091","601b75077aa0425330b81e36","6406d7f26dd5b7fc1e3377bd","6407ce5fc8948e240c192951","1920","937","","2926","","enter","","","","","","","","","","","","","","","","","","","",""
"","","","","","html-keyboard-response","47","216096","0.0-47.0","SS1678233204091","601b75077aa0425330b81e36","6406d7f26dd5b7fc1e3377bd","6407ce5fc8948e240c192951","1920","937","","20822","","j","","","","","","","<img src=""media/stimuli/animate_003_right.png"" class=""coveredImage test"" style = ""width:100px; height:100px; position:fixed; top:10%;    transform: translate(-50%, -50%);left:44.5%""></img><img src=""media/stimuli/animate_003_right.png"" class=""coveredImage test"" style = ""width:100px; height:100px; position:fixed; top:10%;    transform: translate(-50%, -50%);left:51.5%""></img><img src=""media/stimuli/animate_003_left.png"" class=""coveredImage test"" style = ""width:100px; height:100px;position:fixed; top:25%;        transform: translate(-50%, -50%);left:34.5%""></img><img src=""media/stimuli/animate_003_left.png"" class=""coveredImage test"" style = ""width:100px; height:100px;position:fixed; top:25%;        transform: translate(-50%, -50%);left:41.5%""></img><img src=""media/stimuli/animate_003_right.png"" class=""coveredImage test"" style = ""width:100px; height:100px;position:fixed; top:25%;        transform: translate(-50%, -50%);left:58%""></img><img src=""media/f.png""style = ""width:30px x; height:30px;position:fixed; top:43%;    transform: translate(-50%, -50%);left:40%""></img><img src=""media/j.png""style = ""width:30px; height:30px;position:fixed; top:43%;    transform: translate(-50%, -50%);left:60%""></img>","media/stimuli/animate_003_right.png","animate","right","pair","media/stimuli/animate_003_left.png","animate","left","pair","media/stimuli/animate_003_right.png","animate","right","single","pose_number"
"","","","","","html-keyboard-response","48","221928","0.0-48.0","SS1678233204091","601b75077aa0425330b81e36","6406d7f26dd5b7fc1e3377bd","6407ce5fc8948e240c192951","1920","937","","5829","","f","","","","","","","<img src=""media/stimuli/inanimate_007_right.png"" class=""coveredImage test"" style = ""width:100px; height:100px; position:fixed; top:10%;    transform: translate(-50%, -50%);left:44.5%""></img><img src=""media/stimuli/inanimate_007_right.png"" class=""coveredImage test"" style = ""width:100px; height:100px; position:fixed; top:10%;    transform: translate(-50%, -50%);left:51.5%""></img><img src=""media/stimuli/inanimate_007_right.png"" class=""coveredImage test"" style = ""width:100px; height:100px;position:fixed; top:25%;        transform: translate(-50%, -50%);left:38%""></img><img src=""media/stimuli/inanimate_004_right.png"" class=""coveredImage test"" style = ""width:100px; height:100px;position:fixed; top:25%;        transform: translate(-50%, -50%);left:54.5%""></img><img src=""media/stimuli/inanimate_004_right.png"" class=""coveredImage test"" style = ""width:100px; height:100px;position:fixed; top:25%;        transform: translate(-50%, -50%);left:61.5%""></img><img src=""media/f.png""style = ""width:30px x; height:30px;position:fixed; top:43%;    transform: translate(-50%, -50%);left:40%""></img><img src=""media/j.png""style = ""width:30px; height:30px;position:fixed; top:43%;    transform: translate(-50%, -50%);left:60%""></img>","media/stimuli/inanimate_007_right.png","inanimate","right","pair","media/stimuli/inanimate_007_right.png","inanimate","right","single","media/stimuli/inanimate_004_right.png","inanimate","right","pair","number_identity"
"","","","","","html-keyboard-response","49","230682","0.0-49.0","SS1678233204091","601b75077aa0425330b81e36","6406d7f26dd5b7fc1e3377bd","6407ce5fc8948e240c192951","1920","937","","8751","","j","","","","","","","<img src=""media/stimuli/animate_005_right.png"" class=""coveredImage test"" style = ""width:100px; height:100px; position:fixed; top:10%;    transform: translate(-50%, -50%);left:48%""></img><img src=""media/stimuli/animate_005_left.png"" class=""coveredImage test"" style = ""width:100px; height:100px;position:fixed; top:25%;        transform: translate(-50%, -50%);left:38%""></img><img src=""media/stimuli/animate_001_right.png"" class=""coveredImage test"" style = ""width:100px; height:100px;position:fixed; top:25%;        transform: translate(-50%, -50%);left:58%""></img><img src=""media/f.png""style = ""width:30px x; height:30px;position:fixed; top:43%;    transform: translate(-50%, -50%);left:40%""></img><img src=""media/j.png""style = ""width:30px; height:30px;position:fixed; top:43%;    transform: translate(-50%, -50%);left:60%""></img>","media/stimuli/animate_005_right.png","animate","right","single","media/stimuli/animate_005_left.png","animate","left","single","media/stimuli/animate_001_right.png","animate","right","single","pose_identity"
"","","","","","html-keyboard-response","50","234864","0.0-50.0","SS1678233204091","601b75077aa0425330b81e36","6406d7f26dd5b7fc1e3377bd","6407ce5fc8948e240c192951","1920","937","","4179","","j","","","","","","","<img src=""media/stimuli/inanimate_002_left.png"" class=""coveredImage test"" style = ""width:100px; height:100px; position:fixed; top:10%;    transform: translate(-50%, -50%);left:48%""></img><img src=""media/stimuli/inanimate_002_right.png"" class=""coveredImage test"" style = ""width:100px; height:100px;position:fixed; top:25%;        transform: translate(-50%, -50%);left:38%""></img><img src=""media/stimuli/inanimate_002_left.png"" class=""coveredImage test"" style = ""width:100px; height:100px;position:fixed; top:25%;        transform: translate(-50%, -50%);left:54.5%""></img><img src=""media/stimuli/inanimate_002_left.png"" class=""coveredImage test"" style = ""width:100px; height:100px;position:fixed; top:25%;        transform: translate(-50%, -50%);left:61.5%""></img><img src=""media/f.png""style = ""width:30px x; height:30px;position:fixed; top:43%;    transform: translate(-50%, -50%);left:40%""></img><img src=""media/j.png""style = ""width:30px; height:30px;position:fixed; top:43%;    transform: translate(-50%, -50%);left:60%""></img>","media/stimuli/inanimate_002_left.png","inanimate","left","single","media/stimuli/inanimate_002_right.png","inanimate","right","single","media/stimuli/inanimate_002_left.png","inanimate","left","pair","pose_number"
"","","","","","html-keyboard-response","51","237224","0.0-51.0","SS1678233204091","601b75077aa0425330b81e36","6406d7f26dd5b7fc1e3377bd","6407ce5fc8948e240c192951","1920","937","","2357","","f","","","","","","","<img src=""media/stimuli/animate_011_right.png"" class=""coveredImage test"" style = ""width:100px; height:100px; position:fixed; top:10%;    transform: translate(-50%, -50%);left:48%""></img><img src=""media/stimuli/animate_011_right.png"" class=""coveredImage test"" style = ""width:100px; height:100px;position:fixed; top:25%;        transform: translate(-50%, -50%);left:34.5%""></img><img src=""media/stimuli/animate_011_right.png"" class=""coveredImage test"" style = ""width:100px; height:100px;position:fixed; top:25%;        transform: translate(-50%, -50%);left:41.5%""></img><img src=""media/stimuli/animate_004_right.png"" class=""coveredImage test"" style = ""width:100px; height:100px;position:fixed; top:25%;        transform: translate(-50%, -50%);left:58%""></img><img src=""media/f.png""style = ""width:30px x; height:30px;position:fixed; top:43%;    transform: translate(-50%, -50%);left:40%""></img><img src=""media/j.png""style = ""width:30px; height:30px;position:fixed; top:43%;    transform: translate(-50%, -50%);left:60%""></img>","media/stimuli/animate_011_right.png","animate","right","single","media/stimuli/animate_011_right.png","animate","right","pair","media/stimuli/animate_004_right.png","animate","right","single","number_identity"
"","","","","","html-keyboard-response","52","240144","0.0-52.0","SS1678233204091","601b75077aa0425330b81e36","6406d7f26dd5b7fc1e3377bd","6407ce5fc8948e240c192951","1920","937","","2917","","f","","","","","","","<img src=""media/stimuli/animate_006_right.png"" class=""coveredImage test"" style = ""width:100px; height:100px; position:fixed; top:10%;    transform: translate(-50%, -50%);left:44.5%""></img><img src=""media/stimuli/animate_006_right.png"" class=""coveredImage test"" style = ""width:100px; height:100px; position:fixed; top:10%;    transform: translate(-50%, -50%);left:51.5%""></img><img src=""media/stimuli/animate_006_right.png"" class=""coveredImage test"" style = ""width:100px; height:100px;position:fixed; top:25%;        transform: translate(-50%, -50%);left:38%""></img><img src=""media/stimuli/animate_010_right.png"" class=""coveredImage test"" style = ""width:100px; height:100px;position:fixed; top:25%;        transform: translate(-50%, -50%);left:54.5%""></img><img src=""media/stimuli/animate_010_right.png"" class=""coveredImage test"" style = ""width:100px; height:100px;position:fixed; top:25%;        transform: translate(-50%, -50%);left:61.5%""></img><img src=""media/f.png""style = ""width:30px x; height:30px;position:fixed; top:43%;    transform: translate(-50%, -50%);left:40%""></img><img src=""media/j.png""style = ""width:30px; height:30px;position:fixed; top:43%;    transform: translate(-50%, -50%);left:60%""></img>","media/stimuli/animate_006_right.png","animate","right","pair","media/stimuli/animate_006_right.png","animate","right","single","media/stimuli/animate_010_right.png","animate","right","pair","number_identity"
"","","","","","html-keyboard-response","53","242355","0.0-53.0","SS1678233204091","601b75077aa0425330b81e36","6406d7f26dd5b7fc1e3377bd","6407ce5fc8948e240c192951","1920","937","","2208","","j","","","","","","","<img src=""media/stimuli/inanimate_005_right.png"" class=""coveredImage test"" style = ""width:100px; height:100px; position:fixed; top:10%;    transform: translate(-50%, -50%);left:44.5%""></img><img src=""media/stimuli/inanimate_005_right.png"" class=""coveredImage test"" style = ""width:100px; height:100px; position:fixed; top:10%;    transform: translate(-50%, -50%);left:51.5%""></img><img src=""media/stimuli/animate_003_right.png"" class=""coveredImage test"" style = ""width:100px; height:100px;position:fixed; top:25%;        transform: translate(-50%, -50%);left:34.5%""></img><img src=""media/stimuli/animate_003_right.png"" class=""coveredImage test"" style = ""width:100px; height:100px;position:fixed; top:25%;        transform: translate(-50%, -50%);left:41.5%""></img><img src=""media/stimuli/inanimate_005_right.png"" class=""coveredImage test"" style = ""width:100px; height:100px;position:fixed; top:25%;        transform: translate(-50%, -50%);left:58%""></img><img src=""media/f.png""style = ""width:30px x; height:30px;position:fixed; top:43%;    transform: translate(-50%, -50%);left:40%""></img><img src=""media/j.png""style = ""width:30px; height:30px;position:fixed; top:43%;    transform: translate(-50%, -50%);left:60%""></img>","media/stimuli/inanimate_005_right.png","inanimate","right","pair","media/stimuli/animate_003_right.png","animate","right","pair","media/stimuli/inanimate_005_right.png","inanimate","right","single","animacy_number"
"","","","","","html-keyboard-response","54","244088","0.0-54.0","SS1678233204091","601b75077aa0425330b81e36","6406d7f26dd5b7fc1e3377bd","6407ce5fc8948e240c192951","1920","937","","1730","","f","","","","","","","<img src=""media/stimuli/animate_006_right.png"" class=""coveredImage test"" style = ""width:100px; height:100px; position:fixed; top:10%;    transform: translate(-50%, -50%);left:44.5%""></img><img src=""media/stimuli/animate_006_right.png"" class=""coveredImage test"" style = ""width:100px; height:100px; position:fixed; top:10%;    transform: translate(-50%, -50%);left:51.5%""></img><img src=""media/stimuli/animate_006_right.png"" class=""coveredImage test"" style = ""width:100px; height:100px;position:fixed; top:25%;        transform: translate(-50%, -50%);left:38%""></img><img src=""media/stimuli/animate_007_right.png"" class=""coveredImage test"" style = ""width:100px; height:100px;position:fixed; top:25%;        transform: translate(-50%, -50%);left:54.5%""></img><img src=""media/stimuli/animate_007_right.png"" class=""coveredImage test"" style = ""width:100px; height:100px;position:fixed; top:25%;        transform: translate(-50%, -50%);left:61.5%""></img><img src=""media/f.png""style = ""width:30px x; height:30px;position:fixed; top:43%;    transform: translate(-50%, -50%);left:40%""></img><img src=""media/j.png""style = ""width:30px; height:30px;position:fixed; top:43%;    transform: translate(-50%, -50%);left:60%""></img>","media/stimuli/animate_006_right.png","animate","right","pair","media/stimuli/animate_006_right.png","animate","right","single","media/stimuli/animate_007_right.png","animate","right","pair","number_identity"
"","","","","","html-keyboard-response","55","245360","0.0-55.0","SS1678233204091","601b75077aa0425330b81e36","6406d7f26dd5b7fc1e3377bd","6407ce5fc8948e240c192951","1920","937","","1269","","f","","","","","","","<img src=""media/stimuli/animate_004_right.png"" class=""coveredImage test"" style = ""width:100px; height:100px; position:fixed; top:10%;    transform: translate(-50%, -50%);left:48%""></img><img src=""media/stimuli/animate_004_left.png"" class=""coveredImage test"" style = ""width:100px; height:100px;position:fixed; top:25%;        transform: translate(-50%, -50%);left:38%""></img><img src=""media/stimuli/animate_002_right.png"" class=""coveredImage test"" style = ""width:100px; height:100px;position:fixed; top:25%;        transform: translate(-50%, -50%);left:58%""></img><img src=""media/f.png""style = ""width:30px x; height:30px;position:fixed; top:43%;    transform: translate(-50%, -50%);left:40%""></img><img src=""media/j.png""style = ""width:30px; height:30px;position:fixed; top:43%;    transform: translate(-50%, -50%);left:60%""></img>","media/stimuli/animate_004_right.png","animate","right","single","media/stimuli/animate_004_left.png","animate","left","single","media/stimuli/animate_002_right.png","animate","right","single","pose_identity"
"","","","","","html-keyboard-response","56","246520","0.0-56.0","SS1678233204091","601b75077aa0425330b81e36","6406d7f26dd5b7fc1e3377bd","6407ce5fc8948e240c192951","1920","937","","1157","","f","","","","","","","<img src=""media/stimuli/animate_001_right.png"" class=""coveredImage test"" style = ""width:100px; height:100px; position:fixed; top:10%;    transform: translate(-50%, -50%);left:48%""></img><img src=""media/stimuli/animate_001_right.png"" class=""coveredImage test"" style = ""width:100px; height:100px;position:fixed; top:25%;        transform: translate(-50%, -50%);left:34.5%""></img><img src=""media/stimuli/animate_001_right.png"" class=""coveredImage test"" style = ""width:100px; height:100px;position:fixed; top:25%;        transform: translate(-50%, -50%);left:41.5%""></img><img src=""media/stimuli/inanimate_011_left.png"" class=""coveredImage test"" style = ""width:100px; height:100px;position:fixed; top:25%;        transform: translate(-50%, -50%);left:54.5%""></img><img src=""media/stimuli/inanimate_011_left.png"" class=""coveredImage test"" style = ""width:100px; height:100px;position:fixed; top:25%;        transform: translate(-50%, -50%);left:61.5%""></img><img src=""media/f.png""style = ""width:30px x; height:30px;position:fixed; top:43%;    transform: translate(-50%, -50%);left:40%""></img><img src=""media/j.png""style = ""width:30px; height:30px;position:fixed; top:43%;    transform: translate(-50%, -50%);left:60%""></img>","media/stimuli/animate_001_right.png","animate","right","single","media/stimuli/animate_001_right.png","animate","right","pair","media/stimuli/inanimate_011_left.png","inanimate","left","pair","pose_animacy"
"","","","","","html-keyboard-response","57","251744","0.0-57.0","SS1678233204091","601b75077aa0425330b81e36","6406d7f26dd5b7fc1e3377bd","6407ce5fc8948e240c192951","1920","937","","5221","","j","","","","","","","<img src=""media/stimuli/animate_005_left.png"" class=""coveredImage test"" style = ""width:100px; height:100px; position:fixed; top:10%;    transform: translate(-50%, -50%);left:48%""></img><img src=""media/stimuli/animate_005_right.png"" class=""coveredImage test"" style = ""width:100px; height:100px;position:fixed; top:25%;        transform: translate(-50%, -50%);left:38%""></img><img src=""media/stimuli/inanimate_005_left.png"" class=""coveredImage test"" style = ""width:100px; height:100px;position:fixed; top:25%;        transform: translate(-50%, -50%);left:58%""></img><img src=""media/f.png""style = ""width:30px x; height:30px;position:fixed; top:43%;    transform: translate(-50%, -50%);left:40%""></img><img src=""media/j.png""style = ""width:30px; height:30px;position:fixed; top:43%;    transform: translate(-50%, -50%);left:60%""></img>","media/stimuli/animate_005_left.png","animate","left","single","media/stimuli/animate_005_right.png","animate","right","single","media/stimuli/inanimate_005_left.png","inanimate","left","single","pose_animacy"
"","","","","","html-keyboard-response","58","255722","0.0-58.0","SS1678233204091","601b75077aa0425330b81e36","6406d7f26dd5b7fc1e3377bd","6407ce5fc8948e240c192951","1920","937","","3975","","f","","","","","","","<img src=""media/stimuli/inanimate_008_left.png"" class=""coveredImage test"" style = ""width:100px; height:100px; position:fixed; top:10%;    transform: translate(-50%, -50%);left:44.5%""></img><img src=""media/stimuli/inanimate_008_left.png"" class=""coveredImage test"" style = ""width:100px; height:100px; position:fixed; top:10%;    transform: translate(-50%, -50%);left:51.5%""></img><img src=""media/stimuli/inanimate_008_left.png"" class=""coveredImage test"" style = ""width:100px; height:100px;position:fixed; top:25%;        transform: translate(-50%, -50%);left:38%""></img><img src=""media/stimuli/inanimate_008_right.png"" class=""coveredImage test"" style = ""width:100px; height:100px;position:fixed; top:25%;        transform: translate(-50%, -50%);left:54.5%""></img><img src=""media/stimuli/inanimate_008_right.png"" class=""coveredImage test"" style = ""width:100px; height:100px;position:fixed; top:25%;        transform: translate(-50%, -50%);left:61.5%""></img><img src=""media/f.png""style = ""width:30px x; height:30px;position:fixed; top:43%;    transform: translate(-50%, -50%);left:40%""></img><img src=""media/j.png""style = ""width:30px; height:30px;position:fixed; top:43%;    transform: translate(-50%, -50%);left:60%""></img>","media/stimuli/inanimate_008_left.png","inanimate","left","pair","media/stimuli/inanimate_008_left.png","inanimate","left","single","media/stimuli/inanimate_008_right.png","inanimate","right","pair","number_pose"
"","","","","","html-keyboard-response","59","257904","0.0-59.0","SS1678233204091","601b75077aa0425330b81e36","6406d7f26dd5b7fc1e3377bd","6407ce5fc8948e240c192951","1920","937","","2179","","f","","","","","","","","","","","","","","","","","","","",""
"","","","","","html-keyboard-response","60","262320","0.0-60.0","SS1678233204091","601b75077aa0425330b81e36","6406d7f26dd5b7fc1e3377bd","6407ce5fc8948e240c192951","1920","937","","4413","","j","","","","","","","<img src=""media/stimuli/inanimate_009_right.png"" class=""coveredImage test"" style = ""width:100px; height:100px; position:fixed; top:10%;    transform: translate(-50%, -50%);left:44.5%""></img><img src=""media/stimuli/inanimate_009_right.png"" class=""coveredImage test"" style = ""width:100px; height:100px; position:fixed; top:10%;    transform: translate(-50%, -50%);left:51.5%""></img><img src=""media/stimuli/inanimate_009_left.png"" class=""coveredImage test"" style = ""width:100px; height:100px;position:fixed; top:25%;        transform: translate(-50%, -50%);left:34.5%""></img><img src=""media/stimuli/inanimate_009_left.png"" class=""coveredImage test"" style = ""width:100px; height:100px;position:fixed; top:25%;        transform: translate(-50%, -50%);left:41.5%""></img><img src=""media/stimuli/inanimate_009_right.png"" class=""coveredImage test"" style = ""width:100px; height:100px;position:fixed; top:25%;        transform: translate(-50%, -50%);left:58%""></img><img src=""media/f.png""style = ""width:30px x; height:30px;position:fixed; top:43%;    transform: translate(-50%, -50%);left:40%""></img><img src=""media/j.png""style = ""width:30px; height:30px;position:fixed; top:43%;    transform: translate(-50%, -50%);left:60%""></img>","media/stimuli/inanimate_009_right.png","inanimate","right","pair","media/stimuli/inanimate_009_left.png","inanimate","left","pair","media/stimuli/inanimate_009_right.png","inanimate","right","single","pose_number"
"","","","","","html-keyboard-response","61","264160","0.0-61.0","SS1678233204091","601b75077aa0425330b81e36","6406d7f26dd5b7fc1e3377bd","6407ce5fc8948e240c192951","1920","937","","1837","","f","","","","","","","<img src=""media/stimuli/animate_006_right.png"" class=""coveredImage test"" style = ""width:100px; height:100px; position:fixed; top:10%;    transform: translate(-50%, -50%);left:48%""></img><img src=""media/stimuli/animate_006_left.png"" class=""coveredImage test"" style = ""width:100px; height:100px;position:fixed; top:25%;        transform: translate(-50%, -50%);left:38%""></img><img src=""media/stimuli/inanimate_009_right.png"" class=""coveredImage test"" style = ""width:100px; height:100px;position:fixed; top:25%;        transform: translate(-50%, -50%);left:58%""></img><img src=""media/f.png""style = ""width:30px x; height:30px;position:fixed; top:43%;    transform: translate(-50%, -50%);left:40%""></img><img src=""media/j.png""style = ""width:30px; height:30px;position:fixed; top:43%;    transform: translate(-50%, -50%);left:60%""></img>","media/stimuli/animate_006_right.png","animate","right","single","media/stimuli/animate_006_left.png","animate","left","single","media/stimuli/inanimate_009_right.png","inanimate","right","single","pose_animacy"
"","","","","","html-keyboard-response","62","265280","0.0-62.0","SS1678233204091","601b75077aa0425330b81e36","6406d7f26dd5b7fc1e3377bd","6407ce5fc8948e240c192951","1920","937","","1117","","f","","","","","","","<img src=""media/stimuli/inanimate_001_left.png"" class=""coveredImage test"" style = ""width:100px; height:100px; position:fixed; top:10%;    transform: translate(-50%, -50%);left:44.5%""></img><img src=""media/stimuli/inanimate_001_left.png"" class=""coveredImage test"" style = ""width:100px; height:100px; position:fixed; top:10%;    transform: translate(-50%, -50%);left:51.5%""></img><img src=""media/stimuli/inanimate_001_left.png"" class=""coveredImage test"" style = ""width:100px; height:100px;position:fixed; top:25%;        transform: translate(-50%, -50%);left:38%""></img><img src=""media/stimuli/inanimate_006_left.png"" class=""coveredImage test"" style = ""width:100px; height:100px;position:fixed; top:25%;        transform: translate(-50%, -50%);left:54.5%""></img><img src=""media/stimuli/inanimate_006_left.png"" class=""coveredImage test"" style = ""width:100px; height:100px;position:fixed; top:25%;        transform: translate(-50%, -50%);left:61.5%""></img><img src=""media/f.png""style = ""width:30px x; height:30px;position:fixed; top:43%;    transform: translate(-50%, -50%);left:40%""></img><img src=""media/j.png""style = ""width:30px; height:30px;position:fixed; top:43%;    transform: translate(-50%, -50%);left:60%""></img>","media/stimuli/inanimate_001_left.png","inanimate","left","pair","media/stimuli/inanimate_001_left.png","inanimate","left","single","media/stimuli/inanimate_006_left.png","inanimate","left","pair","number_identity"
"","","","","","html-keyboard-response","63","267450","0.0-63.0","SS1678233204091","601b75077aa0425330b81e36","6406d7f26dd5b7fc1e3377bd","6407ce5fc8948e240c192951","1920","937","","2167","","f","","","","","","","<img src=""media/stimuli/animate_008_left.png"" class=""coveredImage test"" style = ""width:100px; height:100px; position:fixed; top:10%;    transform: translate(-50%, -50%);left:44.5%""></img><img src=""media/stimuli/animate_008_left.png"" class=""coveredImage test"" style = ""width:100px; height:100px; position:fixed; top:10%;    transform: translate(-50%, -50%);left:51.5%""></img><img src=""media/stimuli/animate_006_left.png"" class=""coveredImage test"" style = ""width:100px; height:100px;position:fixed; top:25%;        transform: translate(-50%, -50%);left:34.5%""></img><img src=""media/stimuli/animate_006_left.png"" class=""coveredImage test"" style = ""width:100px; height:100px;position:fixed; top:25%;        transform: translate(-50%, -50%);left:41.5%""></img><img src=""media/stimuli/inanimate_011_left.png"" class=""coveredImage test"" style = ""width:100px; height:100px;position:fixed; top:25%;        transform: translate(-50%, -50%);left:54.5%""></img><img src=""media/stimuli/inanimate_011_left.png"" class=""coveredImage test"" style = ""width:100px; height:100px;position:fixed; top:25%;        transform: translate(-50%, -50%);left:61.5%""></img><img src=""media/f.png""style = ""width:30px x; height:30px;position:fixed; top:43%;    transform: translate(-50%, -50%);left:40%""></img><img src=""media/j.png""style = ""width:30px; height:30px;position:fixed; top:43%;    transform: translate(-50%, -50%);left:60%""></img>","media/stimuli/animate_008_left.png","animate","left","pair","media/stimuli/animate_006_left.png","animate","left","pair","media/stimuli/inanimate_011_left.png","inanimate","left","pair","identity_animacy"
"","","","","","html-keyboard-response","64","268328","0.0-64.0","SS1678233204091","601b75077aa0425330b81e36","6406d7f26dd5b7fc1e3377bd","6407ce5fc8948e240c192951","1920","937","","875","","f","","","","","","","<img src=""media/stimuli/animate_008_left.png"" class=""coveredImage test"" style = ""width:100px; height:100px; position:fixed; top:10%;    transform: translate(-50%, -50%);left:48%""></img><img src=""media/stimuli/animate_008_right.png"" class=""coveredImage test"" style = ""width:100px; height:100px;position:fixed; top:25%;        transform: translate(-50%, -50%);left:34.5%""></img><img src=""media/stimuli/animate_008_right.png"" class=""coveredImage test"" style = ""width:100px; height:100px;position:fixed; top:25%;        transform: translate(-50%, -50%);left:41.5%""></img><img src=""media/stimuli/inanimate_009_left.png"" class=""coveredImage test"" style = ""width:100px; height:100px;position:fixed; top:25%;        transform: translate(-50%, -50%);left:54.5%""></img><img src=""media/stimuli/inanimate_009_left.png"" class=""coveredImage test"" style = ""width:100px; height:100px;position:fixed; top:25%;        transform: translate(-50%, -50%);left:61.5%""></img><img src=""media/f.png""style = ""width:30px x; height:30px;position:fixed; top:43%;    transform: translate(-50%, -50%);left:40%""></img><img src=""media/j.png""style = ""width:30px; height:30px;position:fixed; top:43%;    transform: translate(-50%, -50%);left:60%""></img>","media/stimuli/animate_008_left.png","animate","left","single","media/stimuli/animate_008_right.png","animate","right","pair","media/stimuli/inanimate_009_left.png","inanimate","left","pair","pose_animacy"
"","","","","","html-keyboard-response","65","271424","0.0-65.0","SS1678233204091","601b75077aa0425330b81e36","6406d7f26dd5b7fc1e3377bd","6407ce5fc8948e240c192951","1920","937","","3093","","j","","","","","","","<img src=""media/stimuli/animate_008_left.png"" class=""coveredImage test"" style = ""width:100px; height:100px; position:fixed; top:10%;    transform: translate(-50%, -50%);left:44.5%""></img><img src=""media/stimuli/animate_008_left.png"" class=""coveredImage test"" style = ""width:100px; height:100px; position:fixed; top:10%;    transform: translate(-50%, -50%);left:51.5%""></img><img src=""media/stimuli/inanimate_005_left.png"" class=""coveredImage test"" style = ""width:100px; height:100px;position:fixed; top:25%;        transform: translate(-50%, -50%);left:34.5%""></img><img src=""media/stimuli/inanimate_005_left.png"" class=""coveredImage test"" style = ""width:100px; height:100px;position:fixed; top:25%;        transform: translate(-50%, -50%);left:41.5%""></img><img src=""media/stimuli/animate_009_left.png"" class=""coveredImage test"" style = ""width:100px; height:100px;position:fixed; top:25%;        transform: translate(-50%, -50%);left:54.5%""></img><img src=""media/stimuli/animate_009_left.png"" class=""coveredImage test"" style = ""width:100px; height:100px;position:fixed; top:25%;        transform: translate(-50%, -50%);left:61.5%""></img><img src=""media/f.png""style = ""width:30px x; height:30px;position:fixed; top:43%;    transform: translate(-50%, -50%);left:40%""></img><img src=""media/j.png""style = ""width:30px; height:30px;position:fixed; top:43%;    transform: translate(-50%, -50%);left:60%""></img>","media/stimuli/animate_008_left.png","animate","left","pair","media/stimuli/inanimate_005_left.png","inanimate","left","pair","media/stimuli/animate_009_left.png","animate","left","pair","animacy_identity"
"","","","","","html-keyboard-response","66","273496","0.0-66.0","SS1678233204091","601b75077aa0425330b81e36","6406d7f26dd5b7fc1e3377bd","6407ce5fc8948e240c192951","1920","937","","2069","","j","","","","","","","<img src=""media/stimuli/inanimate_004_left.png"" class=""coveredImage test"" style = ""width:100px; height:100px; position:fixed; top:10%;    transform: translate(-50%, -50%);left:48%""></img><img src=""media/stimuli/inanimate_004_right.png"" class=""coveredImage test"" style = ""width:100px; height:100px;position:fixed; top:25%;        transform: translate(-50%, -50%);left:38%""></img><img src=""media/stimuli/inanimate_004_left.png"" class=""coveredImage test"" style = ""width:100px; height:100px;position:fixed; top:25%;        transform: translate(-50%, -50%);left:54.5%""></img><img src=""media/stimuli/inanimate_004_left.png"" class=""coveredImage test"" style = ""width:100px; height:100px;position:fixed; top:25%;        transform: translate(-50%, -50%);left:61.5%""></img><img src=""media/f.png""style = ""width:30px x; height:30px;position:fixed; top:43%;    transform: translate(-50%, -50%);left:40%""></img><img src=""media/j.png""style = ""width:30px; height:30px;position:fixed; top:43%;    transform: translate(-50%, -50%);left:60%""></img>","media/stimuli/inanimate_004_left.png","inanimate","left","single","media/stimuli/inanimate_004_right.png","inanimate","right","single","media/stimuli/inanimate_004_left.png","inanimate","left","pair","pose_number"
"","","","","","html-keyboard-response","67","275024","0.0-67.0","SS1678233204091","601b75077aa0425330b81e36","6406d7f26dd5b7fc1e3377bd","6407ce5fc8948e240c192951","1920","937","","1525","","f","","","","","","","<img src=""media/stimuli/animate_010_right.png"" class=""coveredImage test"" style = ""width:100px; height:100px; position:fixed; top:10%;    transform: translate(-50%, -50%);left:44.5%""></img><img src=""media/stimuli/animate_010_right.png"" class=""coveredImage test"" style = ""width:100px; height:100px; position:fixed; top:10%;    transform: translate(-50%, -50%);left:51.5%""></img><img src=""media/stimuli/animate_010_left.png"" class=""coveredImage test"" style = ""width:100px; height:100px;position:fixed; top:25%;        transform: translate(-50%, -50%);left:34.5%""></img><img src=""media/stimuli/animate_010_left.png"" class=""coveredImage test"" style = ""width:100px; height:100px;position:fixed; top:25%;        transform: translate(-50%, -50%);left:41.5%""></img><img src=""media/stimuli/animate_001_right.png"" class=""coveredImage test"" style = ""width:100px; height:100px;position:fixed; top:25%;        transform: translate(-50%, -50%);left:54.5%""></img><img src=""media/stimuli/animate_001_right.png"" class=""coveredImage test"" style = ""width:100px; height:100px;position:fixed; top:25%;        transform: translate(-50%, -50%);left:61.5%""></img><img src=""media/f.png""style = ""width:30px x; height:30px;position:fixed; top:43%;    transform: translate(-50%, -50%);left:40%""></img><img src=""media/j.png""style = ""width:30px; height:30px;position:fixed; top:43%;    transform: translate(-50%, -50%);left:60%""></img>","media/stimuli/animate_010_right.png","animate","right","pair","media/stimuli/animate_010_left.png","animate","left","pair","media/stimuli/animate_001_right.png","animate","right","pair","pose_identity"
"","","","","","html-keyboard-response","68","279955","0.0-68.0","SS1678233204091","601b75077aa0425330b81e36","6406d7f26dd5b7fc1e3377bd","6407ce5fc8948e240c192951","1920","937","","4928","","j","","","","","","","<img src=""media/stimuli/inanimate_002_left.png"" class=""coveredImage test"" style = ""width:100px; height:100px; position:fixed; top:10%;    transform: translate(-50%, -50%);left:48%""></img><img src=""media/stimuli/inanimate_004_left.png"" class=""coveredImage test"" style = ""width:100px; height:100px;position:fixed; top:25%;        transform: translate(-50%, -50%);left:38%""></img><img src=""media/stimuli/animate_012_left.png"" class=""coveredImage test"" style = ""width:100px; height:100px;position:fixed; top:25%;        transform: translate(-50%, -50%);left:58%""></img><img src=""media/f.png""style = ""width:30px x; height:30px;position:fixed; top:43%;    transform: translate(-50%, -50%);left:40%""></img><img src=""media/j.png""style = ""width:30px; height:30px;position:fixed; top:43%;    transform: translate(-50%, -50%);left:60%""></img>","media/stimuli/inanimate_002_left.png","inanimate","left","single","media/stimuli/inanimate_004_left.png","inanimate","left","single","media/stimuli/animate_012_left.png","animate","left","single","identity_animacy"
"","","","","","html-keyboard-response","69","282312","0.0-69.0","SS1678233204091","601b75077aa0425330b81e36","6406d7f26dd5b7fc1e3377bd","6407ce5fc8948e240c192951","1920","937","","2354","","j","","","","","","","<img src=""media/stimuli/inanimate_001_left.png"" class=""coveredImage test"" style = ""width:100px; height:100px; position:fixed; top:10%;    transform: translate(-50%, -50%);left:44.5%""></img><img src=""media/stimuli/inanimate_001_left.png"" class=""coveredImage test"" style = ""width:100px; height:100px; position:fixed; top:10%;    transform: translate(-50%, -50%);left:51.5%""></img><img src=""media/stimuli/inanimate_003_left.png"" class=""coveredImage test"" style = ""width:100px; height:100px;position:fixed; top:25%;        transform: translate(-50%, -50%);left:34.5%""></img><img src=""media/stimuli/inanimate_003_left.png"" class=""coveredImage test"" style = ""width:100px; height:100px;position:fixed; top:25%;        transform: translate(-50%, -50%);left:41.5%""></img><img src=""media/stimuli/inanimate_001_left.png"" class=""coveredImage test"" style = ""width:100px; height:100px;position:fixed; top:25%;        transform: translate(-50%, -50%);left:58%""></img><img src=""media/f.png""style = ""width:30px x; height:30px;position:fixed; top:43%;    transform: translate(-50%, -50%);left:40%""></img><img src=""media/j.png""style = ""width:30px; height:30px;position:fixed; top:43%;    transform: translate(-50%, -50%);left:60%""></img>","media/stimuli/inanimate_001_left.png","inanimate","left","pair","media/stimuli/inanimate_003_left.png","inanimate","left","pair","media/stimuli/inanimate_001_left.png","inanimate","left","single","identity_number"
"","","","","","html-keyboard-response","70","284760","0.0-70.0","SS1678233204091","601b75077aa0425330b81e36","6406d7f26dd5b7fc1e3377bd","6407ce5fc8948e240c192951","1920","937","","2445","","f","","","","","","","<img src=""media/stimuli/animate_006_left.png"" class=""coveredImage test"" style = ""width:100px; height:100px; position:fixed; top:10%;    transform: translate(-50%, -50%);left:44.5%""></img><img src=""media/stimuli/animate_006_left.png"" class=""coveredImage test"" style = ""width:100px; height:100px; position:fixed; top:10%;    transform: translate(-50%, -50%);left:51.5%""></img><img src=""media/stimuli/animate_006_left.png"" class=""coveredImage test"" style = ""width:100px; height:100px;position:fixed; top:25%;        transform: translate(-50%, -50%);left:38%""></img><img src=""media/stimuli/inanimate_006_left.png"" class=""coveredImage test"" style = ""width:100px; height:100px;position:fixed; top:25%;        transform: translate(-50%, -50%);left:54.5%""></img><img src=""media/stimuli/inanimate_006_left.png"" class=""coveredImage test"" style = ""width:100px; height:100px;position:fixed; top:25%;        transform: translate(-50%, -50%);left:61.5%""></img><img src=""media/f.png""style = ""width:30px x; height:30px;position:fixed; top:43%;    transform: translate(-50%, -50%);left:40%""></img><img src=""media/j.png""style = ""width:30px; height:30px;position:fixed; top:43%;    transform: translate(-50%, -50%);left:60%""></img>","media/stimuli/animate_006_left.png","animate","left","pair","media/stimuli/animate_006_left.png","animate","left","single","media/stimuli/inanimate_006_left.png","inanimate","left","pair","number_animacy"
"","","","","","html-keyboard-response","71","287592","0.0-71.0","SS1678233204091","601b75077aa0425330b81e36","6406d7f26dd5b7fc1e3377bd","6407ce5fc8948e240c192951","1920","937","","2829","","f","","","","","","","<img src=""media/stimuli/animate_010_left.png"" class=""coveredImage test"" style = ""width:100px; height:100px; position:fixed; top:10%;    transform: translate(-50%, -50%);left:44.5%""></img><img src=""media/stimuli/animate_010_left.png"" class=""coveredImage test"" style = ""width:100px; height:100px; position:fixed; top:10%;    transform: translate(-50%, -50%);left:51.5%""></img><img src=""media/stimuli/animate_010_left.png"" class=""coveredImage test"" style = ""width:100px; height:100px;position:fixed; top:25%;        transform: translate(-50%, -50%);left:38%""></img><img src=""media/stimuli/animate_010_right.png"" class=""coveredImage test"" style = ""width:100px; height:100px;position:fixed; top:25%;        transform: translate(-50%, -50%);left:54.5%""></img><img src=""media/stimuli/animate_010_right.png"" class=""coveredImage test"" style = ""width:100px; height:100px;position:fixed; top:25%;        transform: translate(-50%, -50%);left:61.5%""></img><img src=""media/f.png""style = ""width:30px x; height:30px;position:fixed; top:43%;    transform: translate(-50%, -50%);left:40%""></img><img src=""media/j.png""style = ""width:30px; height:30px;position:fixed; top:43%;    transform: translate(-50%, -50%);left:60%""></img>","media/stimuli/animate_010_left.png","animate","left","pair","media/stimuli/animate_010_left.png","animate","left","single","media/stimuli/animate_010_right.png","animate","right","pair","number_pose"
"","","","","","html-keyboard-response","72","288952","0.0-72.0","SS1678233204091","601b75077aa0425330b81e36","6406d7f26dd5b7fc1e3377bd","6407ce5fc8948e240c192951","1920","937","","1357","","j","","","","","","","","","","","","","","","","","","","",""
"","","","","","html-keyboard-response","73","294481","0.0-73.0","SS1678233204091","601b75077aa0425330b81e36","6406d7f26dd5b7fc1e3377bd","6407ce5fc8948e240c192951","1920","937","","5526","","f","","","","","","","<img src=""media/stimuli/animate_007_right.png"" class=""coveredImage test"" style = ""width:100px; height:100px; position:fixed; top:10%;    transform: translate(-50%, -50%);left:48%""></img><img src=""media/stimuli/animate_011_right.png"" class=""coveredImage test"" style = ""width:100px; height:100px;position:fixed; top:25%;        transform: translate(-50%, -50%);left:38%""></img><img src=""media/stimuli/animate_007_left.png"" class=""coveredImage test"" style = ""width:100px; height:100px;position:fixed; top:25%;        transform: translate(-50%, -50%);left:58%""></img><img src=""media/f.png""style = ""width:30px x; height:30px;position:fixed; top:43%;    transform: translate(-50%, -50%);left:40%""></img><img src=""media/j.png""style = ""width:30px; height:30px;position:fixed; top:43%;    transform: translate(-50%, -50%);left:60%""></img>","media/stimuli/animate_007_right.png","animate","right","single","media/stimuli/animate_011_right.png","animate","right","single","media/stimuli/animate_007_left.png","animate","left","single","identity_pose"
"","","","","","html-keyboard-response","74","296952","0.0-74.0","SS1678233204091","601b75077aa0425330b81e36","6406d7f26dd5b7fc1e3377bd","6407ce5fc8948e240c192951","1920","937","","2466","","j","","","","","","","<img src=""media/stimuli/inanimate_011_left.png"" class=""coveredImage test"" style = ""width:100px; height:100px; position:fixed; top:10%;    transform: translate(-50%, -50%);left:44.5%""></img><img src=""media/stimuli/inanimate_011_left.png"" class=""coveredImage test"" style = ""width:100px; height:100px; position:fixed; top:10%;    transform: translate(-50%, -50%);left:51.5%""></img><img src=""media/stimuli/inanimate_011_right.png"" class=""coveredImage test"" style = ""width:100px; height:100px;position:fixed; top:25%;        transform: translate(-50%, -50%);left:34.5%""></img><img src=""media/stimuli/inanimate_011_right.png"" class=""coveredImage test"" style = ""width:100px; height:100px;position:fixed; top:25%;        transform: translate(-50%, -50%);left:41.5%""></img><img src=""media/stimuli/animate_008_left.png"" class=""coveredImage test"" style = ""width:100px; height:100px;position:fixed; top:25%;        transform: translate(-50%, -50%);left:54.5%""></img><img src=""media/stimuli/animate_008_left.png"" class=""coveredImage test"" style = ""width:100px; height:100px;position:fixed; top:25%;        transform: translate(-50%, -50%);left:61.5%""></img><img src=""media/f.png""style = ""width:30px x; height:30px;position:fixed; top:43%;    transform: translate(-50%, -50%);left:40%""></img><img src=""media/j.png""style = ""width:30px; height:30px;position:fixed; top:43%;    transform: translate(-50%, -50%);left:60%""></img>","media/stimuli/inanimate_011_left.png","inanimate","left","pair","media/stimuli/inanimate_011_right.png","inanimate","right","pair","media/stimuli/animate_008_left.png","animate","left","pair","pose_animacy"
"","","","","","html-keyboard-response","75","298783","0.0-75.0","SS1678233204091","601b75077aa0425330b81e36","6406d7f26dd5b7fc1e3377bd","6407ce5fc8948e240c192951","1920","937","","1827","","j","","","","","","","<img src=""media/stimuli/inanimate_005_left.png"" class=""coveredImage test"" style = ""width:100px; height:100px; position:fixed; top:10%;    transform: translate(-50%, -50%);left:44.5%""></img><img src=""media/stimuli/inanimate_005_left.png"" class=""coveredImage test"" style = ""width:100px; height:100px; position:fixed; top:10%;    transform: translate(-50%, -50%);left:51.5%""></img><img src=""media/stimuli/inanimate_005_left.png"" class=""coveredImage test"" style = ""width:100px; height:100px;position:fixed; top:25%;        transform: translate(-50%, -50%);left:38%""></img><img src=""media/stimuli/inanimate_008_left.png"" class=""coveredImage test"" style = ""width:100px; height:100px;position:fixed; top:25%;        transform: translate(-50%, -50%);left:54.5%""></img><img src=""media/stimuli/inanimate_008_left.png"" class=""coveredImage test"" style = ""width:100px; height:100px;position:fixed; top:25%;        transform: translate(-50%, -50%);left:61.5%""></img><img src=""media/f.png""style = ""width:30px x; height:30px;position:fixed; top:43%;    transform: translate(-50%, -50%);left:40%""></img><img src=""media/j.png""style = ""width:30px; height:30px;position:fixed; top:43%;    transform: translate(-50%, -50%);left:60%""></img>","media/stimuli/inanimate_005_left.png","inanimate","left","pair","media/stimuli/inanimate_005_left.png","inanimate","left","single","media/stimuli/inanimate_008_left.png","inanimate","left","pair","number_identity"
"","","","","","html-keyboard-response","76","301016","0.0-76.0","SS1678233204091","601b75077aa0425330b81e36","6406d7f26dd5b7fc1e3377bd","6407ce5fc8948e240c192951","1920","937","","2228","","j","","","","","","","<img src=""media/stimuli/inanimate_007_right.png"" class=""coveredImage test"" style = ""width:100px; height:100px; position:fixed; top:10%;    transform: translate(-50%, -50%);left:44.5%""></img><img src=""media/stimuli/inanimate_007_right.png"" class=""coveredImage test"" style = ""width:100px; height:100px; position:fixed; top:10%;    transform: translate(-50%, -50%);left:51.5%""></img><img src=""media/stimuli/inanimate_010_right.png"" class=""coveredImage test"" style = ""width:100px; height:100px;position:fixed; top:25%;        transform: translate(-50%, -50%);left:34.5%""></img><img src=""media/stimuli/inanimate_010_right.png"" class=""coveredImage test"" style = ""width:100px; height:100px;position:fixed; top:25%;        transform: translate(-50%, -50%);left:41.5%""></img><img src=""media/stimuli/inanimate_007_right.png"" class=""coveredImage test"" style = ""width:100px; height:100px;position:fixed; top:25%;        transform: translate(-50%, -50%);left:54.5%""></img><img src=""media/stimuli/inanimate_007_right.png"" class=""coveredImage test"" style = ""width:100px; height:100px;position:fixed; top:25%;        transform: translate(-50%, -50%);left:61.5%""></img><img src=""media/f.png""style = ""width:30px x; height:30px;position:fixed; top:43%;    transform: translate(-50%, -50%);left:40%""></img><img src=""media/j.png""style = ""width:30px; height:30px;position:fixed; top:43%;    transform: translate(-50%, -50%);left:60%""></img>","media/stimuli/inanimate_007_right.png","inanimate","right","pair","media/stimuli/inanimate_010_right.png","inanimate","right","pair","media/stimuli/inanimate_007_right.png","inanimate","right","pair","identity_filler"
"","","","","","html-keyboard-response","77","303544","0.0-77.0","SS1678233204091","601b75077aa0425330b81e36","6406d7f26dd5b7fc1e3377bd","6407ce5fc8948e240c192951","1920","937","","2524","","f","","","","","","","<img src=""media/stimuli/animate_011_left.png"" class=""coveredImage test"" style = ""width:100px; height:100px; position:fixed; top:10%;    transform: translate(-50%, -50%);left:44.5%""></img><img src=""media/stimuli/animate_011_left.png"" class=""coveredImage test"" style = ""width:100px; height:100px; position:fixed; top:10%;    transform: translate(-50%, -50%);left:51.5%""></img><img src=""media/stimuli/animate_001_left.png"" class=""coveredImage test"" style = ""width:100px; height:100px;position:fixed; top:25%;        transform: translate(-50%, -50%);left:34.5%""></img><img src=""media/stimuli/animate_001_left.png"" class=""coveredImage test"" style = ""width:100px; height:100px;position:fixed; top:25%;        transform: translate(-50%, -50%);left:41.5%""></img><img src=""media/stimuli/animate_011_right.png"" class=""coveredImage test"" style = ""width:100px; height:100px;position:fixed; top:25%;        transform: translate(-50%, -50%);left:54.5%""></img><img src=""media/stimuli/animate_011_right.png"" class=""coveredImage test"" style = ""width:100px; height:100px;position:fixed; top:25%;        transform: translate(-50%, -50%);left:61.5%""></img><img src=""media/f.png""style = ""width:30px x; height:30px;position:fixed; top:43%;    transform: translate(-50%, -50%);left:40%""></img><img src=""media/j.png""style = ""width:30px; height:30px;position:fixed; top:43%;    transform: translate(-50%, -50%);left:60%""></img>","media/stimuli/animate_011_left.png","animate","left","pair","media/stimuli/animate_001_left.png","animate","left","pair","media/stimuli/animate_011_right.png","animate","right","pair","identity_pose"
"","","","","","html-keyboard-response","78","306065","0.0-78.0","SS1678233204091","601b75077aa0425330b81e36","6406d7f26dd5b7fc1e3377bd","6407ce5fc8948e240c192951","1920","937","","2519","","j","","","","","","","<img src=""media/stimuli/inanimate_004_left.png"" class=""coveredImage test"" style = ""width:100px; height:100px; position:fixed; top:10%;    transform: translate(-50%, -50%);left:48%""></img><img src=""media/stimuli/inanimate_010_left.png"" class=""coveredImage test"" style = ""width:100px; height:100px;position:fixed; top:25%;        transform: translate(-50%, -50%);left:38%""></img><img src=""media/stimuli/animate_007_left.png"" class=""coveredImage test"" style = ""width:100px; height:100px;position:fixed; top:25%;        transform: translate(-50%, -50%);left:58%""></img><img src=""media/f.png""style = ""width:30px x; height:30px;position:fixed; top:43%;    transform: translate(-50%, -50%);left:40%""></img><img src=""media/j.png""style = ""width:30px; height:30px;position:fixed; top:43%;    transform: translate(-50%, -50%);left:60%""></img>","media/stimuli/inanimate_004_left.png","inanimate","left","single","media/stimuli/inanimate_010_left.png","inanimate","left","single","media/stimuli/animate_007_left.png","animate","left","single","identity_animacy"
"","","","","","html-keyboard-response","79","308280","0.0-79.0","SS1678233204091","601b75077aa0425330b81e36","6406d7f26dd5b7fc1e3377bd","6407ce5fc8948e240c192951","1920","937","","2211","","j","","","","","","","<img src=""media/stimuli/animate_008_left.png"" class=""coveredImage test"" style = ""width:100px; height:100px; position:fixed; top:10%;    transform: translate(-50%, -50%);left:44.5%""></img><img src=""media/stimuli/animate_008_left.png"" class=""coveredImage test"" style = ""width:100px; height:100px; position:fixed; top:10%;    transform: translate(-50%, -50%);left:51.5%""></img><img src=""media/stimuli/inanimate_003_left.png"" class=""coveredImage test"" style = ""width:100px; height:100px;position:fixed; top:25%;        transform: translate(-50%, -50%);left:34.5%""></img><img src=""media/stimuli/inanimate_003_left.png"" class=""coveredImage test"" style = ""width:100px; height:100px;position:fixed; top:25%;        transform: translate(-50%, -50%);left:41.5%""></img><img src=""media/stimuli/animate_001_left.png"" class=""coveredImage test"" style = ""width:100px; height:100px;position:fixed; top:25%;        transform: translate(-50%, -50%);left:54.5%""></img><img src=""media/stimuli/animate_001_left.png"" class=""coveredImage test"" style = ""width:100px; height:100px;position:fixed; top:25%;        transform: translate(-50%, -50%);left:61.5%""></img><img src=""media/f.png""style = ""width:30px x; height:30px;position:fixed; top:43%;    transform: translate(-50%, -50%);left:40%""></img><img src=""media/j.png""style = ""width:30px; height:30px;position:fixed; top:43%;    transform: translate(-50%, -50%);left:60%""></img>","media/stimuli/animate_008_left.png","animate","left","pair","media/stimuli/inanimate_003_left.png","inanimate","left","pair","media/stimuli/animate_001_left.png","animate","left","pair","animacy_identity"
"","","","","","html-keyboard-response","80","311096","0.0-80.0","SS1678233204091","601b75077aa0425330b81e36","6406d7f26dd5b7fc1e3377bd","6407ce5fc8948e240c192951","1920","937","","2812","","j","","","","","","","<img src=""media/stimuli/animate_008_right.png"" class=""coveredImage test"" style = ""width:100px; height:100px; position:fixed; top:10%;    transform: translate(-50%, -50%);left:44.5%""></img><img src=""media/stimuli/animate_008_right.png"" class=""coveredImage test"" style = ""width:100px; height:100px; position:fixed; top:10%;    transform: translate(-50%, -50%);left:51.5%""></img><img src=""media/stimuli/animate_008_left.png"" class=""coveredImage test"" style = ""width:100px; height:100px;position:fixed; top:25%;        transform: translate(-50%, -50%);left:34.5%""></img><img src=""media/stimuli/animate_008_left.png"" class=""coveredImage test"" style = ""width:100px; height:100px;position:fixed; top:25%;        transform: translate(-50%, -50%);left:41.5%""></img><img src=""media/stimuli/animate_003_right.png"" class=""coveredImage test"" style = ""width:100px; height:100px;position:fixed; top:25%;        transform: translate(-50%, -50%);left:54.5%""></img><img src=""media/stimuli/animate_003_right.png"" class=""coveredImage test"" style = ""width:100px; height:100px;position:fixed; top:25%;        transform: translate(-50%, -50%);left:61.5%""></img><img src=""media/f.png""style = ""width:30px x; height:30px;position:fixed; top:43%;    transform: translate(-50%, -50%);left:40%""></img><img src=""media/j.png""style = ""width:30px; height:30px;position:fixed; top:43%;    transform: translate(-50%, -50%);left:60%""></img>","media/stimuli/animate_008_right.png","animate","right","pair","media/stimuli/animate_008_left.png","animate","left","pair","media/stimuli/animate_003_right.png","animate","right","pair","pose_identity"
"","","","","","html-keyboard-response","81","313520","0.0-81.0","SS1678233204091","601b75077aa0425330b81e36","6406d7f26dd5b7fc1e3377bd","6407ce5fc8948e240c192951","1920","937","","2420","","j","","","","","","","<img src=""media/stimuli/inanimate_011_right.png"" class=""coveredImage test"" style = ""width:100px; height:100px; position:fixed; top:10%;    transform: translate(-50%, -50%);left:44.5%""></img><img src=""media/stimuli/inanimate_011_right.png"" class=""coveredImage test"" style = ""width:100px; height:100px; position:fixed; top:10%;    transform: translate(-50%, -50%);left:51.5%""></img><img src=""media/stimuli/inanimate_005_right.png"" class=""coveredImage test"" style = ""width:100px; height:100px;position:fixed; top:25%;        transform: translate(-50%, -50%);left:34.5%""></img><img src=""media/stimuli/inanimate_005_right.png"" class=""coveredImage test"" style = ""width:100px; height:100px;position:fixed; top:25%;        transform: translate(-50%, -50%);left:41.5%""></img><img src=""media/stimuli/animate_011_right.png"" class=""coveredImage test"" style = ""width:100px; height:100px;position:fixed; top:25%;        transform: translate(-50%, -50%);left:54.5%""></img><img src=""media/stimuli/animate_011_right.png"" class=""coveredImage test"" style = ""width:100px; height:100px;position:fixed; top:25%;        transform: translate(-50%, -50%);left:61.5%""></img><img src=""media/f.png""style = ""width:30px x; height:30px;position:fixed; top:43%;    transform: translate(-50%, -50%);left:40%""></img><img src=""media/j.png""style = ""width:30px; height:30px;position:fixed; top:43%;    transform: translate(-50%, -50%);left:60%""></img>","media/stimuli/inanimate_011_right.png","inanimate","right","pair","media/stimuli/inanimate_005_right.png","inanimate","right","pair","media/stimuli/animate_011_right.png","animate","right","pair","identity_animacy"
"","","","","","html-keyboard-response","82","316625","0.0-82.0","SS1678233204091","601b75077aa0425330b81e36","6406d7f26dd5b7fc1e3377bd","6407ce5fc8948e240c192951","1920","937","","3102","","j","","","","","","","<img src=""media/stimuli/inanimate_010_right.png"" class=""coveredImage test"" style = ""width:100px; height:100px; position:fixed; top:10%;    transform: translate(-50%, -50%);left:44.5%""></img><img src=""media/stimuli/inanimate_010_right.png"" class=""coveredImage test"" style = ""width:100px; height:100px; position:fixed; top:10%;    transform: translate(-50%, -50%);left:51.5%""></img><img src=""media/stimuli/inanimate_010_left.png"" class=""coveredImage test"" style = ""width:100px; height:100px;position:fixed; top:25%;        transform: translate(-50%, -50%);left:34.5%""></img><img src=""media/stimuli/inanimate_010_left.png"" class=""coveredImage test"" style = ""width:100px; height:100px;position:fixed; top:25%;        transform: translate(-50%, -50%);left:41.5%""></img><img src=""media/stimuli/inanimate_010_right.png"" class=""coveredImage test"" style = ""width:100px; height:100px;position:fixed; top:25%;        transform: translate(-50%, -50%);left:58%""></img><img src=""media/f.png""style = ""width:30px x; height:30px;position:fixed; top:43%;    transform: translate(-50%, -50%);left:40%""></img><img src=""media/j.png""style = ""width:30px; height:30px;position:fixed; top:43%;    transform: translate(-50%, -50%);left:60%""></img>","media/stimuli/inanimate_010_right.png","inanimate","right","pair","media/stimuli/inanimate_010_left.png","inanimate","left","pair","media/stimuli/inanimate_010_right.png","inanimate","right","single","pose_number"
"","","","","","html-keyboard-response","83","318080","0.0-83.0","SS1678233204091","601b75077aa0425330b81e36","6406d7f26dd5b7fc1e3377bd","6407ce5fc8948e240c192951","1920","937","","1451","","j","","","","","","","<img src=""media/stimuli/inanimate_009_right.png"" class=""coveredImage test"" style = ""width:100px; height:100px; position:fixed; top:10%;    transform: translate(-50%, -50%);left:48%""></img><img src=""media/stimuli/animate_002_right.png"" class=""coveredImage test"" style = ""width:100px; height:100px;position:fixed; top:25%;        transform: translate(-50%, -50%);left:38%""></img><img src=""media/stimuli/inanimate_009_left.png"" class=""coveredImage test"" style = ""width:100px; height:100px;position:fixed; top:25%;        transform: translate(-50%, -50%);left:58%""></img><img src=""media/f.png""style = ""width:30px x; height:30px;position:fixed; top:43%;    transform: translate(-50%, -50%);left:40%""></img><img src=""media/j.png""style = ""width:30px; height:30px;position:fixed; top:43%;    transform: translate(-50%, -50%);left:60%""></img>","media/stimuli/inanimate_009_right.png","inanimate","right","single","media/stimuli/animate_002_right.png","animate","right","single","media/stimuli/inanimate_009_left.png","inanimate","left","single","animacy_pose"
"","","","","","html-keyboard-response","84","321919","0.0-84.0","SS1678233204091","601b75077aa0425330b81e36","6406d7f26dd5b7fc1e3377bd","6407ce5fc8948e240c192951","1920","937","","3836","","f","","","","","","","<img src=""media/stimuli/inanimate_009_right.png"" class=""coveredImage test"" style = ""width:100px; height:100px; position:fixed; top:10%;    transform: translate(-50%, -50%);left:48%""></img><img src=""media/stimuli/animate_009_right.png"" class=""coveredImage test"" style = ""width:100px; height:100px;position:fixed; top:25%;        transform: translate(-50%, -50%);left:38%""></img><img src=""media/stimuli/inanimate_009_left.png"" class=""coveredImage test"" style = ""width:100px; height:100px;position:fixed; top:25%;        transform: translate(-50%, -50%);left:58%""></img><img src=""media/f.png""style = ""width:30px x; height:30px;position:fixed; top:43%;    transform: translate(-50%, -50%);left:40%""></img><img src=""media/j.png""style = ""width:30px; height:30px;position:fixed; top:43%;    transform: translate(-50%, -50%);left:60%""></img>","media/stimuli/inanimate_009_right.png","inanimate","right","single","media/stimuli/animate_009_right.png","animate","right","single","media/stimuli/inanimate_009_left.png","inanimate","left","single","animacy_pose"
"","","","","","html-keyboard-response","85","323327","0.0-85.0","SS1678233204091","601b75077aa0425330b81e36","6406d7f26dd5b7fc1e3377bd","6407ce5fc8948e240c192951","1920","937","","1404","","j","","","","","","","","","","","","","","","","","","","",""
"","","","","","survey-likert","86","330172","0.0-86.0","SS1678233204091","601b75077aa0425330b81e36","6406d7f26dd5b7fc1e3377bd","6407ce5fc8948e240c192951","1920","937","","6841","","{""Q0"":2}","[0]","complexity","media/stimuli/inanimate_012_right.png","inanimate","single","right","","","","","","","","","","","","","",""
"","","","","","survey-likert","87","333919","0.0-87.0","SS1678233204091","601b75077aa0425330b81e36","6406d7f26dd5b7fc1e3377bd","6407ce5fc8948e240c192951","1920","937","","3741","","{""Q0"":2}","[0]","complexity","media/stimuli/inanimate_006_right.png","inanimate","pair","right","","","","","","","","","","","","","",""
"","","","","","survey-likert","88","337672","0.0-88.0","SS1678233204091","601b75077aa0425330b81e36","6406d7f26dd5b7fc1e3377bd","6407ce5fc8948e240c192951","1920","937","","3747","","{""Q0"":2}","[0]","complexity","media/stimuli/animate_010_left.png","animate","single","left","","","","","","","","","","","","","",""
"","","","","","survey-likert","89","340360","0.0-89.0","SS1678233204091","601b75077aa0425330b81e36","6406d7f26dd5b7fc1e3377bd","6407ce5fc8948e240c192951","1920","937","","2683","","{""Q0"":2}","[0]","complexity","media/stimuli/animate_002_right.png","animate","single","right","","","","","","","","","","","","","",""
"","","","","","survey-likert","90","343272","0.0-90.0","SS1678233204091","601b75077aa0425330b81e36","6406d7f26dd5b7fc1e3377bd","6407ce5fc8948e240c192951","1920","937","","2907","","{""Q0"":2}","[0]","complexity","media/stimuli/animate_006_left.png","animate","single","left","","","","","","","","","","","","","",""
"","","","","","survey-likert","91","345834","0.0-91.0","SS1678233204091","601b75077aa0425330b81e36","6406d7f26dd5b7fc1e3377bd","6407ce5fc8948e240c192951","1920","937","","2557","","{""Q0"":2}","[0]","complexity","media/stimuli/inanimate_004_left.png","inanimate","pair","left","","","","","","","","","","","","","",""
"","","","","","survey-likert","92","349506","0.0-92.0","SS1678233204091","601b75077aa0425330b81e36","6406d7f26dd5b7fc1e3377bd","6407ce5fc8948e240c192951","1920","937","","3666","","{""Q0"":2}","[0]","complexity","media/stimuli/inanimate_010_right.png","inanimate","single","right","","","","","","","","","","","","","",""
"","","","","","survey-likert","93","352076","0.0-93.0","SS1678233204091","601b75077aa0425330b81e36","6406d7f26dd5b7fc1e3377bd","6407ce5fc8948e240c192951","1920","937","","2565","","{""Q0"":2}","[0]","complexity","media/stimuli/animate_008_right.png","animate","single","right","","","","","","","","","","","","","",""
"","","","","","survey-likert","94","354834","0.0-94.0","SS1678233204091","601b75077aa0425330b81e36","6406d7f26dd5b7fc1e3377bd","6407ce5fc8948e240c192951","1920","937","","2752","","{""Q0"":2}","[0]","complexity","media/stimuli/animate_007_left.png","animate","single","left","","","","","","","","","","","","","",""
"","","","","","survey-likert","95","357092","0.0-95.0","SS1678233204091","601b75077aa0425330b81e36","6406d7f26dd5b7fc1e3377bd","6407ce5fc8948e240c192951","1920","937","","2252","","{""Q0"":2}","[0]","complexity","media/stimuli/animate_012_right.png","animate","single","right","","","","","","","","","","","","","",""
"","","","","","survey-likert","96","358754","0.0-96.0","SS1678233204091","601b75077aa0425330b81e36","6406d7f26dd5b7fc1e3377bd","6407ce5fc8948e240c192951","1920","937","","1657","","{""Q0"":2}","[0]","complexity","media/stimuli/animate_005_left.png","animate","pair","left","","","","","","","","","","","","","",""
"","","","","","survey-likert","97","361006","0.0-97.0","SS1678233204091","601b75077aa0425330b81e36","6406d7f26dd5b7fc1e3377bd","6407ce5fc8948e240c192951","1920","937","","2246","","{""Q0"":2}","[0]","complexity","media/stimuli/inanimate_003_right.png","inanimate","single","right","","","","","","","","","","","","","",""
"","","","","","html-keyboard-response","98","363703","0.0-98.0","SS1678233204091","601b75077aa0425330b81e36","6406d7f26dd5b7fc1e3377bd","6407ce5fc8948e240c192951","1920","937","","2692","","enter","","","","","","","","","","","","","","","","","","","",""
"","","","","","html-keyboard-response","99","372833","0.0-99.0","SS1678233204091","601b75077aa0425330b81e36","6406d7f26dd5b7fc1e3377bd","6407ce5fc8948e240c192951","1920","937","","9126","","f","","","","","","","<img src=""media/stimuli/animate_001_right.png"" class=""coveredImage test"" style = ""width:100px; height:100px; position:fixed; top:10%;    transform: translate(-50%, -50%);left:48%""></img><img src=""media/stimuli/animate_010_right.png"" class=""coveredImage test"" style = ""width:100px; height:100px;position:fixed; top:25%;        transform: translate(-50%, -50%);left:38%""></img><img src=""media/stimuli/animate_001_left.png"" class=""coveredImage test"" style = ""width:100px; height:100px;position:fixed; top:25%;        transform: translate(-50%, -50%);left:58%""></img><img src=""media/f.png""style = ""width:30px x; height:30px;position:fixed; top:43%;    transform: translate(-50%, -50%);left:40%""></img><img src=""media/j.png""style = ""width:30px; height:30px;position:fixed; top:43%;    transform: translate(-50%, -50%);left:60%""></img>","media/stimuli/animate_001_right.png","animate","right","single","media/stimuli/animate_010_right.png","animate","right","single","media/stimuli/animate_001_left.png","animate","left","single","identity_pose"
"","","","","","html-keyboard-response","100","378239","0.0-100.0","SS1678233204091","601b75077aa0425330b81e36","6406d7f26dd5b7fc1e3377bd","6407ce5fc8948e240c192951","1920","937","","5402","","j","","","","","","","<img src=""media/stimuli/inanimate_008_left.png"" class=""coveredImage test"" style = ""width:100px; height:100px; position:fixed; top:10%;    transform: translate(-50%, -50%);left:48%""></img><img src=""media/stimuli/inanimate_008_right.png"" class=""coveredImage test"" style = ""width:100px; height:100px;position:fixed; top:25%;        transform: translate(-50%, -50%);left:38%""></img><img src=""media/stimuli/inanimate_005_left.png"" class=""coveredImage test"" style = ""width:100px; height:100px;position:fixed; top:25%;        transform: translate(-50%, -50%);left:58%""></img><img src=""media/f.png""style = ""width:30px x; height:30px;position:fixed; top:43%;    transform: translate(-50%, -50%);left:40%""></img><img src=""media/j.png""style = ""width:30px; height:30px;position:fixed; top:43%;    transform: translate(-50%, -50%);left:60%""></img>","media/stimuli/inanimate_008_left.png","inanimate","left","single","media/stimuli/inanimate_008_right.png","inanimate","right","single","media/stimuli/inanimate_005_left.png","inanimate","left","single","pose_identity"
"","","","","","html-keyboard-response","101","379751","0.0-101.0","SS1678233204091","601b75077aa0425330b81e36","6406d7f26dd5b7fc1e3377bd","6407ce5fc8948e240c192951","1920","937","","1508","","f","","","","","","","<img src=""media/stimuli/inanimate_003_left.png"" class=""coveredImage test"" style = ""width:100px; height:100px; position:fixed; top:10%;    transform: translate(-50%, -50%);left:48%""></img><img src=""media/stimuli/inanimate_003_left.png"" class=""coveredImage test"" style = ""width:100px; height:100px;position:fixed; top:25%;        transform: translate(-50%, -50%);left:34.5%""></img><img src=""media/stimuli/inanimate_003_left.png"" class=""coveredImage test"" style = ""width:100px; height:100px;position:fixed; top:25%;        transform: translate(-50%, -50%);left:41.5%""></img><img src=""media/stimuli/animate_011_left.png"" class=""coveredImage test"" style = ""width:100px; height:100px;position:fixed; top:25%;        transform: translate(-50%, -50%);left:58%""></img><img src=""media/f.png""style = ""width:30px x; height:30px;position:fixed; top:43%;    transform: translate(-50%, -50%);left:40%""></img><img src=""media/j.png""style = ""width:30px; height:30px;position:fixed; top:43%;    transform: translate(-50%, -50%);left:60%""></img>","media/stimuli/inanimate_003_left.png","inanimate","left","single","media/stimuli/inanimate_003_left.png","inanimate","left","pair","media/stimuli/animate_011_left.png","animate","left","single","number_animacy"
"","","","","","html-keyboard-response","102","381375","0.0-102.0","SS1678233204091","601b75077aa0425330b81e36","6406d7f26dd5b7fc1e3377bd","6407ce5fc8948e240c192951","1920","937","","1620","","f","","","","","","","<img src=""media/stimuli/inanimate_006_right.png"" class=""coveredImage test"" style = ""width:100px; height:100px; position:fixed; top:10%;    transform: translate(-50%, -50%);left:44.5%""></img><img src=""media/stimuli/inanimate_006_right.png"" class=""coveredImage test"" style = ""width:100px; height:100px; position:fixed; top:10%;    transform: translate(-50%, -50%);left:51.5%""></img><img src=""media/stimuli/inanimate_006_right.png"" class=""coveredImage test"" style = ""width:100px; height:100px;position:fixed; top:25%;        transform: translate(-50%, -50%);left:38%""></img><img src=""media/stimuli/animate_003_right.png"" class=""coveredImage test"" style = ""width:100px; height:100px;position:fixed; top:25%;        transform: translate(-50%, -50%);left:54.5%""></img><img src=""media/stimuli/animate_003_right.png"" class=""coveredImage test"" style = ""width:100px; height:100px;position:fixed; top:25%;        transform: translate(-50%, -50%);left:61.5%""></img><img src=""media/f.png""style = ""width:30px x; height:30px;position:fixed; top:43%;    transform: translate(-50%, -50%);left:40%""></img><img src=""media/j.png""style = ""width:30px; height:30px;position:fixed; top:43%;    transform: translate(-50%, -50%);left:60%""></img>","media/stimuli/inanimate_006_right.png","inanimate","right","pair","media/stimuli/inanimate_006_right.png","inanimate","right","single","media/stimuli/animate_003_right.png","animate","right","pair","number_animacy"
"","","","","","html-keyboard-response","103","383297","0.0-103.0","SS1678233204091","601b75077aa0425330b81e36","6406d7f26dd5b7fc1e3377bd","6407ce5fc8948e240c192951","1920","937","","1918","","j","","","","","","","<img src=""media/stimuli/animate_008_right.png"" class=""coveredImage test"" style = ""width:100px; height:100px; position:fixed; top:10%;    transform: translate(-50%, -50%);left:48%""></img><img src=""media/stimuli/animate_008_left.png"" class=""coveredImage test"" style = ""width:100px; height:100px;position:fixed; top:25%;        transform: translate(-50%, -50%);left:38%""></img><img src=""media/stimuli/animate_008_right.png"" class=""coveredImage test"" style = ""width:100px; height:100px;position:fixed; top:25%;        transform: translate(-50%, -50%);left:54.5%""></img><img src=""media/stimuli/animate_008_right.png"" class=""coveredImage test"" style = ""width:100px; height:100px;position:fixed; top:25%;        transform: translate(-50%, -50%);left:61.5%""></img><img src=""media/f.png""style = ""width:30px x; height:30px;position:fixed; top:43%;    transform: translate(-50%, -50%);left:40%""></img><img src=""media/j.png""style = ""width:30px; height:30px;position:fixed; top:43%;    transform: translate(-50%, -50%);left:60%""></img>","media/stimuli/animate_008_right.png","animate","right","single","media/stimuli/animate_008_left.png","animate","left","single","media/stimuli/animate_008_right.png","animate","right","pair","pose_number"
"","","","","","html-keyboard-response","104","385111","0.0-104.0","SS1678233204091","601b75077aa0425330b81e36","6406d7f26dd5b7fc1e3377bd","6407ce5fc8948e240c192951","1920","937","","1810","","f","","","","","","","<img src=""media/stimuli/inanimate_002_right.png"" class=""coveredImage test"" style = ""width:100px; height:100px; position:fixed; top:10%;    transform: translate(-50%, -50%);left:44.5%""></img><img src=""media/stimuli/inanimate_002_right.png"" class=""coveredImage test"" style = ""width:100px; height:100px; position:fixed; top:10%;    transform: translate(-50%, -50%);left:51.5%""></img><img src=""media/stimuli/inanimate_002_right.png"" class=""coveredImage test"" style = ""width:100px; height:100px;position:fixed; top:25%;        transform: translate(-50%, -50%);left:38%""></img><img src=""media/stimuli/animate_005_right.png"" class=""coveredImage test"" style = ""width:100px; height:100px;position:fixed; top:25%;        transform: translate(-50%, -50%);left:54.5%""></img><img src=""media/stimuli/animate_005_right.png"" class=""coveredImage test"" style = ""width:100px; height:100px;position:fixed; top:25%;        transform: translate(-50%, -50%);left:61.5%""></img><img src=""media/f.png""style = ""width:30px x; height:30px;position:fixed; top:43%;    transform: translate(-50%, -50%);left:40%""></img><img src=""media/j.png""style = ""width:30px; height:30px;position:fixed; top:43%;    transform: translate(-50%, -50%);left:60%""></img>","media/stimuli/inanimate_002_right.png","inanimate","right","pair","media/stimuli/inanimate_002_right.png","inanimate","right","single","media/stimuli/animate_005_right.png","animate","right","pair","number_animacy"
"","","","","","html-keyboard-response","105","387135","0.0-105.0","SS1678233204091","601b75077aa0425330b81e36","6406d7f26dd5b7fc1e3377bd","6407ce5fc8948e240c192951","1920","937","","2020","","j","","","","","","","<img src=""media/stimuli/animate_009_right.png"" class=""coveredImage test"" style = ""width:100px; height:100px; position:fixed; top:10%;    transform: translate(-50%, -50%);left:44.5%""></img><img src=""media/stimuli/animate_009_right.png"" class=""coveredImage test"" style = ""width:100px; height:100px; position:fixed; top:10%;    transform: translate(-50%, -50%);left:51.5%""></img><img src=""media/stimuli/animate_009_left.png"" class=""coveredImage test"" style = ""width:100px; height:100px;position:fixed; top:25%;        transform: translate(-50%, -50%);left:38%""></img><img src=""media/stimuli/inanimate_007_right.png"" class=""coveredImage test"" style = ""width:100px; height:100px;position:fixed; top:25%;        transform: translate(-50%, -50%);left:58%""></img><img src=""media/f.png""style = ""width:30px x; height:30px;position:fixed; top:43%;    transform: translate(-50%, -50%);left:40%""></img><img src=""media/j.png""style = ""width:30px; height:30px;position:fixed; top:43%;    transform: translate(-50%, -50%);left:60%""></img>","media/stimuli/animate_009_right.png","animate","right","pair","media/stimuli/animate_009_left.png","animate","left","single","media/stimuli/inanimate_007_right.png","inanimate","right","single","pose_animacy"
"","","","","","html-keyboard-response","106","391191","0.0-106.0","SS1678233204091","601b75077aa0425330b81e36","6406d7f26dd5b7fc1e3377bd","6407ce5fc8948e240c192951","1920","937","","4052","","j","","","","","","","<img src=""media/stimuli/animate_001_right.png"" class=""coveredImage test"" style = ""width:100px; height:100px; position:fixed; top:10%;    transform: translate(-50%, -50%);left:48%""></img><img src=""media/stimuli/inanimate_006_left.png"" class=""coveredImage test"" style = ""width:100px; height:100px;position:fixed; top:25%;        transform: translate(-50%, -50%);left:34.5%""></img><img src=""media/stimuli/inanimate_006_left.png"" class=""coveredImage test"" style = ""width:100px; height:100px;position:fixed; top:25%;        transform: translate(-50%, -50%);left:41.5%""></img><img src=""media/stimuli/animate_001_right.png"" class=""coveredImage test"" style = ""width:100px; height:100px;position:fixed; top:25%;        transform: translate(-50%, -50%);left:54.5%""></img><img src=""media/stimuli/animate_001_right.png"" class=""coveredImage test"" style = ""width:100px; height:100px;position:fixed; top:25%;        transform: translate(-50%, -50%);left:61.5%""></img><img src=""media/f.png""style = ""width:30px x; height:30px;position:fixed; top:43%;    transform: translate(-50%, -50%);left:40%""></img><img src=""media/j.png""style = ""width:30px; height:30px;position:fixed; top:43%;    transform: translate(-50%, -50%);left:60%""></img>","media/stimuli/animate_001_right.png","animate","right","single","media/stimuli/inanimate_006_left.png","inanimate","left","pair","media/stimuli/animate_001_right.png","animate","right","pair","animacy_pose"
"","","","","","html-keyboard-response","107","393143","0.0-107.0","SS1678233204091","601b75077aa0425330b81e36","6406d7f26dd5b7fc1e3377bd","6407ce5fc8948e240c192951","1920","937","","1948","","j","","","","","","","<img src=""media/stimuli/inanimate_003_left.png"" class=""coveredImage test"" style = ""width:100px; height:100px; position:fixed; top:10%;    transform: translate(-50%, -50%);left:48%""></img><img src=""media/stimuli/animate_003_left.png"" class=""coveredImage test"" style = ""width:100px; height:100px;position:fixed; top:25%;        transform: translate(-50%, -50%);left:38%""></img><img src=""media/stimuli/inanimate_003_left.png"" class=""coveredImage test"" style = ""width:100px; height:100px;position:fixed; top:25%;        transform: translate(-50%, -50%);left:54.5%""></img><img src=""media/stimuli/inanimate_003_left.png"" class=""coveredImage test"" style = ""width:100px; height:100px;position:fixed; top:25%;        transform: translate(-50%, -50%);left:61.5%""></img><img src=""media/f.png""style = ""width:30px x; height:30px;position:fixed; top:43%;    transform: translate(-50%, -50%);left:40%""></img><img src=""media/j.png""style = ""width:30px; height:30px;position:fixed; top:43%;    transform: translate(-50%, -50%);left:60%""></img>","media/stimuli/inanimate_003_left.png","inanimate","left","single","media/stimuli/animate_003_left.png","animate","left","single","media/stimuli/inanimate_003_left.png","inanimate","left","pair","animacy_number"
"","","","","","html-keyboard-response","108","395370","0.0-108.0","SS1678233204091","601b75077aa0425330b81e36","6406d7f26dd5b7fc1e3377bd","6407ce5fc8948e240c192951","1920","937","","2223","","f","","","","","","","<img src=""media/stimuli/animate_001_right.png"" class=""coveredImage test"" style = ""width:100px; height:100px; position:fixed; top:10%;    transform: translate(-50%, -50%);left:48%""></img><img src=""media/stimuli/animate_001_right.png"" class=""coveredImage test"" style = ""width:100px; height:100px;position:fixed; top:25%;        transform: translate(-50%, -50%);left:34.5%""></img><img src=""media/stimuli/animate_001_right.png"" class=""coveredImage test"" style = ""width:100px; height:100px;position:fixed; top:25%;        transform: translate(-50%, -50%);left:41.5%""></img><img src=""media/stimuli/inanimate_010_left.png"" class=""coveredImage test"" style = ""width:100px; height:100px;position:fixed; top:25%;        transform: translate(-50%, -50%);left:54.5%""></img><img src=""media/stimuli/inanimate_010_left.png"" class=""coveredImage test"" style = ""width:100px; height:100px;position:fixed; top:25%;        transform: translate(-50%, -50%);left:61.5%""></img><img src=""media/f.png""style = ""width:30px x; height:30px;position:fixed; top:43%;    transform: translate(-50%, -50%);left:40%""></img><img src=""media/j.png""style = ""width:30px; height:30px;position:fixed; top:43%;    transform: translate(-50%, -50%);left:60%""></img>","media/stimuli/animate_001_right.png","animate","right","single","media/stimuli/animate_001_right.png","animate","right","pair","media/stimuli/inanimate_010_left.png","inanimate","left","pair","pose_animacy"
"","","","","","html-keyboard-response","109","397336","0.0-109.0","SS1678233204091","601b75077aa0425330b81e36","6406d7f26dd5b7fc1e3377bd","6407ce5fc8948e240c192951","1920","937","","1961","","j","","","","","","","<img src=""media/stimuli/animate_001_right.png"" class=""coveredImage test"" style = ""width:100px; height:100px; position:fixed; top:10%;    transform: translate(-50%, -50%);left:48%""></img><img src=""media/stimuli/animate_001_left.png"" class=""coveredImage test"" style = ""width:100px; height:100px;position:fixed; top:25%;        transform: translate(-50%, -50%);left:38%""></img><img src=""media/stimuli/animate_001_right.png"" class=""coveredImage test"" style = ""width:100px; height:100px;position:fixed; top:25%;        transform: translate(-50%, -50%);left:54.5%""></img><img src=""media/stimuli/animate_001_right.png"" class=""coveredImage test"" style = ""width:100px; height:100px;position:fixed; top:25%;        transform: translate(-50%, -50%);left:61.5%""></img><img src=""media/f.png""style = ""width:30px x; height:30px;position:fixed; top:43%;    transform: translate(-50%, -50%);left:40%""></img><img src=""media/j.png""style = ""width:30px; height:30px;position:fixed; top:43%;    transform: translate(-50%, -50%);left:60%""></img>","media/stimuli/animate_001_right.png","animate","right","single","media/stimuli/animate_001_left.png","animate","left","single","media/stimuli/animate_001_right.png","animate","right","pair","pose_number"
"","","","","","html-keyboard-response","110","399239","0.0-110.0","SS1678233204091","601b75077aa0425330b81e36","6406d7f26dd5b7fc1e3377bd","6407ce5fc8948e240c192951","1920","937","","1899","","j","","","","","","","<img src=""media/stimuli/inanimate_011_left.png"" class=""coveredImage test"" style = ""width:100px; height:100px; position:fixed; top:10%;    transform: translate(-50%, -50%);left:48%""></img><img src=""media/stimuli/inanimate_011_right.png"" class=""coveredImage test"" style = ""width:100px; height:100px;position:fixed; top:25%;        transform: translate(-50%, -50%);left:38%""></img><img src=""media/stimuli/inanimate_011_left.png"" class=""coveredImage test"" style = ""width:100px; height:100px;position:fixed; top:25%;        transform: translate(-50%, -50%);left:54.5%""></img><img src=""media/stimuli/inanimate_011_left.png"" class=""coveredImage test"" style = ""width:100px; height:100px;position:fixed; top:25%;        transform: translate(-50%, -50%);left:61.5%""></img><img src=""media/f.png""style = ""width:30px x; height:30px;position:fixed; top:43%;    transform: translate(-50%, -50%);left:40%""></img><img src=""media/j.png""style = ""width:30px; height:30px;position:fixed; top:43%;    transform: translate(-50%, -50%);left:60%""></img>","media/stimuli/inanimate_011_left.png","inanimate","left","single","media/stimuli/inanimate_011_right.png","inanimate","right","single","media/stimuli/inanimate_011_left.png","inanimate","left","pair","pose_number"
"","","","","","html-keyboard-response","111","400479","0.0-111.0","SS1678233204091","601b75077aa0425330b81e36","6406d7f26dd5b7fc1e3377bd","6407ce5fc8948e240c192951","1920","937","","1236","","j","","","","","","","","","","","","","","","","","","","",""
"","","","","","survey-likert","112","405634","0.0-112.0","SS1678233204091","601b75077aa0425330b81e36","6406d7f26dd5b7fc1e3377bd","6407ce5fc8948e240c192951","1920","937","","5150","","{""Q0"":2}","[0]","complexity","media/stimuli/inanimate_004_left.png","inanimate","single","left","","","","","","","","","","","","","",""
"","","","","","survey-likert","113","408630","0.0-113.0","SS1678233204091","601b75077aa0425330b81e36","6406d7f26dd5b7fc1e3377bd","6407ce5fc8948e240c192951","1920","937","","2990","","{""Q0"":2}","[0]","complexity","media/stimuli/animate_008_right.png","animate","pair","right","","","","","","","","","","","","","",""
"","","","","","survey-likert","114","410688","0.0-114.0","SS1678233204091","601b75077aa0425330b81e36","6406d7f26dd5b7fc1e3377bd","6407ce5fc8948e240c192951","1920","937","","2052","","{""Q0"":2}","[0]","complexity","media/stimuli/inanimate_012_left.png","inanimate","single","left","","","","","","","","","","","","","",""
"","","","","","survey-likert","115","412978","0.0-115.0","SS1678233204091","601b75077aa0425330b81e36","6406d7f26dd5b7fc1e3377bd","6407ce5fc8948e240c192951","1920","937","","2285","","{""Q0"":2}","[0]","complexity","media/stimuli/inanimate_006_right.png","inanimate","single","right","","","","","","","","","","","","","",""
"","","","","","survey-likert","116","415510","0.0-116.0","SS1678233204091","601b75077aa0425330b81e36","6406d7f26dd5b7fc1e3377bd","6407ce5fc8948e240c192951","1920","937","","2527","","{""Q0"":2}","[0]","complexity","media/stimuli/animate_007_right.png","animate","single","right","","","","","","","","","","","","","",""
"","","","","","survey-likert","117","420083","0.0-117.0","SS1678233204091","601b75077aa0425330b81e36","6406d7f26dd5b7fc1e3377bd","6407ce5fc8948e240c192951","1920","937","","4568","","{""Q0"":2}","[0]","complexity","media/stimuli/animate_003_left.png","animate","single","left","","","","","","","","","","","","","",""
"","","","","","survey-likert","118","422614","0.0-118.0","SS1678233204091","601b75077aa0425330b81e36","6406d7f26dd5b7fc1e3377bd","6407ce5fc8948e240c192951","1920","937","","2524","","{""Q0"":2}","[0]","complexity","media/stimuli/inanimate_007_right.png","inanimate","single","right","","","","","","","","","","","","","",""
"","","","","","survey-likert","119","426543","0.0-119.0","SS1678233204091","601b75077aa0425330b81e36","6406d7f26dd5b7fc1e3377bd","6407ce5fc8948e240c192951","1920","937","","3923","","{""Q0"":2}","[0]","complexity","media/stimuli/animate_005_left.png","animate","single","left","","","","","","","","","","","","","",""
"","","","","","survey-likert","120","429346","0.0-120.0","SS1678233204091","601b75077aa0425330b81e36","6406d7f26dd5b7fc1e3377bd","6407ce5fc8948e240c192951","1920","937","","2797","","{""Q0"":2}","[0]","complexity","media/stimuli/animate_010_left.png","animate","pair","left","","","","","","","","","","","","","",""
"","","","","","survey-likert","121","432071","0.0-121.0","SS1678233204091","601b75077aa0425330b81e36","6406d7f26dd5b7fc1e3377bd","6407ce5fc8948e240c192951","1920","937","","2718","","{""Q0"":2}","[0]","complexity","media/stimuli/inanimate_010_left.png","inanimate","single","left","","","","","","","","","","","","","",""
