"success","timeout","failed_images","failed_audio","failed_video","trial_type","trial_index","time_elapsed","internal_node_id","subject","prolific_id","study","session","window_width","window_height","view_history","rt","stimulus_type","response","question_order","rating_type","stimulus","target","target_animacy","target_pose","target_number","left","left_animacy","left_pose","left_number","right","right_animacy","right_pose","right_number","comparison_type","rating_stimulus","rating_animacy","rating_number","rating_pose"
"true","false","[]","[]","[]","preload","0","11255","0.0-0.0","SS1678233244076","634265d4ff46e9c74d9fe152","6406d7f26dd5b7fc1e3377bd","6407ce81f9a506543d8f2dad","1294","747","","","","","","","","","","","","","","","","","","","","","","","",""
"","","","","","instructions","1","94809","0.0-1.0","SS1678233244076","634265d4ff46e9c74d9fe152","6406d7f26dd5b7fc1e3377bd","6407ce81f9a506543d8f2dad","1294","747","[{""page_index"":0,""viewing_time"":83553}]","83554","","","","","","","","","","","","","","","","","","","","","",""
"","","","","","instructions","2","100808","0.0-2.0","SS1678233244076","634265d4ff46e9c74d9fe152","6406d7f26dd5b7fc1e3377bd","6407ce81f9a506543d8f2dad","1294","747","[{""page_index"":0,""viewing_time"":3992}]","3993","instructions","","","","","","","","","","","","","","","","","","","","",""
"","","","","","instructions","3","102222","0.0-3.0","SS1678233244076","634265d4ff46e9c74d9fe152","6406d7f26dd5b7fc1e3377bd","6407ce81f9a506543d8f2dad","1294","747","[{""page_index"":0,""viewing_time"":1413}]","1413","instructions","","","","","","","","","","","","","","","","","","","","",""
"","","","","","survey-likert","4","110985","0.0-4.0","SS1678233244076","634265d4ff46e9c74d9fe152","6406d7f26dd5b7fc1e3377bd","6407ce81f9a506543d8f2dad","1294","747","","8761","","{""Q0"":3}","[0]","anchoring","","","","","","","","","","","","","","","","","",""
"","","","","","survey-likert","5","114932","0.0-5.0","SS1678233244076","634265d4ff46e9c74d9fe152","6406d7f26dd5b7fc1e3377bd","6407ce81f9a506543d8f2dad","1294","747","","3943","","{""Q0"":2}","[0]","anchoring","","","","","","","","","","","","","","","","","",""
"","","","","","instructions","6","116208","0.0-6.0","SS1678233244076","634265d4ff46e9c74d9fe152","6406d7f26dd5b7fc1e3377bd","6407ce81f9a506543d8f2dad","1294","747","[{""page_index"":0,""viewing_time"":1273}]","1273","instructions","","","","","","","","","","","","","","","","","","","","",""
"true","","","","","fullscreen","7","117984","0.0-7.0","SS1678233244076","634265d4ff46e9c74d9fe152","6406d7f26dd5b7fc1e3377bd","6407ce81f9a506543d8f2dad","1294","747","","","","","","","","","","","","","","","","","","","","","","","",""
"","","","","","html-keyboard-response","8","232660","0.0-8.0","SS1678233244076","634265d4ff46e9c74d9fe152","6406d7f26dd5b7fc1e3377bd","6407ce81f9a506543d8f2dad","1294","747","","114677","","j","","","<img src=""media/stimuli/animate_007_left.png"" class=""coveredImage test"" style = ""width:100px; height:100px; position:fixed; top:10%;    transform: translate(-50%, -50%);left:44.5%""></img><img src=""media/stimuli/animate_007_left.png"" class=""coveredImage test"" style = ""width:100px; height:100px; position:fixed; top:10%;    transform: translate(-50%, -50%);left:51.5%""></img><img src=""media/stimuli/animate_010_left.png"" class=""coveredImage test"" style = ""width:100px; height:100px;position:fixed; top:25%;        transform: translate(-50%, -50%);left:34.5%""></img><img src=""media/stimuli/animate_010_left.png"" class=""coveredImage test"" style = ""width:100px; height:100px;position:fixed; top:25%;        transform: translate(-50%, -50%);left:41.5%""></img><img src=""media/stimuli/animate_007_left.png"" class=""coveredImage test"" style = ""width:100px; height:100px;position:fixed; top:25%;        transform: translate(-50%, -50%);left:58%""></img><img src=""media/f.png""style = ""width:30px x; height:30px;position:fixed; top:43%;    transform: translate(-50%, -50%);left:40%""></img><img src=""media/j.png""style = ""width:30px; height:30px;position:fixed; top:43%;    transform: translate(-50%, -50%);left:60%""></img>","media/stimuli/animate_007_left.png","animate","left","pair","media/stimuli/animate_010_left.png","animate","left","pair","media/stimuli/animate_007_left.png","animate","left","single","identity_number","","","",""
"","","","","","html-keyboard-response","9","239376","0.0-9.0","SS1678233244076","634265d4ff46e9c74d9fe152","6406d7f26dd5b7fc1e3377bd","6407ce81f9a506543d8f2dad","1294","747","","6714","","j","","","<img src=""media/stimuli/animate_012_left.png"" class=""coveredImage test"" style = ""width:100px; height:100px; position:fixed; top:10%;    transform: translate(-50%, -50%);left:44.5%""></img><img src=""media/stimuli/animate_012_left.png"" class=""coveredImage test"" style = ""width:100px; height:100px; position:fixed; top:10%;    transform: translate(-50%, -50%);left:51.5%""></img><img src=""media/stimuli/inanimate_006_left.png"" class=""coveredImage test"" style = ""width:100px; height:100px;position:fixed; top:25%;        transform: translate(-50%, -50%);left:34.5%""></img><img src=""media/stimuli/inanimate_006_left.png"" class=""coveredImage test"" style = ""width:100px; height:100px;position:fixed; top:25%;        transform: translate(-50%, -50%);left:41.5%""></img><img src=""media/stimuli/animate_010_left.png"" class=""coveredImage test"" style = ""width:100px; height:100px;position:fixed; top:25%;        transform: translate(-50%, -50%);left:54.5%""></img><img src=""media/stimuli/animate_010_left.png"" class=""coveredImage test"" style = ""width:100px; height:100px;position:fixed; top:25%;        transform: translate(-50%, -50%);left:61.5%""></img><img src=""media/f.png""style = ""width:30px x; height:30px;position:fixed; top:43%;    transform: translate(-50%, -50%);left:40%""></img><img src=""media/j.png""style = ""width:30px; height:30px;position:fixed; top:43%;    transform: translate(-50%, -50%);left:60%""></img>","media/stimuli/animate_012_left.png","animate","left","pair","media/stimuli/inanimate_006_left.png","inanimate","left","pair","media/stimuli/animate_010_left.png","animate","left","pair","animacy_identity","","","",""
"","","","","","html-keyboard-response","10","241024","0.0-10.0","SS1678233244076","634265d4ff46e9c74d9fe152","6406d7f26dd5b7fc1e3377bd","6407ce81f9a506543d8f2dad","1294","747","","1646","","f","","","<img src=""media/stimuli/inanimate_006_left.png"" class=""coveredImage test"" style = ""width:100px; height:100px; position:fixed; top:10%;    transform: translate(-50%, -50%);left:48%""></img><img src=""media/stimuli/inanimate_007_left.png"" class=""coveredImage test"" style = ""width:100px; height:100px;position:fixed; top:25%;        transform: translate(-50%, -50%);left:38%""></img><img src=""media/stimuli/animate_008_left.png"" class=""coveredImage test"" style = ""width:100px; height:100px;position:fixed; top:25%;        transform: translate(-50%, -50%);left:58%""></img><img src=""media/f.png""style = ""width:30px x; height:30px;position:fixed; top:43%;    transform: translate(-50%, -50%);left:40%""></img><img src=""media/j.png""style = ""width:30px; height:30px;position:fixed; top:43%;    transform: translate(-50%, -50%);left:60%""></img>","media/stimuli/inanimate_006_left.png","inanimate","left","single","media/stimuli/inanimate_007_left.png","inanimate","left","single","media/stimuli/animate_008_left.png","animate","left","single","identity_animacy","","","",""
"","","","","","html-keyboard-response","11","244364","0.0-11.0","SS1678233244076","634265d4ff46e9c74d9fe152","6406d7f26dd5b7fc1e3377bd","6407ce81f9a506543d8f2dad","1294","747","","3339","","j","","","<img src=""media/stimuli/animate_002_right.png"" class=""coveredImage test"" style = ""width:100px; height:100px; position:fixed; top:10%;    transform: translate(-50%, -50%);left:44.5%""></img><img src=""media/stimuli/animate_002_right.png"" class=""coveredImage test"" style = ""width:100px; height:100px; position:fixed; top:10%;    transform: translate(-50%, -50%);left:51.5%""></img><img src=""media/stimuli/animate_002_left.png"" class=""coveredImage test"" style = ""width:100px; height:100px;position:fixed; top:25%;        transform: translate(-50%, -50%);left:34.5%""></img><img src=""media/stimuli/animate_002_left.png"" class=""coveredImage test"" style = ""width:100px; height:100px;position:fixed; top:25%;        transform: translate(-50%, -50%);left:41.5%""></img><img src=""media/stimuli/animate_012_right.png"" class=""coveredImage test"" style = ""width:100px; height:100px;position:fixed; top:25%;        transform: translate(-50%, -50%);left:54.5%""></img><img src=""media/stimuli/animate_012_right.png"" class=""coveredImage test"" style = ""width:100px; height:100px;position:fixed; top:25%;        transform: translate(-50%, -50%);left:61.5%""></img><img src=""media/f.png""style = ""width:30px x; height:30px;position:fixed; top:43%;    transform: translate(-50%, -50%);left:40%""></img><img src=""media/j.png""style = ""width:30px; height:30px;position:fixed; top:43%;    transform: translate(-50%, -50%);left:60%""></img>","media/stimuli/animate_002_right.png","animate","right","pair","media/stimuli/animate_002_left.png","animate","left","pair","media/stimuli/animate_012_right.png","animate","right","pair","pose_identity","","","",""
"","","","","","html-keyboard-response","12","248572","0.0-12.0","SS1678233244076","634265d4ff46e9c74d9fe152","6406d7f26dd5b7fc1e3377bd","6407ce81f9a506543d8f2dad","1294","747","","4207","","j","","","<img src=""media/stimuli/animate_001_right.png"" class=""coveredImage test"" style = ""width:100px; height:100px; position:fixed; top:10%;    transform: translate(-50%, -50%);left:44.5%""></img><img src=""media/stimuli/animate_001_right.png"" class=""coveredImage test"" style = ""width:100px; height:100px; position:fixed; top:10%;    transform: translate(-50%, -50%);left:51.5%""></img><img src=""media/stimuli/animate_002_right.png"" class=""coveredImage test"" style = ""width:100px; height:100px;position:fixed; top:25%;        transform: translate(-50%, -50%);left:34.5%""></img><img src=""media/stimuli/animate_002_right.png"" class=""coveredImage test"" style = ""width:100px; height:100px;position:fixed; top:25%;        transform: translate(-50%, -50%);left:41.5%""></img><img src=""media/stimuli/animate_001_right.png"" class=""coveredImage test"" style = ""width:100px; height:100px;position:fixed; top:25%;        transform: translate(-50%, -50%);left:58%""></img><img src=""media/f.png""style = ""width:30px x; height:30px;position:fixed; top:43%;    transform: translate(-50%, -50%);left:40%""></img><img src=""media/j.png""style = ""width:30px; height:30px;position:fixed; top:43%;    transform: translate(-50%, -50%);left:60%""></img>","media/stimuli/animate_001_right.png","animate","right","pair","media/stimuli/animate_002_right.png","animate","right","pair","media/stimuli/animate_001_right.png","animate","right","single","identity_number","","","",""
"","","","","","html-keyboard-response","13","250572","0.0-13.0","SS1678233244076","634265d4ff46e9c74d9fe152","6406d7f26dd5b7fc1e3377bd","6407ce81f9a506543d8f2dad","1294","747","","1998","","f","","","<img src=""media/stimuli/inanimate_005_left.png"" class=""coveredImage test"" style = ""width:100px; height:100px; position:fixed; top:10%;    transform: translate(-50%, -50%);left:48%""></img><img src=""media/stimuli/inanimate_006_left.png"" class=""coveredImage test"" style = ""width:100px; height:100px;position:fixed; top:25%;        transform: translate(-50%, -50%);left:38%""></img><img src=""media/stimuli/animate_009_left.png"" class=""coveredImage test"" style = ""width:100px; height:100px;position:fixed; top:25%;        transform: translate(-50%, -50%);left:58%""></img><img src=""media/f.png""style = ""width:30px x; height:30px;position:fixed; top:43%;    transform: translate(-50%, -50%);left:40%""></img><img src=""media/j.png""style = ""width:30px; height:30px;position:fixed; top:43%;    transform: translate(-50%, -50%);left:60%""></img>","media/stimuli/inanimate_005_left.png","inanimate","left","single","media/stimuli/inanimate_006_left.png","inanimate","left","single","media/stimuli/animate_009_left.png","animate","left","single","identity_animacy","","","",""
"","","","","","html-keyboard-response","14","255230","0.0-14.0","SS1678233244076","634265d4ff46e9c74d9fe152","6406d7f26dd5b7fc1e3377bd","6407ce81f9a506543d8f2dad","1294","747","","4656","","f","","","<img src=""media/stimuli/inanimate_012_left.png"" class=""coveredImage test"" style = ""width:100px; height:100px; position:fixed; top:10%;    transform: translate(-50%, -50%);left:48%""></img><img src=""media/stimuli/inanimate_012_right.png"" class=""coveredImage test"" style = ""width:100px; height:100px;position:fixed; top:25%;        transform: translate(-50%, -50%);left:34.5%""></img><img src=""media/stimuli/inanimate_012_right.png"" class=""coveredImage test"" style = ""width:100px; height:100px;position:fixed; top:25%;        transform: translate(-50%, -50%);left:41.5%""></img><img src=""media/stimuli/animate_006_left.png"" class=""coveredImage test"" style = ""width:100px; height:100px;position:fixed; top:25%;        transform: translate(-50%, -50%);left:54.5%""></img><img src=""media/stimuli/animate_006_left.png"" class=""coveredImage test"" style = ""width:100px; height:100px;position:fixed; top:25%;        transform: translate(-50%, -50%);left:61.5%""></img><img src=""media/f.png""style = ""width:30px x; height:30px;position:fixed; top:43%;    transform: translate(-50%, -50%);left:40%""></img><img src=""media/j.png""style = ""width:30px; height:30px;position:fixed; top:43%;    transform: translate(-50%, -50%);left:60%""></img>","media/stimuli/inanimate_012_left.png","inanimate","left","single","media/stimuli/inanimate_012_right.png","inanimate","right","pair","media/stimuli/animate_006_left.png","animate","left","pair","pose_animacy","","","",""
"","","","","","html-keyboard-response","15","258556","0.0-15.0","SS1678233244076","634265d4ff46e9c74d9fe152","6406d7f26dd5b7fc1e3377bd","6407ce81f9a506543d8f2dad","1294","747","","3324","","f","","","<img src=""media/stimuli/inanimate_011_right.png"" class=""coveredImage test"" style = ""width:100px; height:100px; position:fixed; top:10%;    transform: translate(-50%, -50%);left:48%""></img><img src=""media/stimuli/inanimate_010_right.png"" class=""coveredImage test"" style = ""width:100px; height:100px;position:fixed; top:25%;        transform: translate(-50%, -50%);left:38%""></img><img src=""media/stimuli/animate_005_right.png"" class=""coveredImage test"" style = ""width:100px; height:100px;position:fixed; top:25%;        transform: translate(-50%, -50%);left:58%""></img><img src=""media/f.png""style = ""width:30px x; height:30px;position:fixed; top:43%;    transform: translate(-50%, -50%);left:40%""></img><img src=""media/j.png""style = ""width:30px; height:30px;position:fixed; top:43%;    transform: translate(-50%, -50%);left:60%""></img>","media/stimuli/inanimate_011_right.png","inanimate","right","single","media/stimuli/inanimate_010_right.png","inanimate","right","single","media/stimuli/animate_005_right.png","animate","right","single","identity_animacy","","","",""
"","","","","","html-keyboard-response","16","260467","0.0-16.0","SS1678233244076","634265d4ff46e9c74d9fe152","6406d7f26dd5b7fc1e3377bd","6407ce81f9a506543d8f2dad","1294","747","","1909","","f","","","<img src=""media/stimuli/inanimate_002_left.png"" class=""coveredImage test"" style = ""width:100px; height:100px; position:fixed; top:10%;    transform: translate(-50%, -50%);left:44.5%""></img><img src=""media/stimuli/inanimate_002_left.png"" class=""coveredImage test"" style = ""width:100px; height:100px; position:fixed; top:10%;    transform: translate(-50%, -50%);left:51.5%""></img><img src=""media/stimuli/inanimate_002_left.png"" class=""coveredImage test"" style = ""width:100px; height:100px;position:fixed; top:25%;        transform: translate(-50%, -50%);left:38%""></img><img src=""media/stimuli/animate_004_left.png"" class=""coveredImage test"" style = ""width:100px; height:100px;position:fixed; top:25%;        transform: translate(-50%, -50%);left:54.5%""></img><img src=""media/stimuli/animate_004_left.png"" class=""coveredImage test"" style = ""width:100px; height:100px;position:fixed; top:25%;        transform: translate(-50%, -50%);left:61.5%""></img><img src=""media/f.png""style = ""width:30px x; height:30px;position:fixed; top:43%;    transform: translate(-50%, -50%);left:40%""></img><img src=""media/j.png""style = ""width:30px; height:30px;position:fixed; top:43%;    transform: translate(-50%, -50%);left:60%""></img>","media/stimuli/inanimate_002_left.png","inanimate","left","pair","media/stimuli/inanimate_002_left.png","inanimate","left","single","media/stimuli/animate_004_left.png","animate","left","pair","number_animacy","","","",""
"","","","","","html-keyboard-response","17","262420","0.0-17.0","SS1678233244076","634265d4ff46e9c74d9fe152","6406d7f26dd5b7fc1e3377bd","6407ce81f9a506543d8f2dad","1294","747","","1951","","j","","","<img src=""media/stimuli/animate_011_left.png"" class=""coveredImage test"" style = ""width:100px; height:100px; position:fixed; top:10%;    transform: translate(-50%, -50%);left:44.5%""></img><img src=""media/stimuli/animate_011_left.png"" class=""coveredImage test"" style = ""width:100px; height:100px; position:fixed; top:10%;    transform: translate(-50%, -50%);left:51.5%""></img><img src=""media/stimuli/animate_011_right.png"" class=""coveredImage test"" style = ""width:100px; height:100px;position:fixed; top:25%;        transform: translate(-50%, -50%);left:34.5%""></img><img src=""media/stimuli/animate_011_right.png"" class=""coveredImage test"" style = ""width:100px; height:100px;position:fixed; top:25%;        transform: translate(-50%, -50%);left:41.5%""></img><img src=""media/stimuli/animate_011_left.png"" class=""coveredImage test"" style = ""width:100px; height:100px;position:fixed; top:25%;        transform: translate(-50%, -50%);left:58%""></img><img src=""media/f.png""style = ""width:30px x; height:30px;position:fixed; top:43%;    transform: translate(-50%, -50%);left:40%""></img><img src=""media/j.png""style = ""width:30px; height:30px;position:fixed; top:43%;    transform: translate(-50%, -50%);left:60%""></img>","media/stimuli/animate_011_left.png","animate","left","pair","media/stimuli/animate_011_right.png","animate","right","pair","media/stimuli/animate_011_left.png","animate","left","single","pose_number","","","",""
"","","","","","html-keyboard-response","18","264963","0.0-18.0","SS1678233244076","634265d4ff46e9c74d9fe152","6406d7f26dd5b7fc1e3377bd","6407ce81f9a506543d8f2dad","1294","747","","2541","","j","","","<img src=""media/stimuli/animate_005_left.png"" class=""coveredImage test"" style = ""width:100px; height:100px; position:fixed; top:10%;    transform: translate(-50%, -50%);left:48%""></img><img src=""media/stimuli/animate_005_right.png"" class=""coveredImage test"" style = ""width:100px; height:100px;position:fixed; top:25%;        transform: translate(-50%, -50%);left:38%""></img><img src=""media/stimuli/animate_003_left.png"" class=""coveredImage test"" style = ""width:100px; height:100px;position:fixed; top:25%;        transform: translate(-50%, -50%);left:58%""></img><img src=""media/f.png""style = ""width:30px x; height:30px;position:fixed; top:43%;    transform: translate(-50%, -50%);left:40%""></img><img src=""media/j.png""style = ""width:30px; height:30px;position:fixed; top:43%;    transform: translate(-50%, -50%);left:60%""></img>","media/stimuli/animate_005_left.png","animate","left","single","media/stimuli/animate_005_right.png","animate","right","single","media/stimuli/animate_003_left.png","animate","left","single","pose_identity","","","",""
"","","","","","html-keyboard-response","19","273063","0.0-19.0","SS1678233244076","634265d4ff46e9c74d9fe152","6406d7f26dd5b7fc1e3377bd","6407ce81f9a506543d8f2dad","1294","747","","8098","","f","","","<img src=""media/stimuli/inanimate_009_right.png"" class=""coveredImage test"" style = ""width:100px; height:100px; position:fixed; top:10%;    transform: translate(-50%, -50%);left:44.5%""></img><img src=""media/stimuli/inanimate_009_right.png"" class=""coveredImage test"" style = ""width:100px; height:100px; position:fixed; top:10%;    transform: translate(-50%, -50%);left:51.5%""></img><img src=""media/stimuli/inanimate_009_right.png"" class=""coveredImage test"" style = ""width:100px; height:100px;position:fixed; top:25%;        transform: translate(-50%, -50%);left:38%""></img><img src=""media/stimuli/inanimate_009_left.png"" class=""coveredImage test"" style = ""width:100px; height:100px;position:fixed; top:25%;        transform: translate(-50%, -50%);left:54.5%""></img><img src=""media/stimuli/inanimate_009_left.png"" class=""coveredImage test"" style = ""width:100px; height:100px;position:fixed; top:25%;        transform: translate(-50%, -50%);left:61.5%""></img><img src=""media/f.png""style = ""width:30px x; height:30px;position:fixed; top:43%;    transform: translate(-50%, -50%);left:40%""></img><img src=""media/j.png""style = ""width:30px; height:30px;position:fixed; top:43%;    transform: translate(-50%, -50%);left:60%""></img>","media/stimuli/inanimate_009_right.png","inanimate","right","pair","media/stimuli/inanimate_009_right.png","inanimate","right","single","media/stimuli/inanimate_009_left.png","inanimate","left","pair","number_pose","","","",""
"","","","","","html-keyboard-response","20","275427","0.0-20.0","SS1678233244076","634265d4ff46e9c74d9fe152","6406d7f26dd5b7fc1e3377bd","6407ce81f9a506543d8f2dad","1294","747","","2363","","j","","","","","","","","","","","","","","","","","","","",""
"","","","","","html-keyboard-response","21","277365","0.0-21.0","SS1678233244076","634265d4ff46e9c74d9fe152","6406d7f26dd5b7fc1e3377bd","6407ce81f9a506543d8f2dad","1294","747","","1935","","j","","","<img src=""media/stimuli/inanimate_004_left.png"" class=""coveredImage test"" style = ""width:100px; height:100px; position:fixed; top:10%;    transform: translate(-50%, -50%);left:44.5%""></img><img src=""media/stimuli/inanimate_004_left.png"" class=""coveredImage test"" style = ""width:100px; height:100px; position:fixed; top:10%;    transform: translate(-50%, -50%);left:51.5%""></img><img src=""media/stimuli/inanimate_009_left.png"" class=""coveredImage test"" style = ""width:100px; height:100px;position:fixed; top:25%;        transform: translate(-50%, -50%);left:34.5%""></img><img src=""media/stimuli/inanimate_009_left.png"" class=""coveredImage test"" style = ""width:100px; height:100px;position:fixed; top:25%;        transform: translate(-50%, -50%);left:41.5%""></img><img src=""media/stimuli/inanimate_004_left.png"" class=""coveredImage test"" style = ""width:100px; height:100px;position:fixed; top:25%;        transform: translate(-50%, -50%);left:58%""></img><img src=""media/f.png""style = ""width:30px x; height:30px;position:fixed; top:43%;    transform: translate(-50%, -50%);left:40%""></img><img src=""media/j.png""style = ""width:30px; height:30px;position:fixed; top:43%;    transform: translate(-50%, -50%);left:60%""></img>","media/stimuli/inanimate_004_left.png","inanimate","left","pair","media/stimuli/inanimate_009_left.png","inanimate","left","pair","media/stimuli/inanimate_004_left.png","inanimate","left","single","identity_number","","","",""
"","","","","","html-keyboard-response","22","278949","0.0-22.0","SS1678233244076","634265d4ff46e9c74d9fe152","6406d7f26dd5b7fc1e3377bd","6407ce81f9a506543d8f2dad","1294","747","","1582","","j","","","<img src=""media/stimuli/animate_012_left.png"" class=""coveredImage test"" style = ""width:100px; height:100px; position:fixed; top:10%;    transform: translate(-50%, -50%);left:48%""></img><img src=""media/stimuli/animate_012_right.png"" class=""coveredImage test"" style = ""width:100px; height:100px;position:fixed; top:25%;        transform: translate(-50%, -50%);left:38%""></img><img src=""media/stimuli/animate_001_left.png"" class=""coveredImage test"" style = ""width:100px; height:100px;position:fixed; top:25%;        transform: translate(-50%, -50%);left:58%""></img><img src=""media/f.png""style = ""width:30px x; height:30px;position:fixed; top:43%;    transform: translate(-50%, -50%);left:40%""></img><img src=""media/j.png""style = ""width:30px; height:30px;position:fixed; top:43%;    transform: translate(-50%, -50%);left:60%""></img>","media/stimuli/animate_012_left.png","animate","left","single","media/stimuli/animate_012_right.png","animate","right","single","media/stimuli/animate_001_left.png","animate","left","single","pose_identity","","","",""
"","","","","","html-keyboard-response","23","280466","0.0-23.0","SS1678233244076","634265d4ff46e9c74d9fe152","6406d7f26dd5b7fc1e3377bd","6407ce81f9a506543d8f2dad","1294","747","","1515","","f","","","<img src=""media/stimuli/animate_009_left.png"" class=""coveredImage test"" style = ""width:100px; height:100px; position:fixed; top:10%;    transform: translate(-50%, -50%);left:44.5%""></img><img src=""media/stimuli/animate_009_left.png"" class=""coveredImage test"" style = ""width:100px; height:100px; position:fixed; top:10%;    transform: translate(-50%, -50%);left:51.5%""></img><img src=""media/stimuli/animate_009_left.png"" class=""coveredImage test"" style = ""width:100px; height:100px;position:fixed; top:25%;        transform: translate(-50%, -50%);left:38%""></img><img src=""media/stimuli/animate_011_left.png"" class=""coveredImage test"" style = ""width:100px; height:100px;position:fixed; top:25%;        transform: translate(-50%, -50%);left:54.5%""></img><img src=""media/stimuli/animate_011_left.png"" class=""coveredImage test"" style = ""width:100px; height:100px;position:fixed; top:25%;        transform: translate(-50%, -50%);left:61.5%""></img><img src=""media/f.png""style = ""width:30px x; height:30px;position:fixed; top:43%;    transform: translate(-50%, -50%);left:40%""></img><img src=""media/j.png""style = ""width:30px; height:30px;position:fixed; top:43%;    transform: translate(-50%, -50%);left:60%""></img>","media/stimuli/animate_009_left.png","animate","left","pair","media/stimuli/animate_009_left.png","animate","left","single","media/stimuli/animate_011_left.png","animate","left","pair","number_identity","","","",""
"","","","","","html-keyboard-response","24","282126","0.0-24.0","SS1678233244076","634265d4ff46e9c74d9fe152","6406d7f26dd5b7fc1e3377bd","6407ce81f9a506543d8f2dad","1294","747","","1658","","f","","","<img src=""media/stimuli/inanimate_008_left.png"" class=""coveredImage test"" style = ""width:100px; height:100px; position:fixed; top:10%;    transform: translate(-50%, -50%);left:44.5%""></img><img src=""media/stimuli/inanimate_008_left.png"" class=""coveredImage test"" style = ""width:100px; height:100px; position:fixed; top:10%;    transform: translate(-50%, -50%);left:51.5%""></img><img src=""media/stimuli/inanimate_008_left.png"" class=""coveredImage test"" style = ""width:100px; height:100px;position:fixed; top:25%;        transform: translate(-50%, -50%);left:38%""></img><img src=""media/stimuli/animate_005_left.png"" class=""coveredImage test"" style = ""width:100px; height:100px;position:fixed; top:25%;        transform: translate(-50%, -50%);left:54.5%""></img><img src=""media/stimuli/animate_005_left.png"" class=""coveredImage test"" style = ""width:100px; height:100px;position:fixed; top:25%;        transform: translate(-50%, -50%);left:61.5%""></img><img src=""media/f.png""style = ""width:30px x; height:30px;position:fixed; top:43%;    transform: translate(-50%, -50%);left:40%""></img><img src=""media/j.png""style = ""width:30px; height:30px;position:fixed; top:43%;    transform: translate(-50%, -50%);left:60%""></img>","media/stimuli/inanimate_008_left.png","inanimate","left","pair","media/stimuli/inanimate_008_left.png","inanimate","left","single","media/stimuli/animate_005_left.png","animate","left","pair","number_animacy","","","",""
"","","","","","html-keyboard-response","25","284245","0.0-25.0","SS1678233244076","634265d4ff46e9c74d9fe152","6406d7f26dd5b7fc1e3377bd","6407ce81f9a506543d8f2dad","1294","747","","2117","","f","","","<img src=""media/stimuli/inanimate_001_left.png"" class=""coveredImage test"" style = ""width:100px; height:100px; position:fixed; top:10%;    transform: translate(-50%, -50%);left:48%""></img><img src=""media/stimuli/inanimate_001_left.png"" class=""coveredImage test"" style = ""width:100px; height:100px;position:fixed; top:25%;        transform: translate(-50%, -50%);left:34.5%""></img><img src=""media/stimuli/inanimate_001_left.png"" class=""coveredImage test"" style = ""width:100px; height:100px;position:fixed; top:25%;        transform: translate(-50%, -50%);left:41.5%""></img><img src=""media/stimuli/inanimate_001_right.png"" class=""coveredImage test"" style = ""width:100px; height:100px;position:fixed; top:25%;        transform: translate(-50%, -50%);left:58%""></img><img src=""media/f.png""style = ""width:30px x; height:30px;position:fixed; top:43%;    transform: translate(-50%, -50%);left:40%""></img><img src=""media/j.png""style = ""width:30px; height:30px;position:fixed; top:43%;    transform: translate(-50%, -50%);left:60%""></img>","media/stimuli/inanimate_001_left.png","inanimate","left","single","media/stimuli/inanimate_001_left.png","inanimate","left","pair","media/stimuli/inanimate_001_right.png","inanimate","right","single","number_pose","","","",""
"","","","","","html-keyboard-response","26","285499","0.0-26.0","SS1678233244076","634265d4ff46e9c74d9fe152","6406d7f26dd5b7fc1e3377bd","6407ce81f9a506543d8f2dad","1294","747","","1252","","j","","","<img src=""media/stimuli/animate_008_left.png"" class=""coveredImage test"" style = ""width:100px; height:100px; position:fixed; top:10%;    transform: translate(-50%, -50%);left:48%""></img><img src=""media/stimuli/animate_005_left.png"" class=""coveredImage test"" style = ""width:100px; height:100px;position:fixed; top:25%;        transform: translate(-50%, -50%);left:38%""></img><img src=""media/stimuli/animate_008_left.png"" class=""coveredImage test"" style = ""width:100px; height:100px;position:fixed; top:25%;        transform: translate(-50%, -50%);left:54.5%""></img><img src=""media/stimuli/animate_008_left.png"" class=""coveredImage test"" style = ""width:100px; height:100px;position:fixed; top:25%;        transform: translate(-50%, -50%);left:61.5%""></img><img src=""media/f.png""style = ""width:30px x; height:30px;position:fixed; top:43%;    transform: translate(-50%, -50%);left:40%""></img><img src=""media/j.png""style = ""width:30px; height:30px;position:fixed; top:43%;    transform: translate(-50%, -50%);left:60%""></img>","media/stimuli/animate_008_left.png","animate","left","single","media/stimuli/animate_005_left.png","animate","left","single","media/stimuli/animate_008_left.png","animate","left","pair","identity_number","","","",""
"","","","","","html-keyboard-response","27","287434","0.0-27.0","SS1678233244076","634265d4ff46e9c74d9fe152","6406d7f26dd5b7fc1e3377bd","6407ce81f9a506543d8f2dad","1294","747","","1933","","f","","","<img src=""media/stimuli/inanimate_009_left.png"" class=""coveredImage test"" style = ""width:100px; height:100px; position:fixed; top:10%;    transform: translate(-50%, -50%);left:48%""></img><img src=""media/stimuli/inanimate_011_left.png"" class=""coveredImage test"" style = ""width:100px; height:100px;position:fixed; top:25%;        transform: translate(-50%, -50%);left:38%""></img><img src=""media/stimuli/animate_010_left.png"" class=""coveredImage test"" style = ""width:100px; height:100px;position:fixed; top:25%;        transform: translate(-50%, -50%);left:58%""></img><img src=""media/f.png""style = ""width:30px x; height:30px;position:fixed; top:43%;    transform: translate(-50%, -50%);left:40%""></img><img src=""media/j.png""style = ""width:30px; height:30px;position:fixed; top:43%;    transform: translate(-50%, -50%);left:60%""></img>","media/stimuli/inanimate_009_left.png","inanimate","left","single","media/stimuli/inanimate_011_left.png","inanimate","left","single","media/stimuli/animate_010_left.png","animate","left","single","identity_animacy","","","",""
"","","","","","html-keyboard-response","28","288549","0.0-28.0","SS1678233244076","634265d4ff46e9c74d9fe152","6406d7f26dd5b7fc1e3377bd","6407ce81f9a506543d8f2dad","1294","747","","1113","","j","","","<img src=""media/stimuli/animate_010_right.png"" class=""coveredImage test"" style = ""width:100px; height:100px; position:fixed; top:10%;    transform: translate(-50%, -50%);left:48%""></img><img src=""media/stimuli/inanimate_009_right.png"" class=""coveredImage test"" style = ""width:100px; height:100px;position:fixed; top:25%;        transform: translate(-50%, -50%);left:38%""></img><img src=""media/stimuli/animate_010_right.png"" class=""coveredImage test"" style = ""width:100px; height:100px;position:fixed; top:25%;        transform: translate(-50%, -50%);left:54.5%""></img><img src=""media/stimuli/animate_010_right.png"" class=""coveredImage test"" style = ""width:100px; height:100px;position:fixed; top:25%;        transform: translate(-50%, -50%);left:61.5%""></img><img src=""media/f.png""style = ""width:30px x; height:30px;position:fixed; top:43%;    transform: translate(-50%, -50%);left:40%""></img><img src=""media/j.png""style = ""width:30px; height:30px;position:fixed; top:43%;    transform: translate(-50%, -50%);left:60%""></img>","media/stimuli/animate_010_right.png","animate","right","single","media/stimuli/inanimate_009_right.png","inanimate","right","single","media/stimuli/animate_010_right.png","animate","right","pair","animacy_number","","","",""
"","","","","","html-keyboard-response","29","290186","0.0-29.0","SS1678233244076","634265d4ff46e9c74d9fe152","6406d7f26dd5b7fc1e3377bd","6407ce81f9a506543d8f2dad","1294","747","","1634","","f","","","<img src=""media/stimuli/animate_001_right.png"" class=""coveredImage test"" style = ""width:100px; height:100px; position:fixed; top:10%;    transform: translate(-50%, -50%);left:44.5%""></img><img src=""media/stimuli/animate_001_right.png"" class=""coveredImage test"" style = ""width:100px; height:100px; position:fixed; top:10%;    transform: translate(-50%, -50%);left:51.5%""></img><img src=""media/stimuli/animate_001_right.png"" class=""coveredImage test"" style = ""width:100px; height:100px;position:fixed; top:25%;        transform: translate(-50%, -50%);left:34.5%""></img><img src=""media/stimuli/animate_001_right.png"" class=""coveredImage test"" style = ""width:100px; height:100px;position:fixed; top:25%;        transform: translate(-50%, -50%);left:41.5%""></img><img src=""media/stimuli/animate_001_right.png"" class=""coveredImage test"" style = ""width:100px; height:100px;position:fixed; top:25%;        transform: translate(-50%, -50%);left:58%""></img><img src=""media/f.png""style = ""width:30px x; height:30px;position:fixed; top:43%;    transform: translate(-50%, -50%);left:40%""></img><img src=""media/j.png""style = ""width:30px; height:30px;position:fixed; top:43%;    transform: translate(-50%, -50%);left:60%""></img>","media/stimuli/animate_001_right.png","animate","right","pair","media/stimuli/animate_001_right.png","animate","right","pair","media/stimuli/animate_001_right.png","animate","right","single","filler_number","","","",""
"","","","","","html-keyboard-response","30","292930","0.0-30.0","SS1678233244076","634265d4ff46e9c74d9fe152","6406d7f26dd5b7fc1e3377bd","6407ce81f9a506543d8f2dad","1294","747","","2742","","j","","","<img src=""media/stimuli/inanimate_006_left.png"" class=""coveredImage test"" style = ""width:100px; height:100px; position:fixed; top:10%;    transform: translate(-50%, -50%);left:48%""></img><img src=""media/stimuli/animate_012_left.png"" class=""coveredImage test"" style = ""width:100px; height:100px;position:fixed; top:25%;        transform: translate(-50%, -50%);left:38%""></img><img src=""media/stimuli/inanimate_006_left.png"" class=""coveredImage test"" style = ""width:100px; height:100px;position:fixed; top:25%;        transform: translate(-50%, -50%);left:54.5%""></img><img src=""media/stimuli/inanimate_006_left.png"" class=""coveredImage test"" style = ""width:100px; height:100px;position:fixed; top:25%;        transform: translate(-50%, -50%);left:61.5%""></img><img src=""media/f.png""style = ""width:30px x; height:30px;position:fixed; top:43%;    transform: translate(-50%, -50%);left:40%""></img><img src=""media/j.png""style = ""width:30px; height:30px;position:fixed; top:43%;    transform: translate(-50%, -50%);left:60%""></img>","media/stimuli/inanimate_006_left.png","inanimate","left","single","media/stimuli/animate_012_left.png","animate","left","single","media/stimuli/inanimate_006_left.png","inanimate","left","pair","animacy_number","","","",""
"","","","","","html-keyboard-response","31","294598","0.0-31.0","SS1678233244076","634265d4ff46e9c74d9fe152","6406d7f26dd5b7fc1e3377bd","6407ce81f9a506543d8f2dad","1294","747","","1666","","f","","","<img src=""media/stimuli/animate_010_left.png"" class=""coveredImage test"" style = ""width:100px; height:100px; position:fixed; top:10%;    transform: translate(-50%, -50%);left:44.5%""></img><img src=""media/stimuli/animate_010_left.png"" class=""coveredImage test"" style = ""width:100px; height:100px; position:fixed; top:10%;    transform: translate(-50%, -50%);left:51.5%""></img><img src=""media/stimuli/inanimate_007_left.png"" class=""coveredImage test"" style = ""width:100px; height:100px;position:fixed; top:25%;        transform: translate(-50%, -50%);left:38%""></img><img src=""media/stimuli/animate_010_right.png"" class=""coveredImage test"" style = ""width:100px; height:100px;position:fixed; top:25%;        transform: translate(-50%, -50%);left:58%""></img><img src=""media/f.png""style = ""width:30px x; height:30px;position:fixed; top:43%;    transform: translate(-50%, -50%);left:40%""></img><img src=""media/j.png""style = ""width:30px; height:30px;position:fixed; top:43%;    transform: translate(-50%, -50%);left:60%""></img>","media/stimuli/animate_010_left.png","animate","left","pair","media/stimuli/inanimate_007_left.png","inanimate","left","single","media/stimuli/animate_010_right.png","animate","right","single","animacy_pose","","","",""
"","","","","","html-keyboard-response","32","297178","0.0-32.0","SS1678233244076","634265d4ff46e9c74d9fe152","6406d7f26dd5b7fc1e3377bd","6407ce81f9a506543d8f2dad","1294","747","","2577","","j","","","<img src=""media/stimuli/inanimate_007_left.png"" class=""coveredImage test"" style = ""width:100px; height:100px; position:fixed; top:10%;    transform: translate(-50%, -50%);left:48%""></img><img src=""media/stimuli/inanimate_007_right.png"" class=""coveredImage test"" style = ""width:100px; height:100px;position:fixed; top:25%;        transform: translate(-50%, -50%);left:38%""></img><img src=""media/stimuli/inanimate_009_left.png"" class=""coveredImage test"" style = ""width:100px; height:100px;position:fixed; top:25%;        transform: translate(-50%, -50%);left:58%""></img><img src=""media/f.png""style = ""width:30px x; height:30px;position:fixed; top:43%;    transform: translate(-50%, -50%);left:40%""></img><img src=""media/j.png""style = ""width:30px; height:30px;position:fixed; top:43%;    transform: translate(-50%, -50%);left:60%""></img>","media/stimuli/inanimate_007_left.png","inanimate","left","single","media/stimuli/inanimate_007_right.png","inanimate","right","single","media/stimuli/inanimate_009_left.png","inanimate","left","single","pose_identity","","","",""
"","","","","","html-keyboard-response","33","298306","0.0-33.0","SS1678233244076","634265d4ff46e9c74d9fe152","6406d7f26dd5b7fc1e3377bd","6407ce81f9a506543d8f2dad","1294","747","","1126","","j","","","","","","","","","","","","","","","","","","","",""
"","","","","","survey-likert","34","302177","0.0-34.0","SS1678233244076","634265d4ff46e9c74d9fe152","6406d7f26dd5b7fc1e3377bd","6407ce81f9a506543d8f2dad","1294","747","","3867","","{""Q0"":3}","[0]","complexity","","","","","","","","","","","","","","","media/stimuli/animate_004_right.png","animate","pair","right"
"","","","","","survey-likert","35","304435","0.0-35.0","SS1678233244076","634265d4ff46e9c74d9fe152","6406d7f26dd5b7fc1e3377bd","6407ce81f9a506543d8f2dad","1294","747","","2252","","{""Q0"":3}","[0]","complexity","","","","","","","","","","","","","","","media/stimuli/animate_012_left.png","animate","pair","left"
"","","","","","survey-likert","36","307035","0.0-36.0","SS1678233244076","634265d4ff46e9c74d9fe152","6406d7f26dd5b7fc1e3377bd","6407ce81f9a506543d8f2dad","1294","747","","2596","","{""Q0"":3}","[0]","complexity","","","","","","","","","","","","","","","media/stimuli/animate_012_right.png","animate","single","right"
"","","","","","survey-likert","37","308602","0.0-37.0","SS1678233244076","634265d4ff46e9c74d9fe152","6406d7f26dd5b7fc1e3377bd","6407ce81f9a506543d8f2dad","1294","747","","1563","","{""Q0"":3}","[0]","complexity","","","","","","","","","","","","","","","media/stimuli/animate_008_right.png","animate","single","right"
"","","","","","survey-likert","38","311200","0.0-38.0","SS1678233244076","634265d4ff46e9c74d9fe152","6406d7f26dd5b7fc1e3377bd","6407ce81f9a506543d8f2dad","1294","747","","2593","","{""Q0"":3}","[0]","complexity","","","","","","","","","","","","","","","media/stimuli/animate_003_left.png","animate","single","left"
"","","","","","survey-likert","39","312886","0.0-39.0","SS1678233244076","634265d4ff46e9c74d9fe152","6406d7f26dd5b7fc1e3377bd","6407ce81f9a506543d8f2dad","1294","747","","1682","","{""Q0"":3}","[0]","complexity","","","","","","","","","","","","","","","media/stimuli/animate_005_right.png","animate","single","right"
"","","","","","survey-likert","40","314653","0.0-40.0","SS1678233244076","634265d4ff46e9c74d9fe152","6406d7f26dd5b7fc1e3377bd","6407ce81f9a506543d8f2dad","1294","747","","1763","","{""Q0"":3}","[0]","complexity","","","","","","","","","","","","","","","media/stimuli/animate_007_right.png","animate","pair","right"
"","","","","","survey-likert","41","316181","0.0-41.0","SS1678233244076","634265d4ff46e9c74d9fe152","6406d7f26dd5b7fc1e3377bd","6407ce81f9a506543d8f2dad","1294","747","","1523","","{""Q0"":3}","[0]","complexity","","","","","","","","","","","","","","","media/stimuli/inanimate_006_right.png","inanimate","single","right"
"","","","","","survey-likert","42","317803","0.0-42.0","SS1678233244076","634265d4ff46e9c74d9fe152","6406d7f26dd5b7fc1e3377bd","6407ce81f9a506543d8f2dad","1294","747","","1617","","{""Q0"":3}","[0]","complexity","","","","","","","","","","","","","","","media/stimuli/animate_011_left.png","animate","single","left"
"","","","","","survey-likert","43","321141","0.0-43.0","SS1678233244076","634265d4ff46e9c74d9fe152","6406d7f26dd5b7fc1e3377bd","6407ce81f9a506543d8f2dad","1294","747","","3333","","{""Q0"":2}","[0]","complexity","","","","","","","","","","","","","","","media/stimuli/animate_001_right.png","animate","single","right"
"","","","","","survey-likert","44","322960","0.0-44.0","SS1678233244076","634265d4ff46e9c74d9fe152","6406d7f26dd5b7fc1e3377bd","6407ce81f9a506543d8f2dad","1294","747","","1815","","{""Q0"":2}","[0]","complexity","","","","","","","","","","","","","","","media/stimuli/animate_005_right.png","animate","pair","right"
"","","","","","survey-likert","45","324592","0.0-45.0","SS1678233244076","634265d4ff46e9c74d9fe152","6406d7f26dd5b7fc1e3377bd","6407ce81f9a506543d8f2dad","1294","747","","1628","","{""Q0"":2}","[0]","complexity","","","","","","","","","","","","","","","media/stimuli/inanimate_010_left.png","inanimate","single","left"
"","","","","","html-keyboard-response","46","326162","0.0-46.0","SS1678233244076","634265d4ff46e9c74d9fe152","6406d7f26dd5b7fc1e3377bd","6407ce81f9a506543d8f2dad","1294","747","","1565","","j","","","","","","","","","","","","","","","","","","","",""
"","","","","","html-keyboard-response","47","328363","0.0-47.0","SS1678233244076","634265d4ff46e9c74d9fe152","6406d7f26dd5b7fc1e3377bd","6407ce81f9a506543d8f2dad","1294","747","","2197","","f","","","<img src=""media/stimuli/inanimate_012_right.png"" class=""coveredImage test"" style = ""width:100px; height:100px; position:fixed; top:10%;    transform: translate(-50%, -50%);left:44.5%""></img><img src=""media/stimuli/inanimate_012_right.png"" class=""coveredImage test"" style = ""width:100px; height:100px; position:fixed; top:10%;    transform: translate(-50%, -50%);left:51.5%""></img><img src=""media/stimuli/inanimate_012_right.png"" class=""coveredImage test"" style = ""width:100px; height:100px;position:fixed; top:25%;        transform: translate(-50%, -50%);left:38%""></img><img src=""media/stimuli/inanimate_012_left.png"" class=""coveredImage test"" style = ""width:100px; height:100px;position:fixed; top:25%;        transform: translate(-50%, -50%);left:54.5%""></img><img src=""media/stimuli/inanimate_012_left.png"" class=""coveredImage test"" style = ""width:100px; height:100px;position:fixed; top:25%;        transform: translate(-50%, -50%);left:61.5%""></img><img src=""media/f.png""style = ""width:30px x; height:30px;position:fixed; top:43%;    transform: translate(-50%, -50%);left:40%""></img><img src=""media/j.png""style = ""width:30px; height:30px;position:fixed; top:43%;    transform: translate(-50%, -50%);left:60%""></img>","media/stimuli/inanimate_012_right.png","inanimate","right","pair","media/stimuli/inanimate_012_right.png","inanimate","right","single","media/stimuli/inanimate_012_left.png","inanimate","left","pair","number_pose","","","",""
"","","","","","html-keyboard-response","48","329793","0.0-48.0","SS1678233244076","634265d4ff46e9c74d9fe152","6406d7f26dd5b7fc1e3377bd","6407ce81f9a506543d8f2dad","1294","747","","1427","","f","","","<img src=""media/stimuli/animate_007_right.png"" class=""coveredImage test"" style = ""width:100px; height:100px; position:fixed; top:10%;    transform: translate(-50%, -50%);left:48%""></img><img src=""media/stimuli/animate_003_right.png"" class=""coveredImage test"" style = ""width:100px; height:100px;position:fixed; top:25%;        transform: translate(-50%, -50%);left:38%""></img><img src=""media/stimuli/inanimate_006_right.png"" class=""coveredImage test"" style = ""width:100px; height:100px;position:fixed; top:25%;        transform: translate(-50%, -50%);left:58%""></img><img src=""media/f.png""style = ""width:30px x; height:30px;position:fixed; top:43%;    transform: translate(-50%, -50%);left:40%""></img><img src=""media/j.png""style = ""width:30px; height:30px;position:fixed; top:43%;    transform: translate(-50%, -50%);left:60%""></img>","media/stimuli/animate_007_right.png","animate","right","single","media/stimuli/animate_003_right.png","animate","right","single","media/stimuli/inanimate_006_right.png","inanimate","right","single","identity_animacy","","","",""
"","","","","","html-keyboard-response","49","331114","0.0-49.0","SS1678233244076","634265d4ff46e9c74d9fe152","6406d7f26dd5b7fc1e3377bd","6407ce81f9a506543d8f2dad","1294","747","","1318","","f","","","<img src=""media/stimuli/animate_003_left.png"" class=""coveredImage test"" style = ""width:100px; height:100px; position:fixed; top:10%;    transform: translate(-50%, -50%);left:48%""></img><img src=""media/stimuli/animate_003_left.png"" class=""coveredImage test"" style = ""width:100px; height:100px;position:fixed; top:25%;        transform: translate(-50%, -50%);left:34.5%""></img><img src=""media/stimuli/animate_003_left.png"" class=""coveredImage test"" style = ""width:100px; height:100px;position:fixed; top:25%;        transform: translate(-50%, -50%);left:41.5%""></img><img src=""media/stimuli/inanimate_008_right.png"" class=""coveredImage test"" style = ""width:100px; height:100px;position:fixed; top:25%;        transform: translate(-50%, -50%);left:54.5%""></img><img src=""media/stimuli/inanimate_008_right.png"" class=""coveredImage test"" style = ""width:100px; height:100px;position:fixed; top:25%;        transform: translate(-50%, -50%);left:61.5%""></img><img src=""media/f.png""style = ""width:30px x; height:30px;position:fixed; top:43%;    transform: translate(-50%, -50%);left:40%""></img><img src=""media/j.png""style = ""width:30px; height:30px;position:fixed; top:43%;    transform: translate(-50%, -50%);left:60%""></img>","media/stimuli/animate_003_left.png","animate","left","single","media/stimuli/animate_003_left.png","animate","left","pair","media/stimuli/inanimate_008_right.png","inanimate","right","pair","pose_animacy","","","",""
"","","","","","html-keyboard-response","50","333481","0.0-50.0","SS1678233244076","634265d4ff46e9c74d9fe152","6406d7f26dd5b7fc1e3377bd","6407ce81f9a506543d8f2dad","1294","747","","2365","","f","","","<img src=""media/stimuli/inanimate_004_right.png"" class=""coveredImage test"" style = ""width:100px; height:100px; position:fixed; top:10%;    transform: translate(-50%, -50%);left:48%""></img><img src=""media/stimuli/inanimate_006_right.png"" class=""coveredImage test"" style = ""width:100px; height:100px;position:fixed; top:25%;        transform: translate(-50%, -50%);left:38%""></img><img src=""media/stimuli/animate_006_right.png"" class=""coveredImage test"" style = ""width:100px; height:100px;position:fixed; top:25%;        transform: translate(-50%, -50%);left:58%""></img><img src=""media/f.png""style = ""width:30px x; height:30px;position:fixed; top:43%;    transform: translate(-50%, -50%);left:40%""></img><img src=""media/j.png""style = ""width:30px; height:30px;position:fixed; top:43%;    transform: translate(-50%, -50%);left:60%""></img>","media/stimuli/inanimate_004_right.png","inanimate","right","single","media/stimuli/inanimate_006_right.png","inanimate","right","single","media/stimuli/animate_006_right.png","animate","right","single","identity_animacy","","","",""
"","","","","","html-keyboard-response","51","334977","0.0-51.0","SS1678233244076","634265d4ff46e9c74d9fe152","6406d7f26dd5b7fc1e3377bd","6407ce81f9a506543d8f2dad","1294","747","","1493","","f","","","<img src=""media/stimuli/animate_004_left.png"" class=""coveredImage test"" style = ""width:100px; height:100px; position:fixed; top:10%;    transform: translate(-50%, -50%);left:48%""></img><img src=""media/stimuli/animate_006_left.png"" class=""coveredImage test"" style = ""width:100px; height:100px;position:fixed; top:25%;        transform: translate(-50%, -50%);left:38%""></img><img src=""media/stimuli/inanimate_006_left.png"" class=""coveredImage test"" style = ""width:100px; height:100px;position:fixed; top:25%;        transform: translate(-50%, -50%);left:58%""></img><img src=""media/f.png""style = ""width:30px x; height:30px;position:fixed; top:43%;    transform: translate(-50%, -50%);left:40%""></img><img src=""media/j.png""style = ""width:30px; height:30px;position:fixed; top:43%;    transform: translate(-50%, -50%);left:60%""></img>","media/stimuli/animate_004_left.png","animate","left","single","media/stimuli/animate_006_left.png","animate","left","single","media/stimuli/inanimate_006_left.png","inanimate","left","single","identity_animacy","","","",""
"","","","","","html-keyboard-response","52","336897","0.0-52.0","SS1678233244076","634265d4ff46e9c74d9fe152","6406d7f26dd5b7fc1e3377bd","6407ce81f9a506543d8f2dad","1294","747","","1918","","j","","","<img src=""media/stimuli/inanimate_007_left.png"" class=""coveredImage test"" style = ""width:100px; height:100px; position:fixed; top:10%;    transform: translate(-50%, -50%);left:48%""></img><img src=""media/stimuli/inanimate_007_right.png"" class=""coveredImage test"" style = ""width:100px; height:100px;position:fixed; top:25%;        transform: translate(-50%, -50%);left:38%""></img><img src=""media/stimuli/inanimate_004_left.png"" class=""coveredImage test"" style = ""width:100px; height:100px;position:fixed; top:25%;        transform: translate(-50%, -50%);left:58%""></img><img src=""media/f.png""style = ""width:30px x; height:30px;position:fixed; top:43%;    transform: translate(-50%, -50%);left:40%""></img><img src=""media/j.png""style = ""width:30px; height:30px;position:fixed; top:43%;    transform: translate(-50%, -50%);left:60%""></img>","media/stimuli/inanimate_007_left.png","inanimate","left","single","media/stimuli/inanimate_007_right.png","inanimate","right","single","media/stimuli/inanimate_004_left.png","inanimate","left","single","pose_identity","","","",""
"","","","","","html-keyboard-response","53","339083","0.0-53.0","SS1678233244076","634265d4ff46e9c74d9fe152","6406d7f26dd5b7fc1e3377bd","6407ce81f9a506543d8f2dad","1294","747","","2183","","f","","","<img src=""media/stimuli/animate_002_left.png"" class=""coveredImage test"" style = ""width:100px; height:100px; position:fixed; top:10%;    transform: translate(-50%, -50%);left:44.5%""></img><img src=""media/stimuli/animate_002_left.png"" class=""coveredImage test"" style = ""width:100px; height:100px; position:fixed; top:10%;    transform: translate(-50%, -50%);left:51.5%""></img><img src=""media/stimuli/inanimate_008_left.png"" class=""coveredImage test"" style = ""width:100px; height:100px;position:fixed; top:25%;        transform: translate(-50%, -50%);left:34.5%""></img><img src=""media/stimuli/inanimate_008_left.png"" class=""coveredImage test"" style = ""width:100px; height:100px;position:fixed; top:25%;        transform: translate(-50%, -50%);left:41.5%""></img><img src=""media/stimuli/animate_002_right.png"" class=""coveredImage test"" style = ""width:100px; height:100px;position:fixed; top:25%;        transform: translate(-50%, -50%);left:54.5%""></img><img src=""media/stimuli/animate_002_right.png"" class=""coveredImage test"" style = ""width:100px; height:100px;position:fixed; top:25%;        transform: translate(-50%, -50%);left:61.5%""></img><img src=""media/f.png""style = ""width:30px x; height:30px;position:fixed; top:43%;    transform: translate(-50%, -50%);left:40%""></img><img src=""media/j.png""style = ""width:30px; height:30px;position:fixed; top:43%;    transform: translate(-50%, -50%);left:60%""></img>","media/stimuli/animate_002_left.png","animate","left","pair","media/stimuli/inanimate_008_left.png","inanimate","left","pair","media/stimuli/animate_002_right.png","animate","right","pair","animacy_pose","","","",""
"","","","","","html-keyboard-response","54","341601","0.0-54.0","SS1678233244076","634265d4ff46e9c74d9fe152","6406d7f26dd5b7fc1e3377bd","6407ce81f9a506543d8f2dad","1294","747","","2515","","j","","","<img src=""media/stimuli/inanimate_002_right.png"" class=""coveredImage test"" style = ""width:100px; height:100px; position:fixed; top:10%;    transform: translate(-50%, -50%);left:44.5%""></img><img src=""media/stimuli/inanimate_002_right.png"" class=""coveredImage test"" style = ""width:100px; height:100px; position:fixed; top:10%;    transform: translate(-50%, -50%);left:51.5%""></img><img src=""media/stimuli/inanimate_002_left.png"" class=""coveredImage test"" style = ""width:100px; height:100px;position:fixed; top:25%;        transform: translate(-50%, -50%);left:34.5%""></img><img src=""media/stimuli/inanimate_002_left.png"" class=""coveredImage test"" style = ""width:100px; height:100px;position:fixed; top:25%;        transform: translate(-50%, -50%);left:41.5%""></img><img src=""media/stimuli/inanimate_005_right.png"" class=""coveredImage test"" style = ""width:100px; height:100px;position:fixed; top:25%;        transform: translate(-50%, -50%);left:54.5%""></img><img src=""media/stimuli/inanimate_005_right.png"" class=""coveredImage test"" style = ""width:100px; height:100px;position:fixed; top:25%;        transform: translate(-50%, -50%);left:61.5%""></img><img src=""media/f.png""style = ""width:30px x; height:30px;position:fixed; top:43%;    transform: translate(-50%, -50%);left:40%""></img><img src=""media/j.png""style = ""width:30px; height:30px;position:fixed; top:43%;    transform: translate(-50%, -50%);left:60%""></img>","media/stimuli/inanimate_002_right.png","inanimate","right","pair","media/stimuli/inanimate_002_left.png","inanimate","left","pair","media/stimuli/inanimate_005_right.png","inanimate","right","pair","pose_identity","","","",""
"","","","","","html-keyboard-response","55","343211","0.0-55.0","SS1678233244076","634265d4ff46e9c74d9fe152","6406d7f26dd5b7fc1e3377bd","6407ce81f9a506543d8f2dad","1294","747","","1605","","f","","","<img src=""media/stimuli/animate_009_left.png"" class=""coveredImage test"" style = ""width:100px; height:100px; position:fixed; top:10%;    transform: translate(-50%, -50%);left:48%""></img><img src=""media/stimuli/animate_009_left.png"" class=""coveredImage test"" style = ""width:100px; height:100px;position:fixed; top:25%;        transform: translate(-50%, -50%);left:34.5%""></img><img src=""media/stimuli/animate_009_left.png"" class=""coveredImage test"" style = ""width:100px; height:100px;position:fixed; top:25%;        transform: translate(-50%, -50%);left:41.5%""></img><img src=""media/stimuli/inanimate_003_left.png"" class=""coveredImage test"" style = ""width:100px; height:100px;position:fixed; top:25%;        transform: translate(-50%, -50%);left:58%""></img><img src=""media/f.png""style = ""width:30px x; height:30px;position:fixed; top:43%;    transform: translate(-50%, -50%);left:40%""></img><img src=""media/j.png""style = ""width:30px; height:30px;position:fixed; top:43%;    transform: translate(-50%, -50%);left:60%""></img>","media/stimuli/animate_009_left.png","animate","left","single","media/stimuli/animate_009_left.png","animate","left","pair","media/stimuli/inanimate_003_left.png","inanimate","left","single","number_animacy","","","",""
"","","","","","html-keyboard-response","56","344442","0.0-56.0","SS1678233244076","634265d4ff46e9c74d9fe152","6406d7f26dd5b7fc1e3377bd","6407ce81f9a506543d8f2dad","1294","747","","1228","","j","","","<img src=""media/stimuli/animate_004_right.png"" class=""coveredImage test"" style = ""width:100px; height:100px; position:fixed; top:10%;    transform: translate(-50%, -50%);left:44.5%""></img><img src=""media/stimuli/animate_004_right.png"" class=""coveredImage test"" style = ""width:100px; height:100px; position:fixed; top:10%;    transform: translate(-50%, -50%);left:51.5%""></img><img src=""media/stimuli/inanimate_008_right.png"" class=""coveredImage test"" style = ""width:100px; height:100px;position:fixed; top:25%;        transform: translate(-50%, -50%);left:34.5%""></img><img src=""media/stimuli/inanimate_008_right.png"" class=""coveredImage test"" style = ""width:100px; height:100px;position:fixed; top:25%;        transform: translate(-50%, -50%);left:41.5%""></img><img src=""media/stimuli/animate_004_right.png"" class=""coveredImage test"" style = ""width:100px; height:100px;position:fixed; top:25%;        transform: translate(-50%, -50%);left:58%""></img><img src=""media/f.png""style = ""width:30px x; height:30px;position:fixed; top:43%;    transform: translate(-50%, -50%);left:40%""></img><img src=""media/j.png""style = ""width:30px; height:30px;position:fixed; top:43%;    transform: translate(-50%, -50%);left:60%""></img>","media/stimuli/animate_004_right.png","animate","right","pair","media/stimuli/inanimate_008_right.png","inanimate","right","pair","media/stimuli/animate_004_right.png","animate","right","single","animacy_number","","","",""
"","","","","","html-keyboard-response","57","345665","0.0-57.0","SS1678233244076","634265d4ff46e9c74d9fe152","6406d7f26dd5b7fc1e3377bd","6407ce81f9a506543d8f2dad","1294","747","","1221","","j","","","<img src=""media/stimuli/inanimate_003_right.png"" class=""coveredImage test"" style = ""width:100px; height:100px; position:fixed; top:10%;    transform: translate(-50%, -50%);left:48%""></img><img src=""media/stimuli/inanimate_002_right.png"" class=""coveredImage test"" style = ""width:100px; height:100px;position:fixed; top:25%;        transform: translate(-50%, -50%);left:38%""></img><img src=""media/stimuli/inanimate_003_right.png"" class=""coveredImage test"" style = ""width:100px; height:100px;position:fixed; top:25%;        transform: translate(-50%, -50%);left:54.5%""></img><img src=""media/stimuli/inanimate_003_right.png"" class=""coveredImage test"" style = ""width:100px; height:100px;position:fixed; top:25%;        transform: translate(-50%, -50%);left:61.5%""></img><img src=""media/f.png""style = ""width:30px x; height:30px;position:fixed; top:43%;    transform: translate(-50%, -50%);left:40%""></img><img src=""media/j.png""style = ""width:30px; height:30px;position:fixed; top:43%;    transform: translate(-50%, -50%);left:60%""></img>","media/stimuli/inanimate_003_right.png","inanimate","right","single","media/stimuli/inanimate_002_right.png","inanimate","right","single","media/stimuli/inanimate_003_right.png","inanimate","right","pair","identity_number","","","",""
"","","","","","html-keyboard-response","58","348480","0.0-58.0","SS1678233244076","634265d4ff46e9c74d9fe152","6406d7f26dd5b7fc1e3377bd","6407ce81f9a506543d8f2dad","1294","747","","2811","","j","","","<img src=""media/stimuli/inanimate_010_left.png"" class=""coveredImage test"" style = ""width:100px; height:100px; position:fixed; top:10%;    transform: translate(-50%, -50%);left:44.5%""></img><img src=""media/stimuli/inanimate_010_left.png"" class=""coveredImage test"" style = ""width:100px; height:100px; position:fixed; top:10%;    transform: translate(-50%, -50%);left:51.5%""></img><img src=""media/stimuli/inanimate_010_right.png"" class=""coveredImage test"" style = ""width:100px; height:100px;position:fixed; top:25%;        transform: translate(-50%, -50%);left:34.5%""></img><img src=""media/stimuli/inanimate_010_right.png"" class=""coveredImage test"" style = ""width:100px; height:100px;position:fixed; top:25%;        transform: translate(-50%, -50%);left:41.5%""></img><img src=""media/stimuli/inanimate_010_left.png"" class=""coveredImage test"" style = ""width:100px; height:100px;position:fixed; top:25%;        transform: translate(-50%, -50%);left:58%""></img><img src=""media/f.png""style = ""width:30px x; height:30px;position:fixed; top:43%;    transform: translate(-50%, -50%);left:40%""></img><img src=""media/j.png""style = ""width:30px; height:30px;position:fixed; top:43%;    transform: translate(-50%, -50%);left:60%""></img>","media/stimuli/inanimate_010_left.png","inanimate","left","pair","media/stimuli/inanimate_010_right.png","inanimate","right","pair","media/stimuli/inanimate_010_left.png","inanimate","left","single","pose_number","","","",""
"","","","","","html-keyboard-response","59","349371","0.0-59.0","SS1678233244076","634265d4ff46e9c74d9fe152","6406d7f26dd5b7fc1e3377bd","6407ce81f9a506543d8f2dad","1294","747","","888","","j","","","","","","","","","","","","","","","","","","","",""
"","","","","","html-keyboard-response","60","351153","0.0-60.0","SS1678233244076","634265d4ff46e9c74d9fe152","6406d7f26dd5b7fc1e3377bd","6407ce81f9a506543d8f2dad","1294","747","","1777","","f","","","<img src=""media/stimuli/animate_005_right.png"" class=""coveredImage test"" style = ""width:100px; height:100px; position:fixed; top:10%;    transform: translate(-50%, -50%);left:44.5%""></img><img src=""media/stimuli/animate_005_right.png"" class=""coveredImage test"" style = ""width:100px; height:100px; position:fixed; top:10%;    transform: translate(-50%, -50%);left:51.5%""></img><img src=""media/stimuli/animate_005_right.png"" class=""coveredImage test"" style = ""width:100px; height:100px;position:fixed; top:25%;        transform: translate(-50%, -50%);left:38%""></img><img src=""media/stimuli/animate_005_left.png"" class=""coveredImage test"" style = ""width:100px; height:100px;position:fixed; top:25%;        transform: translate(-50%, -50%);left:54.5%""></img><img src=""media/stimuli/animate_005_left.png"" class=""coveredImage test"" style = ""width:100px; height:100px;position:fixed; top:25%;        transform: translate(-50%, -50%);left:61.5%""></img><img src=""media/f.png""style = ""width:30px x; height:30px;position:fixed; top:43%;    transform: translate(-50%, -50%);left:40%""></img><img src=""media/j.png""style = ""width:30px; height:30px;position:fixed; top:43%;    transform: translate(-50%, -50%);left:60%""></img>","media/stimuli/animate_005_right.png","animate","right","pair","media/stimuli/animate_005_right.png","animate","right","single","media/stimuli/animate_005_left.png","animate","left","pair","number_pose","","","",""
"","","","","","html-keyboard-response","61","352827","0.0-61.0","SS1678233244076","634265d4ff46e9c74d9fe152","6406d7f26dd5b7fc1e3377bd","6407ce81f9a506543d8f2dad","1294","747","","1669","","f","","","<img src=""media/stimuli/inanimate_003_left.png"" class=""coveredImage test"" style = ""width:100px; height:100px; position:fixed; top:10%;    transform: translate(-50%, -50%);left:44.5%""></img><img src=""media/stimuli/inanimate_003_left.png"" class=""coveredImage test"" style = ""width:100px; height:100px; position:fixed; top:10%;    transform: translate(-50%, -50%);left:51.5%""></img><img src=""media/stimuli/inanimate_003_left.png"" class=""coveredImage test"" style = ""width:100px; height:100px;position:fixed; top:25%;        transform: translate(-50%, -50%);left:38%""></img><img src=""media/stimuli/inanimate_003_right.png"" class=""coveredImage test"" style = ""width:100px; height:100px;position:fixed; top:25%;        transform: translate(-50%, -50%);left:54.5%""></img><img src=""media/stimuli/inanimate_003_right.png"" class=""coveredImage test"" style = ""width:100px; height:100px;position:fixed; top:25%;        transform: translate(-50%, -50%);left:61.5%""></img><img src=""media/f.png""style = ""width:30px x; height:30px;position:fixed; top:43%;    transform: translate(-50%, -50%);left:40%""></img><img src=""media/j.png""style = ""width:30px; height:30px;position:fixed; top:43%;    transform: translate(-50%, -50%);left:60%""></img>","media/stimuli/inanimate_003_left.png","inanimate","left","pair","media/stimuli/inanimate_003_left.png","inanimate","left","single","media/stimuli/inanimate_003_right.png","inanimate","right","pair","number_pose","","","",""
"","","","","","html-keyboard-response","62","354065","0.0-62.0","SS1678233244076","634265d4ff46e9c74d9fe152","6406d7f26dd5b7fc1e3377bd","6407ce81f9a506543d8f2dad","1294","747","","1235","","j","","","<img src=""media/stimuli/animate_001_left.png"" class=""coveredImage test"" style = ""width:100px; height:100px; position:fixed; top:10%;    transform: translate(-50%, -50%);left:44.5%""></img><img src=""media/stimuli/animate_001_left.png"" class=""coveredImage test"" style = ""width:100px; height:100px; position:fixed; top:10%;    transform: translate(-50%, -50%);left:51.5%""></img><img src=""media/stimuli/inanimate_006_left.png"" class=""coveredImage test"" style = ""width:100px; height:100px;position:fixed; top:25%;        transform: translate(-50%, -50%);left:34.5%""></img><img src=""media/stimuli/inanimate_006_left.png"" class=""coveredImage test"" style = ""width:100px; height:100px;position:fixed; top:25%;        transform: translate(-50%, -50%);left:41.5%""></img><img src=""media/stimuli/animate_001_left.png"" class=""coveredImage test"" style = ""width:100px; height:100px;position:fixed; top:25%;        transform: translate(-50%, -50%);left:58%""></img><img src=""media/f.png""style = ""width:30px x; height:30px;position:fixed; top:43%;    transform: translate(-50%, -50%);left:40%""></img><img src=""media/j.png""style = ""width:30px; height:30px;position:fixed; top:43%;    transform: translate(-50%, -50%);left:60%""></img>","media/stimuli/animate_001_left.png","animate","left","pair","media/stimuli/inanimate_006_left.png","inanimate","left","pair","media/stimuli/animate_001_left.png","animate","left","single","animacy_number","","","",""
"","","","","","html-keyboard-response","63","355648","0.0-63.0","SS1678233244076","634265d4ff46e9c74d9fe152","6406d7f26dd5b7fc1e3377bd","6407ce81f9a506543d8f2dad","1294","747","","1580","","f","","","<img src=""media/stimuli/animate_006_right.png"" class=""coveredImage test"" style = ""width:100px; height:100px; position:fixed; top:10%;    transform: translate(-50%, -50%);left:44.5%""></img><img src=""media/stimuli/animate_006_right.png"" class=""coveredImage test"" style = ""width:100px; height:100px; position:fixed; top:10%;    transform: translate(-50%, -50%);left:51.5%""></img><img src=""media/stimuli/animate_006_right.png"" class=""coveredImage test"" style = ""width:100px; height:100px;position:fixed; top:25%;        transform: translate(-50%, -50%);left:38%""></img><img src=""media/stimuli/animate_006_left.png"" class=""coveredImage test"" style = ""width:100px; height:100px;position:fixed; top:25%;        transform: translate(-50%, -50%);left:54.5%""></img><img src=""media/stimuli/animate_006_left.png"" class=""coveredImage test"" style = ""width:100px; height:100px;position:fixed; top:25%;        transform: translate(-50%, -50%);left:61.5%""></img><img src=""media/f.png""style = ""width:30px x; height:30px;position:fixed; top:43%;    transform: translate(-50%, -50%);left:40%""></img><img src=""media/j.png""style = ""width:30px; height:30px;position:fixed; top:43%;    transform: translate(-50%, -50%);left:60%""></img>","media/stimuli/animate_006_right.png","animate","right","pair","media/stimuli/animate_006_right.png","animate","right","single","media/stimuli/animate_006_left.png","animate","left","pair","number_pose","","","",""
"","","","","","html-keyboard-response","64","356960","0.0-64.0","SS1678233244076","634265d4ff46e9c74d9fe152","6406d7f26dd5b7fc1e3377bd","6407ce81f9a506543d8f2dad","1294","747","","1308","","j","","","<img src=""media/stimuli/animate_007_left.png"" class=""coveredImage test"" style = ""width:100px; height:100px; position:fixed; top:10%;    transform: translate(-50%, -50%);left:44.5%""></img><img src=""media/stimuli/animate_007_left.png"" class=""coveredImage test"" style = ""width:100px; height:100px; position:fixed; top:10%;    transform: translate(-50%, -50%);left:51.5%""></img><img src=""media/stimuli/animate_005_left.png"" class=""coveredImage test"" style = ""width:100px; height:100px;position:fixed; top:25%;        transform: translate(-50%, -50%);left:34.5%""></img><img src=""media/stimuli/animate_005_left.png"" class=""coveredImage test"" style = ""width:100px; height:100px;position:fixed; top:25%;        transform: translate(-50%, -50%);left:41.5%""></img><img src=""media/stimuli/animate_007_left.png"" class=""coveredImage test"" style = ""width:100px; height:100px;position:fixed; top:25%;        transform: translate(-50%, -50%);left:58%""></img><img src=""media/f.png""style = ""width:30px x; height:30px;position:fixed; top:43%;    transform: translate(-50%, -50%);left:40%""></img><img src=""media/j.png""style = ""width:30px; height:30px;position:fixed; top:43%;    transform: translate(-50%, -50%);left:60%""></img>","media/stimuli/animate_007_left.png","animate","left","pair","media/stimuli/animate_005_left.png","animate","left","pair","media/stimuli/animate_007_left.png","animate","left","single","identity_number","","","",""
"","","","","","html-keyboard-response","65","358576","0.0-65.0","SS1678233244076","634265d4ff46e9c74d9fe152","6406d7f26dd5b7fc1e3377bd","6407ce81f9a506543d8f2dad","1294","747","","1612","","f","","","<img src=""media/stimuli/animate_004_right.png"" class=""coveredImage test"" style = ""width:100px; height:100px; position:fixed; top:10%;    transform: translate(-50%, -50%);left:48%""></img><img src=""media/stimuli/animate_004_right.png"" class=""coveredImage test"" style = ""width:100px; height:100px;position:fixed; top:25%;        transform: translate(-50%, -50%);left:38%""></img><img src=""media/stimuli/inanimate_001_left.png"" class=""coveredImage test"" style = ""width:100px; height:100px;position:fixed; top:25%;        transform: translate(-50%, -50%);left:58%""></img><img src=""media/f.png""style = ""width:30px x; height:30px;position:fixed; top:43%;    transform: translate(-50%, -50%);left:40%""></img><img src=""media/j.png""style = ""width:30px; height:30px;position:fixed; top:43%;    transform: translate(-50%, -50%);left:60%""></img>","media/stimuli/animate_004_right.png","animate","right","single","media/stimuli/animate_004_right.png","animate","right","single","media/stimuli/inanimate_001_left.png","inanimate","left","single","pose_animacy","","","",""
"","","","","","html-keyboard-response","66","360337","0.0-66.0","SS1678233244076","634265d4ff46e9c74d9fe152","6406d7f26dd5b7fc1e3377bd","6407ce81f9a506543d8f2dad","1294","747","","1758","","f","","","<img src=""media/stimuli/animate_005_left.png"" class=""coveredImage test"" style = ""width:100px; height:100px; position:fixed; top:10%;    transform: translate(-50%, -50%);left:48%""></img><img src=""media/stimuli/animate_008_left.png"" class=""coveredImage test"" style = ""width:100px; height:100px;position:fixed; top:25%;        transform: translate(-50%, -50%);left:38%""></img><img src=""media/stimuli/animate_005_right.png"" class=""coveredImage test"" style = ""width:100px; height:100px;position:fixed; top:25%;        transform: translate(-50%, -50%);left:58%""></img><img src=""media/f.png""style = ""width:30px x; height:30px;position:fixed; top:43%;    transform: translate(-50%, -50%);left:40%""></img><img src=""media/j.png""style = ""width:30px; height:30px;position:fixed; top:43%;    transform: translate(-50%, -50%);left:60%""></img>","media/stimuli/animate_005_left.png","animate","left","single","media/stimuli/animate_008_left.png","animate","left","single","media/stimuli/animate_005_right.png","animate","right","single","identity_pose","","","",""
"","","","","","html-keyboard-response","67","362288","0.0-67.0","SS1678233244076","634265d4ff46e9c74d9fe152","6406d7f26dd5b7fc1e3377bd","6407ce81f9a506543d8f2dad","1294","747","","1947","","f","","","<img src=""media/stimuli/inanimate_007_right.png"" class=""coveredImage test"" style = ""width:100px; height:100px; position:fixed; top:10%;    transform: translate(-50%, -50%);left:44.5%""></img><img src=""media/stimuli/inanimate_007_right.png"" class=""coveredImage test"" style = ""width:100px; height:100px; position:fixed; top:10%;    transform: translate(-50%, -50%);left:51.5%""></img><img src=""media/stimuli/inanimate_007_right.png"" class=""coveredImage test"" style = ""width:100px; height:100px;position:fixed; top:25%;        transform: translate(-50%, -50%);left:38%""></img><img src=""media/stimuli/inanimate_007_left.png"" class=""coveredImage test"" style = ""width:100px; height:100px;position:fixed; top:25%;        transform: translate(-50%, -50%);left:54.5%""></img><img src=""media/stimuli/inanimate_007_left.png"" class=""coveredImage test"" style = ""width:100px; height:100px;position:fixed; top:25%;        transform: translate(-50%, -50%);left:61.5%""></img><img src=""media/f.png""style = ""width:30px x; height:30px;position:fixed; top:43%;    transform: translate(-50%, -50%);left:40%""></img><img src=""media/j.png""style = ""width:30px; height:30px;position:fixed; top:43%;    transform: translate(-50%, -50%);left:60%""></img>","media/stimuli/inanimate_007_right.png","inanimate","right","pair","media/stimuli/inanimate_007_right.png","inanimate","right","single","media/stimuli/inanimate_007_left.png","inanimate","left","pair","number_pose","","","",""
"","","","","","html-keyboard-response","68","365345","0.0-68.0","SS1678233244076","634265d4ff46e9c74d9fe152","6406d7f26dd5b7fc1e3377bd","6407ce81f9a506543d8f2dad","1294","747","","3054","","f","","","<img src=""media/stimuli/animate_008_right.png"" class=""coveredImage test"" style = ""width:100px; height:100px; position:fixed; top:10%;    transform: translate(-50%, -50%);left:44.5%""></img><img src=""media/stimuli/animate_008_right.png"" class=""coveredImage test"" style = ""width:100px; height:100px; position:fixed; top:10%;    transform: translate(-50%, -50%);left:51.5%""></img><img src=""media/stimuli/animate_004_right.png"" class=""coveredImage test"" style = ""width:100px; height:100px;position:fixed; top:25%;        transform: translate(-50%, -50%);left:34.5%""></img><img src=""media/stimuli/animate_004_right.png"" class=""coveredImage test"" style = ""width:100px; height:100px;position:fixed; top:25%;        transform: translate(-50%, -50%);left:41.5%""></img><img src=""media/stimuli/animate_008_left.png"" class=""coveredImage test"" style = ""width:100px; height:100px;position:fixed; top:25%;        transform: translate(-50%, -50%);left:54.5%""></img><img src=""media/stimuli/animate_008_left.png"" class=""coveredImage test"" style = ""width:100px; height:100px;position:fixed; top:25%;        transform: translate(-50%, -50%);left:61.5%""></img><img src=""media/f.png""style = ""width:30px x; height:30px;position:fixed; top:43%;    transform: translate(-50%, -50%);left:40%""></img><img src=""media/j.png""style = ""width:30px; height:30px;position:fixed; top:43%;    transform: translate(-50%, -50%);left:60%""></img>","media/stimuli/animate_008_right.png","animate","right","pair","media/stimuli/animate_004_right.png","animate","right","pair","media/stimuli/animate_008_left.png","animate","left","pair","identity_pose","","","",""
"","","","","","html-keyboard-response","69","367010","0.0-69.0","SS1678233244076","634265d4ff46e9c74d9fe152","6406d7f26dd5b7fc1e3377bd","6407ce81f9a506543d8f2dad","1294","747","","1661","","j","","","<img src=""media/stimuli/animate_006_right.png"" class=""coveredImage test"" style = ""width:100px; height:100px; position:fixed; top:10%;    transform: translate(-50%, -50%);left:48%""></img><img src=""media/stimuli/animate_006_left.png"" class=""coveredImage test"" style = ""width:100px; height:100px;position:fixed; top:25%;        transform: translate(-50%, -50%);left:38%""></img><img src=""media/stimuli/animate_001_right.png"" class=""coveredImage test"" style = ""width:100px; height:100px;position:fixed; top:25%;        transform: translate(-50%, -50%);left:58%""></img><img src=""media/f.png""style = ""width:30px x; height:30px;position:fixed; top:43%;    transform: translate(-50%, -50%);left:40%""></img><img src=""media/j.png""style = ""width:30px; height:30px;position:fixed; top:43%;    transform: translate(-50%, -50%);left:60%""></img>","media/stimuli/animate_006_right.png","animate","right","single","media/stimuli/animate_006_left.png","animate","left","single","media/stimuli/animate_001_right.png","animate","right","single","pose_identity","","","",""
"","","","","","html-keyboard-response","70","368394","0.0-70.0","SS1678233244076","634265d4ff46e9c74d9fe152","6406d7f26dd5b7fc1e3377bd","6407ce81f9a506543d8f2dad","1294","747","","1381","","f","","","<img src=""media/stimuli/animate_004_left.png"" class=""coveredImage test"" style = ""width:100px; height:100px; position:fixed; top:10%;    transform: translate(-50%, -50%);left:48%""></img><img src=""media/stimuli/animate_010_left.png"" class=""coveredImage test"" style = ""width:100px; height:100px;position:fixed; top:25%;        transform: translate(-50%, -50%);left:38%""></img><img src=""media/stimuli/inanimate_003_left.png"" class=""coveredImage test"" style = ""width:100px; height:100px;position:fixed; top:25%;        transform: translate(-50%, -50%);left:58%""></img><img src=""media/f.png""style = ""width:30px x; height:30px;position:fixed; top:43%;    transform: translate(-50%, -50%);left:40%""></img><img src=""media/j.png""style = ""width:30px; height:30px;position:fixed; top:43%;    transform: translate(-50%, -50%);left:60%""></img>","media/stimuli/animate_004_left.png","animate","left","single","media/stimuli/animate_010_left.png","animate","left","single","media/stimuli/inanimate_003_left.png","inanimate","left","single","identity_animacy","","","",""
"","","","","","html-keyboard-response","71","369647","0.0-71.0","SS1678233244076","634265d4ff46e9c74d9fe152","6406d7f26dd5b7fc1e3377bd","6407ce81f9a506543d8f2dad","1294","747","","1249","","f","","","<img src=""media/stimuli/animate_009_left.png"" class=""coveredImage test"" style = ""width:100px; height:100px; position:fixed; top:10%;    transform: translate(-50%, -50%);left:44.5%""></img><img src=""media/stimuli/animate_009_left.png"" class=""coveredImage test"" style = ""width:100px; height:100px; position:fixed; top:10%;    transform: translate(-50%, -50%);left:51.5%""></img><img src=""media/stimuli/animate_009_left.png"" class=""coveredImage test"" style = ""width:100px; height:100px;position:fixed; top:25%;        transform: translate(-50%, -50%);left:38%""></img><img src=""media/stimuli/animate_010_left.png"" class=""coveredImage test"" style = ""width:100px; height:100px;position:fixed; top:25%;        transform: translate(-50%, -50%);left:54.5%""></img><img src=""media/stimuli/animate_010_left.png"" class=""coveredImage test"" style = ""width:100px; height:100px;position:fixed; top:25%;        transform: translate(-50%, -50%);left:61.5%""></img><img src=""media/f.png""style = ""width:30px x; height:30px;position:fixed; top:43%;    transform: translate(-50%, -50%);left:40%""></img><img src=""media/j.png""style = ""width:30px; height:30px;position:fixed; top:43%;    transform: translate(-50%, -50%);left:60%""></img>","media/stimuli/animate_009_left.png","animate","left","pair","media/stimuli/animate_009_left.png","animate","left","single","media/stimuli/animate_010_left.png","animate","left","pair","number_identity","","","",""
"","","","","","html-keyboard-response","72","370707","0.0-72.0","SS1678233244076","634265d4ff46e9c74d9fe152","6406d7f26dd5b7fc1e3377bd","6407ce81f9a506543d8f2dad","1294","747","","1056","","j","","","","","","","","","","","","","","","","","","","",""
"","","","","","html-keyboard-response","73","372640","0.0-73.0","SS1678233244076","634265d4ff46e9c74d9fe152","6406d7f26dd5b7fc1e3377bd","6407ce81f9a506543d8f2dad","1294","747","","1929","","f","","","<img src=""media/stimuli/animate_001_right.png"" class=""coveredImage test"" style = ""width:100px; height:100px; position:fixed; top:10%;    transform: translate(-50%, -50%);left:48%""></img><img src=""media/stimuli/animate_001_right.png"" class=""coveredImage test"" style = ""width:100px; height:100px;position:fixed; top:25%;        transform: translate(-50%, -50%);left:34.5%""></img><img src=""media/stimuli/animate_001_right.png"" class=""coveredImage test"" style = ""width:100px; height:100px;position:fixed; top:25%;        transform: translate(-50%, -50%);left:41.5%""></img><img src=""media/stimuli/animate_001_left.png"" class=""coveredImage test"" style = ""width:100px; height:100px;position:fixed; top:25%;        transform: translate(-50%, -50%);left:58%""></img><img src=""media/f.png""style = ""width:30px x; height:30px;position:fixed; top:43%;    transform: translate(-50%, -50%);left:40%""></img><img src=""media/j.png""style = ""width:30px; height:30px;position:fixed; top:43%;    transform: translate(-50%, -50%);left:60%""></img>","media/stimuli/animate_001_right.png","animate","right","single","media/stimuli/animate_001_right.png","animate","right","pair","media/stimuli/animate_001_left.png","animate","left","single","number_pose","","","",""
"","","","","","html-keyboard-response","74","376024","0.0-74.0","SS1678233244076","634265d4ff46e9c74d9fe152","6406d7f26dd5b7fc1e3377bd","6407ce81f9a506543d8f2dad","1294","747","","3380","","f","","","<img src=""media/stimuli/inanimate_001_left.png"" class=""coveredImage test"" style = ""width:100px; height:100px; position:fixed; top:10%;    transform: translate(-50%, -50%);left:48%""></img><img src=""media/stimuli/inanimate_001_right.png"" class=""coveredImage test"" style = ""width:100px; height:100px;position:fixed; top:25%;        transform: translate(-50%, -50%);left:38%""></img><img src=""media/stimuli/inanimate_012_left.png"" class=""coveredImage test"" style = ""width:100px; height:100px;position:fixed; top:25%;        transform: translate(-50%, -50%);left:58%""></img><img src=""media/f.png""style = ""width:30px x; height:30px;position:fixed; top:43%;    transform: translate(-50%, -50%);left:40%""></img><img src=""media/j.png""style = ""width:30px; height:30px;position:fixed; top:43%;    transform: translate(-50%, -50%);left:60%""></img>","media/stimuli/inanimate_001_left.png","inanimate","left","single","media/stimuli/inanimate_001_right.png","inanimate","right","single","media/stimuli/inanimate_012_left.png","inanimate","left","single","pose_identity","","","",""
"","","","","","html-keyboard-response","75","377579","0.0-75.0","SS1678233244076","634265d4ff46e9c74d9fe152","6406d7f26dd5b7fc1e3377bd","6407ce81f9a506543d8f2dad","1294","747","","1549","","f","","","<img src=""media/stimuli/animate_008_left.png"" class=""coveredImage test"" style = ""width:100px; height:100px; position:fixed; top:10%;    transform: translate(-50%, -50%);left:48%""></img><img src=""media/stimuli/animate_008_left.png"" class=""coveredImage test"" style = ""width:100px; height:100px;position:fixed; top:25%;        transform: translate(-50%, -50%);left:34.5%""></img><img src=""media/stimuli/animate_008_left.png"" class=""coveredImage test"" style = ""width:100px; height:100px;position:fixed; top:25%;        transform: translate(-50%, -50%);left:41.5%""></img><img src=""media/stimuli/animate_007_left.png"" class=""coveredImage test"" style = ""width:100px; height:100px;position:fixed; top:25%;        transform: translate(-50%, -50%);left:58%""></img><img src=""media/f.png""style = ""width:30px x; height:30px;position:fixed; top:43%;    transform: translate(-50%, -50%);left:40%""></img><img src=""media/j.png""style = ""width:30px; height:30px;position:fixed; top:43%;    transform: translate(-50%, -50%);left:60%""></img>","media/stimuli/animate_008_left.png","animate","left","single","media/stimuli/animate_008_left.png","animate","left","pair","media/stimuli/animate_007_left.png","animate","left","single","number_identity","","","",""
"","","","","","html-keyboard-response","76","383012","0.0-76.0","SS1678233244076","634265d4ff46e9c74d9fe152","6406d7f26dd5b7fc1e3377bd","6407ce81f9a506543d8f2dad","1294","747","","5430","","j","","","<img src=""media/stimuli/inanimate_001_left.png"" class=""coveredImage test"" style = ""width:100px; height:100px; position:fixed; top:10%;    transform: translate(-50%, -50%);left:48%""></img><img src=""media/stimuli/animate_001_left.png"" class=""coveredImage test"" style = ""width:100px; height:100px;position:fixed; top:25%;        transform: translate(-50%, -50%);left:38%""></img><img src=""media/stimuli/inanimate_003_left.png"" class=""coveredImage test"" style = ""width:100px; height:100px;position:fixed; top:25%;        transform: translate(-50%, -50%);left:58%""></img><img src=""media/f.png""style = ""width:30px x; height:30px;position:fixed; top:43%;    transform: translate(-50%, -50%);left:40%""></img><img src=""media/j.png""style = ""width:30px; height:30px;position:fixed; top:43%;    transform: translate(-50%, -50%);left:60%""></img>","media/stimuli/inanimate_001_left.png","inanimate","left","single","media/stimuli/animate_001_left.png","animate","left","single","media/stimuli/inanimate_003_left.png","inanimate","left","single","animacy_identity","","","",""
"","","","","","html-keyboard-response","77","384864","0.0-77.0","SS1678233244076","634265d4ff46e9c74d9fe152","6406d7f26dd5b7fc1e3377bd","6407ce81f9a506543d8f2dad","1294","747","","1850","","j","","","<img src=""media/stimuli/animate_005_right.png"" class=""coveredImage test"" style = ""width:100px; height:100px; position:fixed; top:10%;    transform: translate(-50%, -50%);left:44.5%""></img><img src=""media/stimuli/animate_005_right.png"" class=""coveredImage test"" style = ""width:100px; height:100px; position:fixed; top:10%;    transform: translate(-50%, -50%);left:51.5%""></img><img src=""media/stimuli/inanimate_006_right.png"" class=""coveredImage test"" style = ""width:100px; height:100px;position:fixed; top:25%;        transform: translate(-50%, -50%);left:34.5%""></img><img src=""media/stimuli/inanimate_006_right.png"" class=""coveredImage test"" style = ""width:100px; height:100px;position:fixed; top:25%;        transform: translate(-50%, -50%);left:41.5%""></img><img src=""media/stimuli/animate_005_right.png"" class=""coveredImage test"" style = ""width:100px; height:100px;position:fixed; top:25%;        transform: translate(-50%, -50%);left:58%""></img><img src=""media/f.png""style = ""width:30px x; height:30px;position:fixed; top:43%;    transform: translate(-50%, -50%);left:40%""></img><img src=""media/j.png""style = ""width:30px; height:30px;position:fixed; top:43%;    transform: translate(-50%, -50%);left:60%""></img>","media/stimuli/animate_005_right.png","animate","right","pair","media/stimuli/inanimate_006_right.png","inanimate","right","pair","media/stimuli/animate_005_right.png","animate","right","single","animacy_number","","","",""
"","","","","","html-keyboard-response","78","391023","0.0-78.0","SS1678233244076","634265d4ff46e9c74d9fe152","6406d7f26dd5b7fc1e3377bd","6407ce81f9a506543d8f2dad","1294","747","","6155","","j","","","<img src=""media/stimuli/inanimate_005_left.png"" class=""coveredImage test"" style = ""width:100px; height:100px; position:fixed; top:10%;    transform: translate(-50%, -50%);left:48%""></img><img src=""media/stimuli/inanimate_005_right.png"" class=""coveredImage test"" style = ""width:100px; height:100px;position:fixed; top:25%;        transform: translate(-50%, -50%);left:34.5%""></img><img src=""media/stimuli/inanimate_005_right.png"" class=""coveredImage test"" style = ""width:100px; height:100px;position:fixed; top:25%;        transform: translate(-50%, -50%);left:41.5%""></img><img src=""media/stimuli/animate_009_left.png"" class=""coveredImage test"" style = ""width:100px; height:100px;position:fixed; top:25%;        transform: translate(-50%, -50%);left:54.5%""></img><img src=""media/stimuli/animate_009_left.png"" class=""coveredImage test"" style = ""width:100px; height:100px;position:fixed; top:25%;        transform: translate(-50%, -50%);left:61.5%""></img><img src=""media/f.png""style = ""width:30px x; height:30px;position:fixed; top:43%;    transform: translate(-50%, -50%);left:40%""></img><img src=""media/j.png""style = ""width:30px; height:30px;position:fixed; top:43%;    transform: translate(-50%, -50%);left:60%""></img>","media/stimuli/inanimate_005_left.png","inanimate","left","single","media/stimuli/inanimate_005_right.png","inanimate","right","pair","media/stimuli/animate_009_left.png","animate","left","pair","pose_animacy","","","",""
"","","","","","html-keyboard-response","79","394321","0.0-79.0","SS1678233244076","634265d4ff46e9c74d9fe152","6406d7f26dd5b7fc1e3377bd","6407ce81f9a506543d8f2dad","1294","747","","3293","","j","","","<img src=""media/stimuli/inanimate_004_right.png"" class=""coveredImage test"" style = ""width:100px; height:100px; position:fixed; top:10%;    transform: translate(-50%, -50%);left:48%""></img><img src=""media/stimuli/inanimate_004_left.png"" class=""coveredImage test"" style = ""width:100px; height:100px;position:fixed; top:25%;        transform: translate(-50%, -50%);left:38%""></img><img src=""media/stimuli/inanimate_004_right.png"" class=""coveredImage test"" style = ""width:100px; height:100px;position:fixed; top:25%;        transform: translate(-50%, -50%);left:54.5%""></img><img src=""media/stimuli/inanimate_004_right.png"" class=""coveredImage test"" style = ""width:100px; height:100px;position:fixed; top:25%;        transform: translate(-50%, -50%);left:61.5%""></img><img src=""media/f.png""style = ""width:30px x; height:30px;position:fixed; top:43%;    transform: translate(-50%, -50%);left:40%""></img><img src=""media/j.png""style = ""width:30px; height:30px;position:fixed; top:43%;    transform: translate(-50%, -50%);left:60%""></img>","media/stimuli/inanimate_004_right.png","inanimate","right","single","media/stimuli/inanimate_004_left.png","inanimate","left","single","media/stimuli/inanimate_004_right.png","inanimate","right","pair","pose_number","","","",""
"","","","","","html-keyboard-response","80","396376","0.0-80.0","SS1678233244076","634265d4ff46e9c74d9fe152","6406d7f26dd5b7fc1e3377bd","6407ce81f9a506543d8f2dad","1294","747","","2052","","f","","","<img src=""media/stimuli/inanimate_009_right.png"" class=""coveredImage test"" style = ""width:100px; height:100px; position:fixed; top:10%;    transform: translate(-50%, -50%);left:44.5%""></img><img src=""media/stimuli/inanimate_009_right.png"" class=""coveredImage test"" style = ""width:100px; height:100px; position:fixed; top:10%;    transform: translate(-50%, -50%);left:51.5%""></img><img src=""media/stimuli/inanimate_006_right.png"" class=""coveredImage test"" style = ""width:100px; height:100px;position:fixed; top:25%;        transform: translate(-50%, -50%);left:34.5%""></img><img src=""media/stimuli/inanimate_006_right.png"" class=""coveredImage test"" style = ""width:100px; height:100px;position:fixed; top:25%;        transform: translate(-50%, -50%);left:41.5%""></img><img src=""media/stimuli/inanimate_009_left.png"" class=""coveredImage test"" style = ""width:100px; height:100px;position:fixed; top:25%;        transform: translate(-50%, -50%);left:54.5%""></img><img src=""media/stimuli/inanimate_009_left.png"" class=""coveredImage test"" style = ""width:100px; height:100px;position:fixed; top:25%;        transform: translate(-50%, -50%);left:61.5%""></img><img src=""media/f.png""style = ""width:30px x; height:30px;position:fixed; top:43%;    transform: translate(-50%, -50%);left:40%""></img><img src=""media/j.png""style = ""width:30px; height:30px;position:fixed; top:43%;    transform: translate(-50%, -50%);left:60%""></img>","media/stimuli/inanimate_009_right.png","inanimate","right","pair","media/stimuli/inanimate_006_right.png","inanimate","right","pair","media/stimuli/inanimate_009_left.png","inanimate","left","pair","identity_pose","","","",""
"","","","","","html-keyboard-response","81","397898","0.0-81.0","SS1678233244076","634265d4ff46e9c74d9fe152","6406d7f26dd5b7fc1e3377bd","6407ce81f9a506543d8f2dad","1294","747","","1518","","j","","","<img src=""media/stimuli/animate_006_right.png"" class=""coveredImage test"" style = ""width:100px; height:100px; position:fixed; top:10%;    transform: translate(-50%, -50%);left:48%""></img><img src=""media/stimuli/animate_006_left.png"" class=""coveredImage test"" style = ""width:100px; height:100px;position:fixed; top:25%;        transform: translate(-50%, -50%);left:38%""></img><img src=""media/stimuli/animate_012_right.png"" class=""coveredImage test"" style = ""width:100px; height:100px;position:fixed; top:25%;        transform: translate(-50%, -50%);left:58%""></img><img src=""media/f.png""style = ""width:30px x; height:30px;position:fixed; top:43%;    transform: translate(-50%, -50%);left:40%""></img><img src=""media/j.png""style = ""width:30px; height:30px;position:fixed; top:43%;    transform: translate(-50%, -50%);left:60%""></img>","media/stimuli/animate_006_right.png","animate","right","single","media/stimuli/animate_006_left.png","animate","left","single","media/stimuli/animate_012_right.png","animate","right","single","pose_identity","","","",""
"","","","","","html-keyboard-response","82","400751","0.0-82.0","SS1678233244076","634265d4ff46e9c74d9fe152","6406d7f26dd5b7fc1e3377bd","6407ce81f9a506543d8f2dad","1294","747","","2849","","j","","","<img src=""media/stimuli/inanimate_010_right.png"" class=""coveredImage test"" style = ""width:100px; height:100px; position:fixed; top:10%;    transform: translate(-50%, -50%);left:48%""></img><img src=""media/stimuli/inanimate_010_left.png"" class=""coveredImage test"" style = ""width:100px; height:100px;position:fixed; top:25%;        transform: translate(-50%, -50%);left:38%""></img><img src=""media/stimuli/inanimate_008_right.png"" class=""coveredImage test"" style = ""width:100px; height:100px;position:fixed; top:25%;        transform: translate(-50%, -50%);left:58%""></img><img src=""media/f.png""style = ""width:30px x; height:30px;position:fixed; top:43%;    transform: translate(-50%, -50%);left:40%""></img><img src=""media/j.png""style = ""width:30px; height:30px;position:fixed; top:43%;    transform: translate(-50%, -50%);left:60%""></img>","media/stimuli/inanimate_010_right.png","inanimate","right","single","media/stimuli/inanimate_010_left.png","inanimate","left","single","media/stimuli/inanimate_008_right.png","inanimate","right","single","pose_identity","","","",""
"","","","","","html-keyboard-response","83","402880","0.0-83.0","SS1678233244076","634265d4ff46e9c74d9fe152","6406d7f26dd5b7fc1e3377bd","6407ce81f9a506543d8f2dad","1294","747","","2125","","f","","","<img src=""media/stimuli/animate_002_right.png"" class=""coveredImage test"" style = ""width:100px; height:100px; position:fixed; top:10%;    transform: translate(-50%, -50%);left:44.5%""></img><img src=""media/stimuli/animate_002_right.png"" class=""coveredImage test"" style = ""width:100px; height:100px; position:fixed; top:10%;    transform: translate(-50%, -50%);left:51.5%""></img><img src=""media/stimuli/animate_002_right.png"" class=""coveredImage test"" style = ""width:100px; height:100px;position:fixed; top:25%;        transform: translate(-50%, -50%);left:34.5%""></img><img src=""media/stimuli/animate_002_right.png"" class=""coveredImage test"" style = ""width:100px; height:100px;position:fixed; top:25%;        transform: translate(-50%, -50%);left:41.5%""></img><img src=""media/stimuli/animate_002_left.png"" class=""coveredImage test"" style = ""width:100px; height:100px;position:fixed; top:25%;        transform: translate(-50%, -50%);left:54.5%""></img><img src=""media/stimuli/animate_002_left.png"" class=""coveredImage test"" style = ""width:100px; height:100px;position:fixed; top:25%;        transform: translate(-50%, -50%);left:61.5%""></img><img src=""media/f.png""style = ""width:30px x; height:30px;position:fixed; top:43%;    transform: translate(-50%, -50%);left:40%""></img><img src=""media/j.png""style = ""width:30px; height:30px;position:fixed; top:43%;    transform: translate(-50%, -50%);left:60%""></img>","media/stimuli/animate_002_right.png","animate","right","pair","media/stimuli/animate_002_right.png","animate","right","pair","media/stimuli/animate_002_left.png","animate","left","pair","filler_pose","","","",""
