"success","timeout","failed_images","failed_audio","failed_video","trial_type","trial_index","time_elapsed","internal_node_id","subject","prolific_id","study","session","window_width","window_height","view_history","rt","stimulus_type","response","question_order","rating_type","stimulus","target","target_animacy","target_pose","target_number","left","left_animacy","left_pose","left_number","right","right_animacy","right_pose","right_number","comparison_type","rating_stimulus","rating_animacy","rating_number","rating_pose"
"true","false","[]","[]","[]","preload","0","1022","0.0-0.0","SS1678233213638","5c60a763dff4b30001aa98ee","6406d7f26dd5b7fc1e3377bd","6407ce781fca9f44fcd21494","1614","849","","","","","","","","","","","","","","","","","","","","","","","",""
"","","","","","instructions","1","2819","0.0-1.0","SS1678233213638","5c60a763dff4b30001aa98ee","6406d7f26dd5b7fc1e3377bd","6407ce781fca9f44fcd21494","1614","849","[{""page_index"":0,""viewing_time"":1796}]","1796","","","","","","","","","","","","","","","","","","","","","",""
"","","","","","instructions","2","7049","0.0-2.0","SS1678233213638","5c60a763dff4b30001aa98ee","6406d7f26dd5b7fc1e3377bd","6407ce781fca9f44fcd21494","1614","849","[{""page_index"":0,""viewing_time"":2218}]","2219","instructions","","","","","","","","","","","","","","","","","","","","",""
"","","","","","instructions","3","9513","0.0-3.0","SS1678233213638","5c60a763dff4b30001aa98ee","6406d7f26dd5b7fc1e3377bd","6407ce781fca9f44fcd21494","1614","849","[{""page_index"":0,""viewing_time"":2463}]","2463","instructions","","","","","","","","","","","","","","","","","","","","",""
"","","","","","survey-likert","4","21056","0.0-4.0","SS1678233213638","5c60a763dff4b30001aa98ee","6406d7f26dd5b7fc1e3377bd","6407ce781fca9f44fcd21494","1614","849","","11541","","{""Q0"":2}","[0]","anchoring","","","","","","","","","","","","","","","","","",""
"","","","","","survey-likert","5","29167","0.0-5.0","SS1678233213638","5c60a763dff4b30001aa98ee","6406d7f26dd5b7fc1e3377bd","6407ce781fca9f44fcd21494","1614","849","","8108","","{""Q0"":3}","[0]","anchoring","","","","","","","","","","","","","","","","","",""
"","","","","","instructions","6","31090","0.0-6.0","SS1678233213638","5c60a763dff4b30001aa98ee","6406d7f26dd5b7fc1e3377bd","6407ce781fca9f44fcd21494","1614","849","[{""page_index"":0,""viewing_time"":1921}]","1921","instructions","","","","","","","","","","","","","","","","","","","","",""
"true","","","","","fullscreen","7","33481","0.0-7.0","SS1678233213638","5c60a763dff4b30001aa98ee","6406d7f26dd5b7fc1e3377bd","6407ce781fca9f44fcd21494","1614","849","","","","","","","","","","","","","","","","","","","","","","","",""
"","","","","","html-keyboard-response","8","66275","0.0-8.0","SS1678233213638","5c60a763dff4b30001aa98ee","6406d7f26dd5b7fc1e3377bd","6407ce781fca9f44fcd21494","1614","849","","32793","","j","","","<img src=""media/stimuli/animate_008_left.png"" class=""coveredImage test"" style = ""width:100px; height:100px; position:fixed; top:10%;    transform: translate(-50%, -50%);left:48%""></img><img src=""media/stimuli/animate_003_left.png"" class=""coveredImage test"" style = ""width:100px; height:100px;position:fixed; top:25%;        transform: translate(-50%, -50%);left:38%""></img><img src=""media/stimuli/animate_008_left.png"" class=""coveredImage test"" style = ""width:100px; height:100px;position:fixed; top:25%;        transform: translate(-50%, -50%);left:54.5%""></img><img src=""media/stimuli/animate_008_left.png"" class=""coveredImage test"" style = ""width:100px; height:100px;position:fixed; top:25%;        transform: translate(-50%, -50%);left:61.5%""></img><img src=""media/f.png""style = ""width:30px x; height:30px;position:fixed; top:43%;    transform: translate(-50%, -50%);left:40%""></img><img src=""media/j.png""style = ""width:30px; height:30px;position:fixed; top:43%;    transform: translate(-50%, -50%);left:60%""></img>","media/stimuli/animate_008_left.png","animate","left","single","media/stimuli/animate_003_left.png","animate","left","single","media/stimuli/animate_008_left.png","animate","left","pair","identity_number","","","",""
"","","","","","html-keyboard-response","9","73050","0.0-9.0","SS1678233213638","5c60a763dff4b30001aa98ee","6406d7f26dd5b7fc1e3377bd","6407ce781fca9f44fcd21494","1614","849","","6774","","j","","","<img src=""media/stimuli/animate_008_left.png"" class=""coveredImage test"" style = ""width:100px; height:100px; position:fixed; top:10%;    transform: translate(-50%, -50%);left:48%""></img><img src=""media/stimuli/inanimate_002_left.png"" class=""coveredImage test"" style = ""width:100px; height:100px;position:fixed; top:25%;        transform: translate(-50%, -50%);left:38%""></img><img src=""media/stimuli/animate_010_left.png"" class=""coveredImage test"" style = ""width:100px; height:100px;position:fixed; top:25%;        transform: translate(-50%, -50%);left:58%""></img><img src=""media/f.png""style = ""width:30px x; height:30px;position:fixed; top:43%;    transform: translate(-50%, -50%);left:40%""></img><img src=""media/j.png""style = ""width:30px; height:30px;position:fixed; top:43%;    transform: translate(-50%, -50%);left:60%""></img>","media/stimuli/animate_008_left.png","animate","left","single","media/stimuli/inanimate_002_left.png","inanimate","left","single","media/stimuli/animate_010_left.png","animate","left","single","animacy_identity","","","",""
"","","","","","html-keyboard-response","10","74628","0.0-10.0","SS1678233213638","5c60a763dff4b30001aa98ee","6406d7f26dd5b7fc1e3377bd","6407ce781fca9f44fcd21494","1614","849","","1575","","j","","","<img src=""media/stimuli/animate_008_right.png"" class=""coveredImage test"" style = ""width:100px; height:100px; position:fixed; top:10%;    transform: translate(-50%, -50%);left:48%""></img><img src=""media/stimuli/inanimate_006_right.png"" class=""coveredImage test"" style = ""width:100px; height:100px;position:fixed; top:25%;        transform: translate(-50%, -50%);left:34.5%""></img><img src=""media/stimuli/inanimate_006_right.png"" class=""coveredImage test"" style = ""width:100px; height:100px;position:fixed; top:25%;        transform: translate(-50%, -50%);left:41.5%""></img><img src=""media/stimuli/animate_008_left.png"" class=""coveredImage test"" style = ""width:100px; height:100px;position:fixed; top:25%;        transform: translate(-50%, -50%);left:54.5%""></img><img src=""media/stimuli/animate_008_left.png"" class=""coveredImage test"" style = ""width:100px; height:100px;position:fixed; top:25%;        transform: translate(-50%, -50%);left:61.5%""></img><img src=""media/f.png""style = ""width:30px x; height:30px;position:fixed; top:43%;    transform: translate(-50%, -50%);left:40%""></img><img src=""media/j.png""style = ""width:30px; height:30px;position:fixed; top:43%;    transform: translate(-50%, -50%);left:60%""></img>","media/stimuli/animate_008_right.png","animate","right","single","media/stimuli/inanimate_006_right.png","inanimate","right","pair","media/stimuli/animate_008_left.png","animate","left","pair","animacy_pose","","","",""
"","","","","","html-keyboard-response","11","77554","0.0-11.0","SS1678233213638","5c60a763dff4b30001aa98ee","6406d7f26dd5b7fc1e3377bd","6407ce781fca9f44fcd21494","1614","849","","2924","","f","","","<img src=""media/stimuli/animate_012_right.png"" class=""coveredImage test"" style = ""width:100px; height:100px; position:fixed; top:10%;    transform: translate(-50%, -50%);left:44.5%""></img><img src=""media/stimuli/animate_012_right.png"" class=""coveredImage test"" style = ""width:100px; height:100px; position:fixed; top:10%;    transform: translate(-50%, -50%);left:51.5%""></img><img src=""media/stimuli/animate_012_right.png"" class=""coveredImage test"" style = ""width:100px; height:100px;position:fixed; top:25%;        transform: translate(-50%, -50%);left:38%""></img><img src=""media/stimuli/animate_012_left.png"" class=""coveredImage test"" style = ""width:100px; height:100px;position:fixed; top:25%;        transform: translate(-50%, -50%);left:54.5%""></img><img src=""media/stimuli/animate_012_left.png"" class=""coveredImage test"" style = ""width:100px; height:100px;position:fixed; top:25%;        transform: translate(-50%, -50%);left:61.5%""></img><img src=""media/f.png""style = ""width:30px x; height:30px;position:fixed; top:43%;    transform: translate(-50%, -50%);left:40%""></img><img src=""media/j.png""style = ""width:30px; height:30px;position:fixed; top:43%;    transform: translate(-50%, -50%);left:60%""></img>","media/stimuli/animate_012_right.png","animate","right","pair","media/stimuli/animate_012_right.png","animate","right","single","media/stimuli/animate_012_left.png","animate","left","pair","number_pose","","","",""
"","","","","","html-keyboard-response","12","79041","0.0-12.0","SS1678233213638","5c60a763dff4b30001aa98ee","6406d7f26dd5b7fc1e3377bd","6407ce781fca9f44fcd21494","1614","849","","1486","","j","","","<img src=""media/stimuli/inanimate_005_left.png"" class=""coveredImage test"" style = ""width:100px; height:100px; position:fixed; top:10%;    transform: translate(-50%, -50%);left:48%""></img><img src=""media/stimuli/animate_006_left.png"" class=""coveredImage test"" style = ""width:100px; height:100px;position:fixed; top:25%;        transform: translate(-50%, -50%);left:38%""></img><img src=""media/stimuli/inanimate_005_left.png"" class=""coveredImage test"" style = ""width:100px; height:100px;position:fixed; top:25%;        transform: translate(-50%, -50%);left:54.5%""></img><img src=""media/stimuli/inanimate_005_left.png"" class=""coveredImage test"" style = ""width:100px; height:100px;position:fixed; top:25%;        transform: translate(-50%, -50%);left:61.5%""></img><img src=""media/f.png""style = ""width:30px x; height:30px;position:fixed; top:43%;    transform: translate(-50%, -50%);left:40%""></img><img src=""media/j.png""style = ""width:30px; height:30px;position:fixed; top:43%;    transform: translate(-50%, -50%);left:60%""></img>","media/stimuli/inanimate_005_left.png","inanimate","left","single","media/stimuli/animate_006_left.png","animate","left","single","media/stimuli/inanimate_005_left.png","inanimate","left","pair","animacy_number","","","",""
"","","","","","html-keyboard-response","13","80851","0.0-13.0","SS1678233213638","5c60a763dff4b30001aa98ee","6406d7f26dd5b7fc1e3377bd","6407ce781fca9f44fcd21494","1614","849","","1808","","j","","","<img src=""media/stimuli/animate_002_left.png"" class=""coveredImage test"" style = ""width:100px; height:100px; position:fixed; top:10%;    transform: translate(-50%, -50%);left:44.5%""></img><img src=""media/stimuli/animate_002_left.png"" class=""coveredImage test"" style = ""width:100px; height:100px; position:fixed; top:10%;    transform: translate(-50%, -50%);left:51.5%""></img><img src=""media/stimuli/animate_002_right.png"" class=""coveredImage test"" style = ""width:100px; height:100px;position:fixed; top:25%;        transform: translate(-50%, -50%);left:34.5%""></img><img src=""media/stimuli/animate_002_right.png"" class=""coveredImage test"" style = ""width:100px; height:100px;position:fixed; top:25%;        transform: translate(-50%, -50%);left:41.5%""></img><img src=""media/stimuli/animate_002_left.png"" class=""coveredImage test"" style = ""width:100px; height:100px;position:fixed; top:25%;        transform: translate(-50%, -50%);left:58%""></img><img src=""media/f.png""style = ""width:30px x; height:30px;position:fixed; top:43%;    transform: translate(-50%, -50%);left:40%""></img><img src=""media/j.png""style = ""width:30px; height:30px;position:fixed; top:43%;    transform: translate(-50%, -50%);left:60%""></img>","media/stimuli/animate_002_left.png","animate","left","pair","media/stimuli/animate_002_right.png","animate","right","pair","media/stimuli/animate_002_left.png","animate","left","single","pose_number","","","",""
"","","","","","html-keyboard-response","14","82057","0.0-14.0","SS1678233213638","5c60a763dff4b30001aa98ee","6406d7f26dd5b7fc1e3377bd","6407ce781fca9f44fcd21494","1614","849","","1204","","f","","","<img src=""media/stimuli/animate_001_right.png"" class=""coveredImage test"" style = ""width:100px; height:100px; position:fixed; top:10%;    transform: translate(-50%, -50%);left:44.5%""></img><img src=""media/stimuli/animate_001_right.png"" class=""coveredImage test"" style = ""width:100px; height:100px; position:fixed; top:10%;    transform: translate(-50%, -50%);left:51.5%""></img><img src=""media/stimuli/animate_001_right.png"" class=""coveredImage test"" style = ""width:100px; height:100px;position:fixed; top:25%;        transform: translate(-50%, -50%);left:38%""></img><img src=""media/stimuli/inanimate_001_right.png"" class=""coveredImage test"" style = ""width:100px; height:100px;position:fixed; top:25%;        transform: translate(-50%, -50%);left:54.5%""></img><img src=""media/stimuli/inanimate_001_right.png"" class=""coveredImage test"" style = ""width:100px; height:100px;position:fixed; top:25%;        transform: translate(-50%, -50%);left:61.5%""></img><img src=""media/f.png""style = ""width:30px x; height:30px;position:fixed; top:43%;    transform: translate(-50%, -50%);left:40%""></img><img src=""media/j.png""style = ""width:30px; height:30px;position:fixed; top:43%;    transform: translate(-50%, -50%);left:60%""></img>","media/stimuli/animate_001_right.png","animate","right","pair","media/stimuli/animate_001_right.png","animate","right","single","media/stimuli/inanimate_001_right.png","inanimate","right","pair","number_animacy","","","",""
"","","","","","html-keyboard-response","15","83330","0.0-15.0","SS1678233213638","5c60a763dff4b30001aa98ee","6406d7f26dd5b7fc1e3377bd","6407ce781fca9f44fcd21494","1614","849","","1271","","j","","","<img src=""media/stimuli/inanimate_012_left.png"" class=""coveredImage test"" style = ""width:100px; height:100px; position:fixed; top:10%;    transform: translate(-50%, -50%);left:44.5%""></img><img src=""media/stimuli/inanimate_012_left.png"" class=""coveredImage test"" style = ""width:100px; height:100px; position:fixed; top:10%;    transform: translate(-50%, -50%);left:51.5%""></img><img src=""media/stimuli/animate_009_left.png"" class=""coveredImage test"" style = ""width:100px; height:100px;position:fixed; top:25%;        transform: translate(-50%, -50%);left:34.5%""></img><img src=""media/stimuli/animate_009_left.png"" class=""coveredImage test"" style = ""width:100px; height:100px;position:fixed; top:25%;        transform: translate(-50%, -50%);left:41.5%""></img><img src=""media/stimuli/inanimate_012_left.png"" class=""coveredImage test"" style = ""width:100px; height:100px;position:fixed; top:25%;        transform: translate(-50%, -50%);left:58%""></img><img src=""media/f.png""style = ""width:30px x; height:30px;position:fixed; top:43%;    transform: translate(-50%, -50%);left:40%""></img><img src=""media/j.png""style = ""width:30px; height:30px;position:fixed; top:43%;    transform: translate(-50%, -50%);left:60%""></img>","media/stimuli/inanimate_012_left.png","inanimate","left","pair","media/stimuli/animate_009_left.png","animate","left","pair","media/stimuli/inanimate_012_left.png","inanimate","left","single","animacy_number","","","",""
"","","","","","html-keyboard-response","16","84529","0.0-16.0","SS1678233213638","5c60a763dff4b30001aa98ee","6406d7f26dd5b7fc1e3377bd","6407ce781fca9f44fcd21494","1614","849","","1198","","j","","","<img src=""media/stimuli/inanimate_010_left.png"" class=""coveredImage test"" style = ""width:100px; height:100px; position:fixed; top:10%;    transform: translate(-50%, -50%);left:44.5%""></img><img src=""media/stimuli/inanimate_010_left.png"" class=""coveredImage test"" style = ""width:100px; height:100px; position:fixed; top:10%;    transform: translate(-50%, -50%);left:51.5%""></img><img src=""media/stimuli/inanimate_010_left.png"" class=""coveredImage test"" style = ""width:100px; height:100px;position:fixed; top:25%;        transform: translate(-50%, -50%);left:38%""></img><img src=""media/stimuli/inanimate_010_right.png"" class=""coveredImage test"" style = ""width:100px; height:100px;position:fixed; top:25%;        transform: translate(-50%, -50%);left:54.5%""></img><img src=""media/stimuli/inanimate_010_right.png"" class=""coveredImage test"" style = ""width:100px; height:100px;position:fixed; top:25%;        transform: translate(-50%, -50%);left:61.5%""></img><img src=""media/f.png""style = ""width:30px x; height:30px;position:fixed; top:43%;    transform: translate(-50%, -50%);left:40%""></img><img src=""media/j.png""style = ""width:30px; height:30px;position:fixed; top:43%;    transform: translate(-50%, -50%);left:60%""></img>","media/stimuli/inanimate_010_left.png","inanimate","left","pair","media/stimuli/inanimate_010_left.png","inanimate","left","single","media/stimuli/inanimate_010_right.png","inanimate","right","pair","number_pose","","","",""
"","","","","","html-keyboard-response","17","85809","0.0-17.0","SS1678233213638","5c60a763dff4b30001aa98ee","6406d7f26dd5b7fc1e3377bd","6407ce781fca9f44fcd21494","1614","849","","1278","","j","","","<img src=""media/stimuli/animate_011_right.png"" class=""coveredImage test"" style = ""width:100px; height:100px; position:fixed; top:10%;    transform: translate(-50%, -50%);left:44.5%""></img><img src=""media/stimuli/animate_011_right.png"" class=""coveredImage test"" style = ""width:100px; height:100px; position:fixed; top:10%;    transform: translate(-50%, -50%);left:51.5%""></img><img src=""media/stimuli/inanimate_002_right.png"" class=""coveredImage test"" style = ""width:100px; height:100px;position:fixed; top:25%;        transform: translate(-50%, -50%);left:34.5%""></img><img src=""media/stimuli/inanimate_002_right.png"" class=""coveredImage test"" style = ""width:100px; height:100px;position:fixed; top:25%;        transform: translate(-50%, -50%);left:41.5%""></img><img src=""media/stimuli/animate_005_right.png"" class=""coveredImage test"" style = ""width:100px; height:100px;position:fixed; top:25%;        transform: translate(-50%, -50%);left:54.5%""></img><img src=""media/stimuli/animate_005_right.png"" class=""coveredImage test"" style = ""width:100px; height:100px;position:fixed; top:25%;        transform: translate(-50%, -50%);left:61.5%""></img><img src=""media/f.png""style = ""width:30px x; height:30px;position:fixed; top:43%;    transform: translate(-50%, -50%);left:40%""></img><img src=""media/j.png""style = ""width:30px; height:30px;position:fixed; top:43%;    transform: translate(-50%, -50%);left:60%""></img>","media/stimuli/animate_011_right.png","animate","right","pair","media/stimuli/inanimate_002_right.png","inanimate","right","pair","media/stimuli/animate_005_right.png","animate","right","pair","animacy_identity","","","",""
"","","","","","html-keyboard-response","18","87225","0.0-18.0","SS1678233213638","5c60a763dff4b30001aa98ee","6406d7f26dd5b7fc1e3377bd","6407ce781fca9f44fcd21494","1614","849","","1414","","j","","","<img src=""media/stimuli/animate_004_left.png"" class=""coveredImage test"" style = ""width:100px; height:100px; position:fixed; top:10%;    transform: translate(-50%, -50%);left:48%""></img><img src=""media/stimuli/animate_004_right.png"" class=""coveredImage test"" style = ""width:100px; height:100px;position:fixed; top:25%;        transform: translate(-50%, -50%);left:38%""></img><img src=""media/stimuli/animate_004_left.png"" class=""coveredImage test"" style = ""width:100px; height:100px;position:fixed; top:25%;        transform: translate(-50%, -50%);left:54.5%""></img><img src=""media/stimuli/animate_004_left.png"" class=""coveredImage test"" style = ""width:100px; height:100px;position:fixed; top:25%;        transform: translate(-50%, -50%);left:61.5%""></img><img src=""media/f.png""style = ""width:30px x; height:30px;position:fixed; top:43%;    transform: translate(-50%, -50%);left:40%""></img><img src=""media/j.png""style = ""width:30px; height:30px;position:fixed; top:43%;    transform: translate(-50%, -50%);left:60%""></img>","media/stimuli/animate_004_left.png","animate","left","single","media/stimuli/animate_004_right.png","animate","right","single","media/stimuli/animate_004_left.png","animate","left","pair","pose_number","","","",""
"","","","","","html-keyboard-response","19","88761","0.0-19.0","SS1678233213638","5c60a763dff4b30001aa98ee","6406d7f26dd5b7fc1e3377bd","6407ce781fca9f44fcd21494","1614","849","","1534","","j","","","<img src=""media/stimuli/inanimate_006_left.png"" class=""coveredImage test"" style = ""width:100px; height:100px; position:fixed; top:10%;    transform: translate(-50%, -50%);left:44.5%""></img><img src=""media/stimuli/inanimate_006_left.png"" class=""coveredImage test"" style = ""width:100px; height:100px; position:fixed; top:10%;    transform: translate(-50%, -50%);left:51.5%""></img><img src=""media/stimuli/inanimate_006_right.png"" class=""coveredImage test"" style = ""width:100px; height:100px;position:fixed; top:25%;        transform: translate(-50%, -50%);left:34.5%""></img><img src=""media/stimuli/inanimate_006_right.png"" class=""coveredImage test"" style = ""width:100px; height:100px;position:fixed; top:25%;        transform: translate(-50%, -50%);left:41.5%""></img><img src=""media/stimuli/inanimate_006_left.png"" class=""coveredImage test"" style = ""width:100px; height:100px;position:fixed; top:25%;        transform: translate(-50%, -50%);left:58%""></img><img src=""media/f.png""style = ""width:30px x; height:30px;position:fixed; top:43%;    transform: translate(-50%, -50%);left:40%""></img><img src=""media/j.png""style = ""width:30px; height:30px;position:fixed; top:43%;    transform: translate(-50%, -50%);left:60%""></img>","media/stimuli/inanimate_006_left.png","inanimate","left","pair","media/stimuli/inanimate_006_right.png","inanimate","right","pair","media/stimuli/inanimate_006_left.png","inanimate","left","single","pose_number","","","",""
"","","","","","html-keyboard-response","20","92273","0.0-20.0","SS1678233213638","5c60a763dff4b30001aa98ee","6406d7f26dd5b7fc1e3377bd","6407ce781fca9f44fcd21494","1614","849","","3510",""," ","","","","","","","","","","","","","","","","","","","",""
"","","","","","html-keyboard-response","21","94673","0.0-21.0","SS1678233213638","5c60a763dff4b30001aa98ee","6406d7f26dd5b7fc1e3377bd","6407ce781fca9f44fcd21494","1614","849","","2398","","f","","","<img src=""media/stimuli/animate_005_left.png"" class=""coveredImage test"" style = ""width:100px; height:100px; position:fixed; top:10%;    transform: translate(-50%, -50%);left:48%""></img><img src=""media/stimuli/animate_005_left.png"" class=""coveredImage test"" style = ""width:100px; height:100px;position:fixed; top:25%;        transform: translate(-50%, -50%);left:38%""></img><img src=""media/stimuli/inanimate_002_left.png"" class=""coveredImage test"" style = ""width:100px; height:100px;position:fixed; top:25%;        transform: translate(-50%, -50%);left:58%""></img><img src=""media/f.png""style = ""width:30px x; height:30px;position:fixed; top:43%;    transform: translate(-50%, -50%);left:40%""></img><img src=""media/j.png""style = ""width:30px; height:30px;position:fixed; top:43%;    transform: translate(-50%, -50%);left:60%""></img>","media/stimuli/animate_005_left.png","animate","left","single","media/stimuli/animate_005_left.png","animate","left","single","media/stimuli/inanimate_002_left.png","inanimate","left","single","filler_animacy","","","",""
"","","","","","html-keyboard-response","22","96089","0.0-22.0","SS1678233213638","5c60a763dff4b30001aa98ee","6406d7f26dd5b7fc1e3377bd","6407ce781fca9f44fcd21494","1614","849","","1413","","f","","","<img src=""media/stimuli/inanimate_012_left.png"" class=""coveredImage test"" style = ""width:100px; height:100px; position:fixed; top:10%;    transform: translate(-50%, -50%);left:44.5%""></img><img src=""media/stimuli/inanimate_012_left.png"" class=""coveredImage test"" style = ""width:100px; height:100px; position:fixed; top:10%;    transform: translate(-50%, -50%);left:51.5%""></img><img src=""media/stimuli/inanimate_009_left.png"" class=""coveredImage test"" style = ""width:100px; height:100px;position:fixed; top:25%;        transform: translate(-50%, -50%);left:34.5%""></img><img src=""media/stimuli/inanimate_009_left.png"" class=""coveredImage test"" style = ""width:100px; height:100px;position:fixed; top:25%;        transform: translate(-50%, -50%);left:41.5%""></img><img src=""media/stimuli/animate_003_left.png"" class=""coveredImage test"" style = ""width:100px; height:100px;position:fixed; top:25%;        transform: translate(-50%, -50%);left:54.5%""></img><img src=""media/stimuli/animate_003_left.png"" class=""coveredImage test"" style = ""width:100px; height:100px;position:fixed; top:25%;        transform: translate(-50%, -50%);left:61.5%""></img><img src=""media/f.png""style = ""width:30px x; height:30px;position:fixed; top:43%;    transform: translate(-50%, -50%);left:40%""></img><img src=""media/j.png""style = ""width:30px; height:30px;position:fixed; top:43%;    transform: translate(-50%, -50%);left:60%""></img>","media/stimuli/inanimate_012_left.png","inanimate","left","pair","media/stimuli/inanimate_009_left.png","inanimate","left","pair","media/stimuli/animate_003_left.png","animate","left","pair","identity_animacy","","","",""
"","","","","","html-keyboard-response","23","97473","0.0-23.0","SS1678233213638","5c60a763dff4b30001aa98ee","6406d7f26dd5b7fc1e3377bd","6407ce781fca9f44fcd21494","1614","849","","1382","","f","","","<img src=""media/stimuli/animate_001_left.png"" class=""coveredImage test"" style = ""width:100px; height:100px; position:fixed; top:10%;    transform: translate(-50%, -50%);left:48%""></img><img src=""media/stimuli/animate_001_left.png"" class=""coveredImage test"" style = ""width:100px; height:100px;position:fixed; top:25%;        transform: translate(-50%, -50%);left:38%""></img><img src=""media/stimuli/animate_001_right.png"" class=""coveredImage test"" style = ""width:100px; height:100px;position:fixed; top:25%;        transform: translate(-50%, -50%);left:58%""></img><img src=""media/f.png""style = ""width:30px x; height:30px;position:fixed; top:43%;    transform: translate(-50%, -50%);left:40%""></img><img src=""media/j.png""style = ""width:30px; height:30px;position:fixed; top:43%;    transform: translate(-50%, -50%);left:60%""></img>","media/stimuli/animate_001_left.png","animate","left","single","media/stimuli/animate_001_left.png","animate","left","single","media/stimuli/animate_001_right.png","animate","right","single","filler_pose","","","",""
"","","","","","html-keyboard-response","24","99096","0.0-24.0","SS1678233213638","5c60a763dff4b30001aa98ee","6406d7f26dd5b7fc1e3377bd","6407ce781fca9f44fcd21494","1614","849","","1622","","f","","","<img src=""media/stimuli/inanimate_003_left.png"" class=""coveredImage test"" style = ""width:100px; height:100px; position:fixed; top:10%;    transform: translate(-50%, -50%);left:48%""></img><img src=""media/stimuli/inanimate_003_left.png"" class=""coveredImage test"" style = ""width:100px; height:100px;position:fixed; top:25%;        transform: translate(-50%, -50%);left:34.5%""></img><img src=""media/stimuli/inanimate_003_left.png"" class=""coveredImage test"" style = ""width:100px; height:100px;position:fixed; top:25%;        transform: translate(-50%, -50%);left:41.5%""></img><img src=""media/stimuli/inanimate_003_right.png"" class=""coveredImage test"" style = ""width:100px; height:100px;position:fixed; top:25%;        transform: translate(-50%, -50%);left:58%""></img><img src=""media/f.png""style = ""width:30px x; height:30px;position:fixed; top:43%;    transform: translate(-50%, -50%);left:40%""></img><img src=""media/j.png""style = ""width:30px; height:30px;position:fixed; top:43%;    transform: translate(-50%, -50%);left:60%""></img>","media/stimuli/inanimate_003_left.png","inanimate","left","single","media/stimuli/inanimate_003_left.png","inanimate","left","pair","media/stimuli/inanimate_003_right.png","inanimate","right","single","number_pose","","","",""
"","","","","","html-keyboard-response","25","100601","0.0-25.0","SS1678233213638","5c60a763dff4b30001aa98ee","6406d7f26dd5b7fc1e3377bd","6407ce781fca9f44fcd21494","1614","849","","1502","","f","","","<img src=""media/stimuli/inanimate_012_left.png"" class=""coveredImage test"" style = ""width:100px; height:100px; position:fixed; top:10%;    transform: translate(-50%, -50%);left:44.5%""></img><img src=""media/stimuli/inanimate_012_left.png"" class=""coveredImage test"" style = ""width:100px; height:100px; position:fixed; top:10%;    transform: translate(-50%, -50%);left:51.5%""></img><img src=""media/stimuli/inanimate_008_left.png"" class=""coveredImage test"" style = ""width:100px; height:100px;position:fixed; top:25%;        transform: translate(-50%, -50%);left:34.5%""></img><img src=""media/stimuli/inanimate_008_left.png"" class=""coveredImage test"" style = ""width:100px; height:100px;position:fixed; top:25%;        transform: translate(-50%, -50%);left:41.5%""></img><img src=""media/stimuli/animate_008_left.png"" class=""coveredImage test"" style = ""width:100px; height:100px;position:fixed; top:25%;        transform: translate(-50%, -50%);left:54.5%""></img><img src=""media/stimuli/animate_008_left.png"" class=""coveredImage test"" style = ""width:100px; height:100px;position:fixed; top:25%;        transform: translate(-50%, -50%);left:61.5%""></img><img src=""media/f.png""style = ""width:30px x; height:30px;position:fixed; top:43%;    transform: translate(-50%, -50%);left:40%""></img><img src=""media/j.png""style = ""width:30px; height:30px;position:fixed; top:43%;    transform: translate(-50%, -50%);left:60%""></img>","media/stimuli/inanimate_012_left.png","inanimate","left","pair","media/stimuli/inanimate_008_left.png","inanimate","left","pair","media/stimuli/animate_008_left.png","animate","left","pair","identity_animacy","","","",""
"","","","","","html-keyboard-response","26","103569","0.0-26.0","SS1678233213638","5c60a763dff4b30001aa98ee","6406d7f26dd5b7fc1e3377bd","6407ce781fca9f44fcd21494","1614","849","","2965","","j","","","<img src=""media/stimuli/animate_001_right.png"" class=""coveredImage test"" style = ""width:100px; height:100px; position:fixed; top:10%;    transform: translate(-50%, -50%);left:44.5%""></img><img src=""media/stimuli/animate_001_right.png"" class=""coveredImage test"" style = ""width:100px; height:100px; position:fixed; top:10%;    transform: translate(-50%, -50%);left:51.5%""></img><img src=""media/stimuli/animate_010_right.png"" class=""coveredImage test"" style = ""width:100px; height:100px;position:fixed; top:25%;        transform: translate(-50%, -50%);left:34.5%""></img><img src=""media/stimuli/animate_010_right.png"" class=""coveredImage test"" style = ""width:100px; height:100px;position:fixed; top:25%;        transform: translate(-50%, -50%);left:41.5%""></img><img src=""media/stimuli/animate_001_left.png"" class=""coveredImage test"" style = ""width:100px; height:100px;position:fixed; top:25%;        transform: translate(-50%, -50%);left:54.5%""></img><img src=""media/stimuli/animate_001_left.png"" class=""coveredImage test"" style = ""width:100px; height:100px;position:fixed; top:25%;        transform: translate(-50%, -50%);left:61.5%""></img><img src=""media/f.png""style = ""width:30px x; height:30px;position:fixed; top:43%;    transform: translate(-50%, -50%);left:40%""></img><img src=""media/j.png""style = ""width:30px; height:30px;position:fixed; top:43%;    transform: translate(-50%, -50%);left:60%""></img>","media/stimuli/animate_001_right.png","animate","right","pair","media/stimuli/animate_010_right.png","animate","right","pair","media/stimuli/animate_001_left.png","animate","left","pair","identity_pose","","","",""
"","","","","","html-keyboard-response","27","104576","0.0-27.0","SS1678233213638","5c60a763dff4b30001aa98ee","6406d7f26dd5b7fc1e3377bd","6407ce781fca9f44fcd21494","1614","849","","1005","","f","","","<img src=""media/stimuli/inanimate_003_left.png"" class=""coveredImage test"" style = ""width:100px; height:100px; position:fixed; top:10%;    transform: translate(-50%, -50%);left:48%""></img><img src=""media/stimuli/inanimate_001_left.png"" class=""coveredImage test"" style = ""width:100px; height:100px;position:fixed; top:25%;        transform: translate(-50%, -50%);left:38%""></img><img src=""media/stimuli/animate_012_left.png"" class=""coveredImage test"" style = ""width:100px; height:100px;position:fixed; top:25%;        transform: translate(-50%, -50%);left:58%""></img><img src=""media/f.png""style = ""width:30px x; height:30px;position:fixed; top:43%;    transform: translate(-50%, -50%);left:40%""></img><img src=""media/j.png""style = ""width:30px; height:30px;position:fixed; top:43%;    transform: translate(-50%, -50%);left:60%""></img>","media/stimuli/inanimate_003_left.png","inanimate","left","single","media/stimuli/inanimate_001_left.png","inanimate","left","single","media/stimuli/animate_012_left.png","animate","left","single","identity_animacy","","","",""
"","","","","","html-keyboard-response","28","105385","0.0-28.0","SS1678233213638","5c60a763dff4b30001aa98ee","6406d7f26dd5b7fc1e3377bd","6407ce781fca9f44fcd21494","1614","849","","806","","j","","","<img src=""media/stimuli/inanimate_012_left.png"" class=""coveredImage test"" style = ""width:100px; height:100px; position:fixed; top:10%;    transform: translate(-50%, -50%);left:44.5%""></img><img src=""media/stimuli/inanimate_012_left.png"" class=""coveredImage test"" style = ""width:100px; height:100px; position:fixed; top:10%;    transform: translate(-50%, -50%);left:51.5%""></img><img src=""media/stimuli/inanimate_009_left.png"" class=""coveredImage test"" style = ""width:100px; height:100px;position:fixed; top:25%;        transform: translate(-50%, -50%);left:34.5%""></img><img src=""media/stimuli/inanimate_009_left.png"" class=""coveredImage test"" style = ""width:100px; height:100px;position:fixed; top:25%;        transform: translate(-50%, -50%);left:41.5%""></img><img src=""media/stimuli/inanimate_012_left.png"" class=""coveredImage test"" style = ""width:100px; height:100px;position:fixed; top:25%;        transform: translate(-50%, -50%);left:58%""></img><img src=""media/f.png""style = ""width:30px x; height:30px;position:fixed; top:43%;    transform: translate(-50%, -50%);left:40%""></img><img src=""media/j.png""style = ""width:30px; height:30px;position:fixed; top:43%;    transform: translate(-50%, -50%);left:60%""></img>","media/stimuli/inanimate_012_left.png","inanimate","left","pair","media/stimuli/inanimate_009_left.png","inanimate","left","pair","media/stimuli/inanimate_012_left.png","inanimate","left","single","identity_number","","","",""
"","","","","","html-keyboard-response","29","106368","0.0-29.0","SS1678233213638","5c60a763dff4b30001aa98ee","6406d7f26dd5b7fc1e3377bd","6407ce781fca9f44fcd21494","1614","849","","981","","j","","","<img src=""media/stimuli/animate_006_right.png"" class=""coveredImage test"" style = ""width:100px; height:100px; position:fixed; top:10%;    transform: translate(-50%, -50%);left:44.5%""></img><img src=""media/stimuli/animate_006_right.png"" class=""coveredImage test"" style = ""width:100px; height:100px; position:fixed; top:10%;    transform: translate(-50%, -50%);left:51.5%""></img><img src=""media/stimuli/animate_006_left.png"" class=""coveredImage test"" style = ""width:100px; height:100px;position:fixed; top:25%;        transform: translate(-50%, -50%);left:34.5%""></img><img src=""media/stimuli/animate_006_left.png"" class=""coveredImage test"" style = ""width:100px; height:100px;position:fixed; top:25%;        transform: translate(-50%, -50%);left:41.5%""></img><img src=""media/stimuli/animate_006_right.png"" class=""coveredImage test"" style = ""width:100px; height:100px;position:fixed; top:25%;        transform: translate(-50%, -50%);left:58%""></img><img src=""media/f.png""style = ""width:30px x; height:30px;position:fixed; top:43%;    transform: translate(-50%, -50%);left:40%""></img><img src=""media/j.png""style = ""width:30px; height:30px;position:fixed; top:43%;    transform: translate(-50%, -50%);left:60%""></img>","media/stimuli/animate_006_right.png","animate","right","pair","media/stimuli/animate_006_left.png","animate","left","pair","media/stimuli/animate_006_right.png","animate","right","single","pose_number","","","",""
"","","","","","html-keyboard-response","30","107120","0.0-30.0","SS1678233213638","5c60a763dff4b30001aa98ee","6406d7f26dd5b7fc1e3377bd","6407ce781fca9f44fcd21494","1614","849","","750","","j","","","<img src=""media/stimuli/inanimate_011_right.png"" class=""coveredImage test"" style = ""width:100px; height:100px; position:fixed; top:10%;    transform: translate(-50%, -50%);left:44.5%""></img><img src=""media/stimuli/inanimate_011_right.png"" class=""coveredImage test"" style = ""width:100px; height:100px; position:fixed; top:10%;    transform: translate(-50%, -50%);left:51.5%""></img><img src=""media/stimuli/animate_008_left.png"" class=""coveredImage test"" style = ""width:100px; height:100px;position:fixed; top:25%;        transform: translate(-50%, -50%);left:34.5%""></img><img src=""media/stimuli/animate_008_left.png"" class=""coveredImage test"" style = ""width:100px; height:100px;position:fixed; top:25%;        transform: translate(-50%, -50%);left:41.5%""></img><img src=""media/stimuli/inanimate_011_right.png"" class=""coveredImage test"" style = ""width:100px; height:100px;position:fixed; top:25%;        transform: translate(-50%, -50%);left:54.5%""></img><img src=""media/stimuli/inanimate_011_right.png"" class=""coveredImage test"" style = ""width:100px; height:100px;position:fixed; top:25%;        transform: translate(-50%, -50%);left:61.5%""></img><img src=""media/f.png""style = ""width:30px x; height:30px;position:fixed; top:43%;    transform: translate(-50%, -50%);left:40%""></img><img src=""media/j.png""style = ""width:30px; height:30px;position:fixed; top:43%;    transform: translate(-50%, -50%);left:60%""></img>","media/stimuli/inanimate_011_right.png","inanimate","right","pair","media/stimuli/animate_008_left.png","animate","left","pair","media/stimuli/inanimate_011_right.png","inanimate","right","pair","animacy_pose","","","",""
"","","","","","html-keyboard-response","31","109360","0.0-31.0","SS1678233213638","5c60a763dff4b30001aa98ee","6406d7f26dd5b7fc1e3377bd","6407ce781fca9f44fcd21494","1614","849","","2237","","f","","","<img src=""media/stimuli/animate_008_right.png"" class=""coveredImage test"" style = ""width:100px; height:100px; position:fixed; top:10%;    transform: translate(-50%, -50%);left:48%""></img><img src=""media/stimuli/animate_008_right.png"" class=""coveredImage test"" style = ""width:100px; height:100px;position:fixed; top:25%;        transform: translate(-50%, -50%);left:34.5%""></img><img src=""media/stimuli/animate_008_right.png"" class=""coveredImage test"" style = ""width:100px; height:100px;position:fixed; top:25%;        transform: translate(-50%, -50%);left:41.5%""></img><img src=""media/stimuli/animate_008_left.png"" class=""coveredImage test"" style = ""width:100px; height:100px;position:fixed; top:25%;        transform: translate(-50%, -50%);left:58%""></img><img src=""media/f.png""style = ""width:30px x; height:30px;position:fixed; top:43%;    transform: translate(-50%, -50%);left:40%""></img><img src=""media/j.png""style = ""width:30px; height:30px;position:fixed; top:43%;    transform: translate(-50%, -50%);left:60%""></img>","media/stimuli/animate_008_right.png","animate","right","single","media/stimuli/animate_008_right.png","animate","right","pair","media/stimuli/animate_008_left.png","animate","left","single","number_pose","","","",""
"","","","","","html-keyboard-response","32","110817","0.0-32.0","SS1678233213638","5c60a763dff4b30001aa98ee","6406d7f26dd5b7fc1e3377bd","6407ce781fca9f44fcd21494","1614","849","","1454","","j","","","<img src=""media/stimuli/inanimate_003_right.png"" class=""coveredImage test"" style = ""width:100px; height:100px; position:fixed; top:10%;    transform: translate(-50%, -50%);left:48%""></img><img src=""media/stimuli/inanimate_004_right.png"" class=""coveredImage test"" style = ""width:100px; height:100px;position:fixed; top:25%;        transform: translate(-50%, -50%);left:38%""></img><img src=""media/stimuli/inanimate_003_left.png"" class=""coveredImage test"" style = ""width:100px; height:100px;position:fixed; top:25%;        transform: translate(-50%, -50%);left:58%""></img><img src=""media/f.png""style = ""width:30px x; height:30px;position:fixed; top:43%;    transform: translate(-50%, -50%);left:40%""></img><img src=""media/j.png""style = ""width:30px; height:30px;position:fixed; top:43%;    transform: translate(-50%, -50%);left:60%""></img>","media/stimuli/inanimate_003_right.png","inanimate","right","single","media/stimuli/inanimate_004_right.png","inanimate","right","single","media/stimuli/inanimate_003_left.png","inanimate","left","single","identity_pose","","","",""
"","","","","","html-keyboard-response","33","112048","0.0-33.0","SS1678233213638","5c60a763dff4b30001aa98ee","6406d7f26dd5b7fc1e3377bd","6407ce781fca9f44fcd21494","1614","849","","1229",""," ","","","","","","","","","","","","","","","","","","","",""
"","","","","","html-keyboard-response","34","112896","0.0-34.0","SS1678233213638","5c60a763dff4b30001aa98ee","6406d7f26dd5b7fc1e3377bd","6407ce781fca9f44fcd21494","1614","849","","845","","f","","","<img src=""media/stimuli/animate_011_left.png"" class=""coveredImage test"" style = ""width:100px; height:100px; position:fixed; top:10%;    transform: translate(-50%, -50%);left:44.5%""></img><img src=""media/stimuli/animate_011_left.png"" class=""coveredImage test"" style = ""width:100px; height:100px; position:fixed; top:10%;    transform: translate(-50%, -50%);left:51.5%""></img><img src=""media/stimuli/animate_011_left.png"" class=""coveredImage test"" style = ""width:100px; height:100px;position:fixed; top:25%;        transform: translate(-50%, -50%);left:38%""></img><img src=""media/stimuli/inanimate_004_right.png"" class=""coveredImage test"" style = ""width:100px; height:100px;position:fixed; top:25%;        transform: translate(-50%, -50%);left:58%""></img><img src=""media/f.png""style = ""width:30px x; height:30px;position:fixed; top:43%;    transform: translate(-50%, -50%);left:40%""></img><img src=""media/j.png""style = ""width:30px; height:30px;position:fixed; top:43%;    transform: translate(-50%, -50%);left:60%""></img>","media/stimuli/animate_011_left.png","animate","left","pair","media/stimuli/animate_011_left.png","animate","left","single","media/stimuli/inanimate_004_right.png","inanimate","right","single","pose_animacy","","","",""
"","","","","","html-keyboard-response","35","113553","0.0-35.0","SS1678233213638","5c60a763dff4b30001aa98ee","6406d7f26dd5b7fc1e3377bd","6407ce781fca9f44fcd21494","1614","849","","654","","j","","","<img src=""media/stimuli/inanimate_009_right.png"" class=""coveredImage test"" style = ""width:100px; height:100px; position:fixed; top:10%;    transform: translate(-50%, -50%);left:48%""></img><img src=""media/stimuli/animate_012_left.png"" class=""coveredImage test"" style = ""width:100px; height:100px;position:fixed; top:25%;        transform: translate(-50%, -50%);left:38%""></img><img src=""media/stimuli/inanimate_009_right.png"" class=""coveredImage test"" style = ""width:100px; height:100px;position:fixed; top:25%;        transform: translate(-50%, -50%);left:58%""></img><img src=""media/f.png""style = ""width:30px x; height:30px;position:fixed; top:43%;    transform: translate(-50%, -50%);left:40%""></img><img src=""media/j.png""style = ""width:30px; height:30px;position:fixed; top:43%;    transform: translate(-50%, -50%);left:60%""></img>","media/stimuli/inanimate_009_right.png","inanimate","right","single","media/stimuli/animate_012_left.png","animate","left","single","media/stimuli/inanimate_009_right.png","inanimate","right","single","animacy_pose","","","",""
"","","","","","html-keyboard-response","36","114169","0.0-36.0","SS1678233213638","5c60a763dff4b30001aa98ee","6406d7f26dd5b7fc1e3377bd","6407ce781fca9f44fcd21494","1614","849","","614","","f","","","<img src=""media/stimuli/animate_001_left.png"" class=""coveredImage test"" style = ""width:100px; height:100px; position:fixed; top:10%;    transform: translate(-50%, -50%);left:44.5%""></img><img src=""media/stimuli/animate_001_left.png"" class=""coveredImage test"" style = ""width:100px; height:100px; position:fixed; top:10%;    transform: translate(-50%, -50%);left:51.5%""></img><img src=""media/stimuli/animate_001_left.png"" class=""coveredImage test"" style = ""width:100px; height:100px;position:fixed; top:25%;        transform: translate(-50%, -50%);left:34.5%""></img><img src=""media/stimuli/animate_001_left.png"" class=""coveredImage test"" style = ""width:100px; height:100px;position:fixed; top:25%;        transform: translate(-50%, -50%);left:41.5%""></img><img src=""media/stimuli/inanimate_001_right.png"" class=""coveredImage test"" style = ""width:100px; height:100px;position:fixed; top:25%;        transform: translate(-50%, -50%);left:54.5%""></img><img src=""media/stimuli/inanimate_001_right.png"" class=""coveredImage test"" style = ""width:100px; height:100px;position:fixed; top:25%;        transform: translate(-50%, -50%);left:61.5%""></img><img src=""media/f.png""style = ""width:30px x; height:30px;position:fixed; top:43%;    transform: translate(-50%, -50%);left:40%""></img><img src=""media/j.png""style = ""width:30px; height:30px;position:fixed; top:43%;    transform: translate(-50%, -50%);left:60%""></img>","media/stimuli/animate_001_left.png","animate","left","pair","media/stimuli/animate_001_left.png","animate","left","pair","media/stimuli/inanimate_001_right.png","inanimate","right","pair","pose_animacy","","","",""
"","","","","","html-keyboard-response","37","115896","0.0-37.0","SS1678233213638","5c60a763dff4b30001aa98ee","6406d7f26dd5b7fc1e3377bd","6407ce781fca9f44fcd21494","1614","849","","1724","","f","","","<img src=""media/stimuli/animate_003_right.png"" class=""coveredImage test"" style = ""width:100px; height:100px; position:fixed; top:10%;    transform: translate(-50%, -50%);left:44.5%""></img><img src=""media/stimuli/animate_003_right.png"" class=""coveredImage test"" style = ""width:100px; height:100px; position:fixed; top:10%;    transform: translate(-50%, -50%);left:51.5%""></img><img src=""media/stimuli/animate_003_right.png"" class=""coveredImage test"" style = ""width:100px; height:100px;position:fixed; top:25%;        transform: translate(-50%, -50%);left:38%""></img><img src=""media/stimuli/animate_003_left.png"" class=""coveredImage test"" style = ""width:100px; height:100px;position:fixed; top:25%;        transform: translate(-50%, -50%);left:54.5%""></img><img src=""media/stimuli/animate_003_left.png"" class=""coveredImage test"" style = ""width:100px; height:100px;position:fixed; top:25%;        transform: translate(-50%, -50%);left:61.5%""></img><img src=""media/f.png""style = ""width:30px x; height:30px;position:fixed; top:43%;    transform: translate(-50%, -50%);left:40%""></img><img src=""media/j.png""style = ""width:30px; height:30px;position:fixed; top:43%;    transform: translate(-50%, -50%);left:60%""></img>","media/stimuli/animate_003_right.png","animate","right","pair","media/stimuli/animate_003_right.png","animate","right","single","media/stimuli/animate_003_left.png","animate","left","pair","number_pose","","","",""
"","","","","","html-keyboard-response","38","116616","0.0-38.0","SS1678233213638","5c60a763dff4b30001aa98ee","6406d7f26dd5b7fc1e3377bd","6407ce781fca9f44fcd21494","1614","849","","717","","j","","","<img src=""media/stimuli/inanimate_005_left.png"" class=""coveredImage test"" style = ""width:100px; height:100px; position:fixed; top:10%;    transform: translate(-50%, -50%);left:48%""></img><img src=""media/stimuli/animate_008_left.png"" class=""coveredImage test"" style = ""width:100px; height:100px;position:fixed; top:25%;        transform: translate(-50%, -50%);left:38%""></img><img src=""media/stimuli/inanimate_005_left.png"" class=""coveredImage test"" style = ""width:100px; height:100px;position:fixed; top:25%;        transform: translate(-50%, -50%);left:54.5%""></img><img src=""media/stimuli/inanimate_005_left.png"" class=""coveredImage test"" style = ""width:100px; height:100px;position:fixed; top:25%;        transform: translate(-50%, -50%);left:61.5%""></img><img src=""media/f.png""style = ""width:30px x; height:30px;position:fixed; top:43%;    transform: translate(-50%, -50%);left:40%""></img><img src=""media/j.png""style = ""width:30px; height:30px;position:fixed; top:43%;    transform: translate(-50%, -50%);left:60%""></img>","media/stimuli/inanimate_005_left.png","inanimate","left","single","media/stimuli/animate_008_left.png","animate","left","single","media/stimuli/inanimate_005_left.png","inanimate","left","pair","animacy_number","","","",""
"","","","","","html-keyboard-response","39","117490","0.0-39.0","SS1678233213638","5c60a763dff4b30001aa98ee","6406d7f26dd5b7fc1e3377bd","6407ce781fca9f44fcd21494","1614","849","","870","","j","","","<img src=""media/stimuli/inanimate_012_right.png"" class=""coveredImage test"" style = ""width:100px; height:100px; position:fixed; top:10%;    transform: translate(-50%, -50%);left:44.5%""></img><img src=""media/stimuli/inanimate_012_right.png"" class=""coveredImage test"" style = ""width:100px; height:100px; position:fixed; top:10%;    transform: translate(-50%, -50%);left:51.5%""></img><img src=""media/stimuli/inanimate_005_right.png"" class=""coveredImage test"" style = ""width:100px; height:100px;position:fixed; top:25%;        transform: translate(-50%, -50%);left:34.5%""></img><img src=""media/stimuli/inanimate_005_right.png"" class=""coveredImage test"" style = ""width:100px; height:100px;position:fixed; top:25%;        transform: translate(-50%, -50%);left:41.5%""></img><img src=""media/stimuli/inanimate_012_left.png"" class=""coveredImage test"" style = ""width:100px; height:100px;position:fixed; top:25%;        transform: translate(-50%, -50%);left:54.5%""></img><img src=""media/stimuli/inanimate_012_left.png"" class=""coveredImage test"" style = ""width:100px; height:100px;position:fixed; top:25%;        transform: translate(-50%, -50%);left:61.5%""></img><img src=""media/f.png""style = ""width:30px x; height:30px;position:fixed; top:43%;    transform: translate(-50%, -50%);left:40%""></img><img src=""media/j.png""style = ""width:30px; height:30px;position:fixed; top:43%;    transform: translate(-50%, -50%);left:60%""></img>","media/stimuli/inanimate_012_right.png","inanimate","right","pair","media/stimuli/inanimate_005_right.png","inanimate","right","pair","media/stimuli/inanimate_012_left.png","inanimate","left","pair","identity_pose","","","",""
"","","","","","html-keyboard-response","40","118120","0.0-40.0","SS1678233213638","5c60a763dff4b30001aa98ee","6406d7f26dd5b7fc1e3377bd","6407ce781fca9f44fcd21494","1614","849","","626","","f","","","<img src=""media/stimuli/inanimate_012_left.png"" class=""coveredImage test"" style = ""width:100px; height:100px; position:fixed; top:10%;    transform: translate(-50%, -50%);left:44.5%""></img><img src=""media/stimuli/inanimate_012_left.png"" class=""coveredImage test"" style = ""width:100px; height:100px; position:fixed; top:10%;    transform: translate(-50%, -50%);left:51.5%""></img><img src=""media/stimuli/inanimate_012_left.png"" class=""coveredImage test"" style = ""width:100px; height:100px;position:fixed; top:25%;        transform: translate(-50%, -50%);left:38%""></img><img src=""media/stimuli/inanimate_007_left.png"" class=""coveredImage test"" style = ""width:100px; height:100px;position:fixed; top:25%;        transform: translate(-50%, -50%);left:54.5%""></img><img src=""media/stimuli/inanimate_007_left.png"" class=""coveredImage test"" style = ""width:100px; height:100px;position:fixed; top:25%;        transform: translate(-50%, -50%);left:61.5%""></img><img src=""media/f.png""style = ""width:30px x; height:30px;position:fixed; top:43%;    transform: translate(-50%, -50%);left:40%""></img><img src=""media/j.png""style = ""width:30px; height:30px;position:fixed; top:43%;    transform: translate(-50%, -50%);left:60%""></img>","media/stimuli/inanimate_012_left.png","inanimate","left","pair","media/stimuli/inanimate_012_left.png","inanimate","left","single","media/stimuli/inanimate_007_left.png","inanimate","left","pair","number_identity","","","",""
"","","","","","html-keyboard-response","41","118736","0.0-41.0","SS1678233213638","5c60a763dff4b30001aa98ee","6406d7f26dd5b7fc1e3377bd","6407ce781fca9f44fcd21494","1614","849","","612","","j","","","<img src=""media/stimuli/inanimate_008_right.png"" class=""coveredImage test"" style = ""width:100px; height:100px; position:fixed; top:10%;    transform: translate(-50%, -50%);left:48%""></img><img src=""media/stimuli/animate_001_right.png"" class=""coveredImage test"" style = ""width:100px; height:100px;position:fixed; top:25%;        transform: translate(-50%, -50%);left:38%""></img><img src=""media/stimuli/inanimate_008_right.png"" class=""coveredImage test"" style = ""width:100px; height:100px;position:fixed; top:25%;        transform: translate(-50%, -50%);left:54.5%""></img><img src=""media/stimuli/inanimate_008_right.png"" class=""coveredImage test"" style = ""width:100px; height:100px;position:fixed; top:25%;        transform: translate(-50%, -50%);left:61.5%""></img><img src=""media/f.png""style = ""width:30px x; height:30px;position:fixed; top:43%;    transform: translate(-50%, -50%);left:40%""></img><img src=""media/j.png""style = ""width:30px; height:30px;position:fixed; top:43%;    transform: translate(-50%, -50%);left:60%""></img>","media/stimuli/inanimate_008_right.png","inanimate","right","single","media/stimuli/animate_001_right.png","animate","right","single","media/stimuli/inanimate_008_right.png","inanimate","right","pair","animacy_number","","","",""
"","","","","","html-keyboard-response","42","119328","0.0-42.0","SS1678233213638","5c60a763dff4b30001aa98ee","6406d7f26dd5b7fc1e3377bd","6407ce781fca9f44fcd21494","1614","849","","588","","j","","","<img src=""media/stimuli/inanimate_010_left.png"" class=""coveredImage test"" style = ""width:100px; height:100px; position:fixed; top:10%;    transform: translate(-50%, -50%);left:48%""></img><img src=""media/stimuli/animate_009_left.png"" class=""coveredImage test"" style = ""width:100px; height:100px;position:fixed; top:25%;        transform: translate(-50%, -50%);left:38%""></img><img src=""media/stimuli/inanimate_010_left.png"" class=""coveredImage test"" style = ""width:100px; height:100px;position:fixed; top:25%;        transform: translate(-50%, -50%);left:54.5%""></img><img src=""media/stimuli/inanimate_010_left.png"" class=""coveredImage test"" style = ""width:100px; height:100px;position:fixed; top:25%;        transform: translate(-50%, -50%);left:61.5%""></img><img src=""media/f.png""style = ""width:30px x; height:30px;position:fixed; top:43%;    transform: translate(-50%, -50%);left:40%""></img><img src=""media/j.png""style = ""width:30px; height:30px;position:fixed; top:43%;    transform: translate(-50%, -50%);left:60%""></img>","media/stimuli/inanimate_010_left.png","inanimate","left","single","media/stimuli/animate_009_left.png","animate","left","single","media/stimuli/inanimate_010_left.png","inanimate","left","pair","animacy_number","","","",""
"","","","","","html-keyboard-response","43","119904","0.0-43.0","SS1678233213638","5c60a763dff4b30001aa98ee","6406d7f26dd5b7fc1e3377bd","6407ce781fca9f44fcd21494","1614","849","","573","","j","","","<img src=""media/stimuli/inanimate_006_right.png"" class=""coveredImage test"" style = ""width:100px; height:100px; position:fixed; top:10%;    transform: translate(-50%, -50%);left:44.5%""></img><img src=""media/stimuli/inanimate_006_right.png"" class=""coveredImage test"" style = ""width:100px; height:100px; position:fixed; top:10%;    transform: translate(-50%, -50%);left:51.5%""></img><img src=""media/stimuli/animate_010_left.png"" class=""coveredImage test"" style = ""width:100px; height:100px;position:fixed; top:25%;        transform: translate(-50%, -50%);left:34.5%""></img><img src=""media/stimuli/animate_010_left.png"" class=""coveredImage test"" style = ""width:100px; height:100px;position:fixed; top:25%;        transform: translate(-50%, -50%);left:41.5%""></img><img src=""media/stimuli/inanimate_006_right.png"" class=""coveredImage test"" style = ""width:100px; height:100px;position:fixed; top:25%;        transform: translate(-50%, -50%);left:54.5%""></img><img src=""media/stimuli/inanimate_006_right.png"" class=""coveredImage test"" style = ""width:100px; height:100px;position:fixed; top:25%;        transform: translate(-50%, -50%);left:61.5%""></img><img src=""media/f.png""style = ""width:30px x; height:30px;position:fixed; top:43%;    transform: translate(-50%, -50%);left:40%""></img><img src=""media/j.png""style = ""width:30px; height:30px;position:fixed; top:43%;    transform: translate(-50%, -50%);left:60%""></img>","media/stimuli/inanimate_006_right.png","inanimate","right","pair","media/stimuli/animate_010_left.png","animate","left","pair","media/stimuli/inanimate_006_right.png","inanimate","right","pair","animacy_pose","","","",""
"","","","","","html-keyboard-response","44","120826","0.0-44.0","SS1678233213638","5c60a763dff4b30001aa98ee","6406d7f26dd5b7fc1e3377bd","6407ce781fca9f44fcd21494","1614","849","","919","","f","","","<img src=""media/stimuli/animate_009_left.png"" class=""coveredImage test"" style = ""width:100px; height:100px; position:fixed; top:10%;    transform: translate(-50%, -50%);left:44.5%""></img><img src=""media/stimuli/animate_009_left.png"" class=""coveredImage test"" style = ""width:100px; height:100px; position:fixed; top:10%;    transform: translate(-50%, -50%);left:51.5%""></img><img src=""media/stimuli/animate_011_left.png"" class=""coveredImage test"" style = ""width:100px; height:100px;position:fixed; top:25%;        transform: translate(-50%, -50%);left:34.5%""></img><img src=""media/stimuli/animate_011_left.png"" class=""coveredImage test"" style = ""width:100px; height:100px;position:fixed; top:25%;        transform: translate(-50%, -50%);left:41.5%""></img><img src=""media/stimuli/inanimate_012_left.png"" class=""coveredImage test"" style = ""width:100px; height:100px;position:fixed; top:25%;        transform: translate(-50%, -50%);left:54.5%""></img><img src=""media/stimuli/inanimate_012_left.png"" class=""coveredImage test"" style = ""width:100px; height:100px;position:fixed; top:25%;        transform: translate(-50%, -50%);left:61.5%""></img><img src=""media/f.png""style = ""width:30px x; height:30px;position:fixed; top:43%;    transform: translate(-50%, -50%);left:40%""></img><img src=""media/j.png""style = ""width:30px; height:30px;position:fixed; top:43%;    transform: translate(-50%, -50%);left:60%""></img>","media/stimuli/animate_009_left.png","animate","left","pair","media/stimuli/animate_011_left.png","animate","left","pair","media/stimuli/inanimate_012_left.png","inanimate","left","pair","identity_animacy","","","",""
"","","","","","html-keyboard-response","45","121720","0.0-45.0","SS1678233213638","5c60a763dff4b30001aa98ee","6406d7f26dd5b7fc1e3377bd","6407ce781fca9f44fcd21494","1614","849","","891","","f","","","<img src=""media/stimuli/animate_004_left.png"" class=""coveredImage test"" style = ""width:100px; height:100px; position:fixed; top:10%;    transform: translate(-50%, -50%);left:44.5%""></img><img src=""media/stimuli/animate_004_left.png"" class=""coveredImage test"" style = ""width:100px; height:100px; position:fixed; top:10%;    transform: translate(-50%, -50%);left:51.5%""></img><img src=""media/stimuli/animate_003_left.png"" class=""coveredImage test"" style = ""width:100px; height:100px;position:fixed; top:25%;        transform: translate(-50%, -50%);left:34.5%""></img><img src=""media/stimuli/animate_003_left.png"" class=""coveredImage test"" style = ""width:100px; height:100px;position:fixed; top:25%;        transform: translate(-50%, -50%);left:41.5%""></img><img src=""media/stimuli/inanimate_005_left.png"" class=""coveredImage test"" style = ""width:100px; height:100px;position:fixed; top:25%;        transform: translate(-50%, -50%);left:54.5%""></img><img src=""media/stimuli/inanimate_005_left.png"" class=""coveredImage test"" style = ""width:100px; height:100px;position:fixed; top:25%;        transform: translate(-50%, -50%);left:61.5%""></img><img src=""media/f.png""style = ""width:30px x; height:30px;position:fixed; top:43%;    transform: translate(-50%, -50%);left:40%""></img><img src=""media/j.png""style = ""width:30px; height:30px;position:fixed; top:43%;    transform: translate(-50%, -50%);left:60%""></img>","media/stimuli/animate_004_left.png","animate","left","pair","media/stimuli/animate_003_left.png","animate","left","pair","media/stimuli/inanimate_005_left.png","inanimate","left","pair","identity_animacy","","","",""
"","","","","","html-keyboard-response","46","122727","0.0-46.0","SS1678233213638","5c60a763dff4b30001aa98ee","6406d7f26dd5b7fc1e3377bd","6407ce781fca9f44fcd21494","1614","849","","1005",""," ","","","","","","","","","","","","","","","","","","","",""
"","","","","","survey-likert","47","129697","0.0-47.0","SS1678233213638","5c60a763dff4b30001aa98ee","6406d7f26dd5b7fc1e3377bd","6407ce781fca9f44fcd21494","1614","849","","6967","","{""Q0"":2}","[0]","complexity","","","","","","","","","","","","","","","media/stimuli/animate_010_right.png","animate","single","right"
"","","","","","survey-likert","48","133523","0.0-48.0","SS1678233213638","5c60a763dff4b30001aa98ee","6406d7f26dd5b7fc1e3377bd","6407ce781fca9f44fcd21494","1614","849","","3821","","{""Q0"":2}","[0]","complexity","","","","","","","","","","","","","","","media/stimuli/animate_003_right.png","animate","pair","right"
"","","","","","survey-likert","49","135919","0.0-49.0","SS1678233213638","5c60a763dff4b30001aa98ee","6406d7f26dd5b7fc1e3377bd","6407ce781fca9f44fcd21494","1614","849","","2391","","{""Q0"":2}","[0]","complexity","","","","","","","","","","","","","","","media/stimuli/inanimate_009_left.png","inanimate","pair","left"
"","","","","","survey-likert","50","137786","0.0-50.0","SS1678233213638","5c60a763dff4b30001aa98ee","6406d7f26dd5b7fc1e3377bd","6407ce781fca9f44fcd21494","1614","849","","1863","","{""Q0"":2}","[0]","complexity","","","","","","","","","","","","","","","media/stimuli/animate_006_right.png","animate","pair","right"
"","","","","","survey-likert","51","139676","0.0-51.0","SS1678233213638","5c60a763dff4b30001aa98ee","6406d7f26dd5b7fc1e3377bd","6407ce781fca9f44fcd21494","1614","849","","1886","","{""Q0"":2}","[0]","complexity","","","","","","","","","","","","","","","media/stimuli/animate_009_left.png","animate","pair","left"
"","","","","","survey-likert","52","141882","0.0-52.0","SS1678233213638","5c60a763dff4b30001aa98ee","6406d7f26dd5b7fc1e3377bd","6407ce781fca9f44fcd21494","1614","849","","2200","","{""Q0"":2}","[0]","complexity","","","","","","","","","","","","","","","media/stimuli/inanimate_006_right.png","inanimate","single","right"
"","","","","","survey-likert","53","143580","0.0-53.0","SS1678233213638","5c60a763dff4b30001aa98ee","6406d7f26dd5b7fc1e3377bd","6407ce781fca9f44fcd21494","1614","849","","1694","","{""Q0"":2}","[0]","complexity","","","","","","","","","","","","","","","media/stimuli/animate_011_left.png","animate","pair","left"
"","","","","","survey-likert","54","145357","0.0-54.0","SS1678233213638","5c60a763dff4b30001aa98ee","6406d7f26dd5b7fc1e3377bd","6407ce781fca9f44fcd21494","1614","849","","1772","","{""Q0"":2}","[0]","complexity","","","","","","","","","","","","","","","media/stimuli/animate_008_right.png","animate","single","right"
"","","","","","survey-likert","55","148429","0.0-55.0","SS1678233213638","5c60a763dff4b30001aa98ee","6406d7f26dd5b7fc1e3377bd","6407ce781fca9f44fcd21494","1614","849","","3067","","{""Q0"":2}","[0]","complexity","","","","","","","","","","","","","","","media/stimuli/inanimate_010_left.png","inanimate","single","left"
"","","","","","survey-likert","56","152760","0.0-56.0","SS1678233213638","5c60a763dff4b30001aa98ee","6406d7f26dd5b7fc1e3377bd","6407ce781fca9f44fcd21494","1614","849","","4327","","{""Q0"":3}","[0]","complexity","","","","","","","","","","","","","","","media/stimuli/animate_001_left.png","animate","single","left"
"","","","","","survey-likert","57","156530","0.0-57.0","SS1678233213638","5c60a763dff4b30001aa98ee","6406d7f26dd5b7fc1e3377bd","6407ce781fca9f44fcd21494","1614","849","","3764","","{""Q0"":3}","[0]","complexity","","","","","","","","","","","","","","","media/stimuli/animate_008_right.png","animate","pair","right"
"","","","","","survey-likert","58","160163","0.0-58.0","SS1678233213638","5c60a763dff4b30001aa98ee","6406d7f26dd5b7fc1e3377bd","6407ce781fca9f44fcd21494","1614","849","","3628","","{""Q0"":3}","[0]","complexity","","","","","","","","","","","","","","","media/stimuli/animate_012_right.png","animate","pair","right"
"","","","","","html-keyboard-response","59","161166","0.0-59.0","SS1678233213638","5c60a763dff4b30001aa98ee","6406d7f26dd5b7fc1e3377bd","6407ce781fca9f44fcd21494","1614","849","","999",""," ","","","","","","","","","","","","","","","","","","","",""
"","","","","","survey-likert","60","166508","0.0-60.0","SS1678233213638","5c60a763dff4b30001aa98ee","6406d7f26dd5b7fc1e3377bd","6407ce781fca9f44fcd21494","1614","849","","5339","","{""Q0"":3}","[0]","complexity","","","","","","","","","","","","","","","media/stimuli/animate_004_right.png","animate","pair","right"
"","","","","","survey-likert","61","170220","0.0-61.0","SS1678233213638","5c60a763dff4b30001aa98ee","6406d7f26dd5b7fc1e3377bd","6407ce781fca9f44fcd21494","1614","849","","3707","","{""Q0"":3}","[0]","complexity","","","","","","","","","","","","","","","media/stimuli/animate_011_right.png","animate","single","right"
"","","","","","survey-likert","62","174169","0.0-62.0","SS1678233213638","5c60a763dff4b30001aa98ee","6406d7f26dd5b7fc1e3377bd","6407ce781fca9f44fcd21494","1614","849","","3943","","{""Q0"":3}","[0]","complexity","","","","","","","","","","","","","","","media/stimuli/inanimate_012_left.png","inanimate","single","left"
"","","","","","survey-likert","63","177960","0.0-63.0","SS1678233213638","5c60a763dff4b30001aa98ee","6406d7f26dd5b7fc1e3377bd","6407ce781fca9f44fcd21494","1614","849","","3786","","{""Q0"":3}","[0]","complexity","","","","","","","","","","","","","","","media/stimuli/animate_005_left.png","animate","pair","left"
"","","","","","survey-likert","64","180581","0.0-64.0","SS1678233213638","5c60a763dff4b30001aa98ee","6406d7f26dd5b7fc1e3377bd","6407ce781fca9f44fcd21494","1614","849","","2616","","{""Q0"":3}","[0]","complexity","","","","","","","","","","","","","","","media/stimuli/animate_010_left.png","animate","single","left"
"","","","","","survey-likert","65","182472","0.0-65.0","SS1678233213638","5c60a763dff4b30001aa98ee","6406d7f26dd5b7fc1e3377bd","6407ce781fca9f44fcd21494","1614","849","","1886","","{""Q0"":3}","[0]","complexity","","","","","","","","","","","","","","","media/stimuli/inanimate_009_left.png","inanimate","single","left"
"","","","","","survey-likert","66","183810","0.0-66.0","SS1678233213638","5c60a763dff4b30001aa98ee","6406d7f26dd5b7fc1e3377bd","6407ce781fca9f44fcd21494","1614","849","","1334","","{""Q0"":3}","[0]","complexity","","","","","","","","","","","","","","","media/stimuli/inanimate_012_right.png","inanimate","pair","right"
"","","","","","survey-likert","67","185048","0.0-67.0","SS1678233213638","5c60a763dff4b30001aa98ee","6406d7f26dd5b7fc1e3377bd","6407ce781fca9f44fcd21494","1614","849","","1233","","{""Q0"":3}","[0]","complexity","","","","","","","","","","","","","","","media/stimuli/inanimate_008_left.png","inanimate","single","left"
"","","","","","survey-likert","68","186173","0.0-68.0","SS1678233213638","5c60a763dff4b30001aa98ee","6406d7f26dd5b7fc1e3377bd","6407ce781fca9f44fcd21494","1614","849","","1120","","{""Q0"":3}","[0]","complexity","","","","","","","","","","","","","","","media/stimuli/inanimate_006_right.png","inanimate","pair","right"
"","","","","","survey-likert","69","187399","0.0-69.0","SS1678233213638","5c60a763dff4b30001aa98ee","6406d7f26dd5b7fc1e3377bd","6407ce781fca9f44fcd21494","1614","849","","1221","","{""Q0"":3}","[0]","complexity","","","","","","","","","","","","","","","media/stimuli/animate_010_right.png","animate","pair","right"
"","","","","","survey-likert","70","188906","0.0-70.0","SS1678233213638","5c60a763dff4b30001aa98ee","6406d7f26dd5b7fc1e3377bd","6407ce781fca9f44fcd21494","1614","849","","1502","","{""Q0"":3}","[0]","complexity","","","","","","","","","","","","","","","media/stimuli/inanimate_005_right.png","inanimate","pair","right"
"","","","","","survey-likert","71","190932","0.0-71.0","SS1678233213638","5c60a763dff4b30001aa98ee","6406d7f26dd5b7fc1e3377bd","6407ce781fca9f44fcd21494","1614","849","","2020","","{""Q0"":3}","[0]","complexity","","","","","","","","","","","","","","","media/stimuli/inanimate_005_right.png","inanimate","single","right"
"","","","","","html-keyboard-response","72","191933","0.0-72.0","SS1678233213638","5c60a763dff4b30001aa98ee","6406d7f26dd5b7fc1e3377bd","6407ce781fca9f44fcd21494","1614","849","","996",""," ","","","","","","","","","","","","","","","","","","","",""
"","","","","","survey-likert","73","197096","0.0-73.0","SS1678233213638","5c60a763dff4b30001aa98ee","6406d7f26dd5b7fc1e3377bd","6407ce781fca9f44fcd21494","1614","849","","5159","","{""Q0"":3}","[0]","complexity","","","","","","","","","","","","","","","media/stimuli/inanimate_004_left.png","inanimate","pair","left"
"","","","","","survey-likert","74","198829","0.0-74.0","SS1678233213638","5c60a763dff4b30001aa98ee","6406d7f26dd5b7fc1e3377bd","6407ce781fca9f44fcd21494","1614","849","","1727","","{""Q0"":3}","[0]","complexity","","","","","","","","","","","","","","","media/stimuli/inanimate_001_right.png","inanimate","pair","right"
"","","","","","survey-likert","75","201563","0.0-75.0","SS1678233213638","5c60a763dff4b30001aa98ee","6406d7f26dd5b7fc1e3377bd","6407ce781fca9f44fcd21494","1614","849","","2729","","{""Q0"":3}","[0]","complexity","","","","","","","","","","","","","","","media/stimuli/animate_004_left.png","animate","single","left"
"","","","","","survey-likert","76","204803","0.0-76.0","SS1678233213638","5c60a763dff4b30001aa98ee","6406d7f26dd5b7fc1e3377bd","6407ce781fca9f44fcd21494","1614","849","","3235","","{""Q0"":3}","[0]","complexity","","","","","","","","","","","","","","","media/stimuli/animate_012_left.png","animate","single","left"
"","","","","","survey-likert","77","208202","0.0-77.0","SS1678233213638","5c60a763dff4b30001aa98ee","6406d7f26dd5b7fc1e3377bd","6407ce781fca9f44fcd21494","1614","849","","3394","","{""Q0"":3}","[0]","complexity","","","","","","","","","","","","","","","media/stimuli/inanimate_009_right.png","inanimate","single","right"
"","","","","","survey-likert","78","211902","0.0-78.0","SS1678233213638","5c60a763dff4b30001aa98ee","6406d7f26dd5b7fc1e3377bd","6407ce781fca9f44fcd21494","1614","849","","3695","","{""Q0"":3}","[0]","complexity","","","","","","","","","","","","","","","media/stimuli/inanimate_002_left.png","inanimate","pair","left"
"","","","","","survey-likert","79","213769","0.0-79.0","SS1678233213638","5c60a763dff4b30001aa98ee","6406d7f26dd5b7fc1e3377bd","6407ce781fca9f44fcd21494","1614","849","","1862","","{""Q0"":3}","[0]","complexity","","","","","","","","","","","","","","","media/stimuli/inanimate_005_left.png","inanimate","pair","left"
"","","","","","survey-likert","80","216256","0.0-80.0","SS1678233213638","5c60a763dff4b30001aa98ee","6406d7f26dd5b7fc1e3377bd","6407ce781fca9f44fcd21494","1614","849","","2481","","{""Q0"":3}","[0]","complexity","","","","","","","","","","","","","","","media/stimuli/animate_001_right.png","animate","pair","right"
"","","","","","survey-likert","81","217999","0.0-81.0","SS1678233213638","5c60a763dff4b30001aa98ee","6406d7f26dd5b7fc1e3377bd","6407ce781fca9f44fcd21494","1614","849","","1737","","{""Q0"":3}","[0]","complexity","","","","","","","","","","","","","","","media/stimuli/inanimate_003_right.png","inanimate","pair","right"
"","","","","","survey-likert","82","219912","0.0-82.0","SS1678233213638","5c60a763dff4b30001aa98ee","6406d7f26dd5b7fc1e3377bd","6407ce781fca9f44fcd21494","1614","849","","1908","","{""Q0"":3}","[0]","complexity","","","","","","","","","","","","","","","media/stimuli/inanimate_008_right.png","inanimate","single","right"
"","","","","","survey-likert","83","221610","0.0-83.0","SS1678233213638","5c60a763dff4b30001aa98ee","6406d7f26dd5b7fc1e3377bd","6407ce781fca9f44fcd21494","1614","849","","1693","","{""Q0"":3}","[0]","complexity","","","","","","","","","","","","","","","media/stimuli/inanimate_003_left.png","inanimate","single","left"
"","","","","","survey-likert","84","223388","0.0-84.0","SS1678233213638","5c60a763dff4b30001aa98ee","6406d7f26dd5b7fc1e3377bd","6407ce781fca9f44fcd21494","1614","849","","1772","","{""Q0"":3}","[0]","complexity","","","","","","","","","","","","","","","media/stimuli/animate_007_left.png","animate","pair","left"
"","","","","","html-keyboard-response","85","224324","0.0-85.0","SS1678233213638","5c60a763dff4b30001aa98ee","6406d7f26dd5b7fc1e3377bd","6407ce781fca9f44fcd21494","1614","849","","931",""," ","","","","","","","","","","","","","","","","","","","",""
"","","","","","html-keyboard-response","86","226611","0.0-86.0","SS1678233213638","5c60a763dff4b30001aa98ee","6406d7f26dd5b7fc1e3377bd","6407ce781fca9f44fcd21494","1614","849","","2284","","j","","","<img src=""media/stimuli/animate_012_left.png"" class=""coveredImage test"" style = ""width:100px; height:100px; position:fixed; top:10%;    transform: translate(-50%, -50%);left:44.5%""></img><img src=""media/stimuli/animate_012_left.png"" class=""coveredImage test"" style = ""width:100px; height:100px; position:fixed; top:10%;    transform: translate(-50%, -50%);left:51.5%""></img><img src=""media/stimuli/animate_003_left.png"" class=""coveredImage test"" style = ""width:100px; height:100px;position:fixed; top:25%;        transform: translate(-50%, -50%);left:34.5%""></img><img src=""media/stimuli/animate_003_left.png"" class=""coveredImage test"" style = ""width:100px; height:100px;position:fixed; top:25%;        transform: translate(-50%, -50%);left:41.5%""></img><img src=""media/stimuli/animate_012_right.png"" class=""coveredImage test"" style = ""width:100px; height:100px;position:fixed; top:25%;        transform: translate(-50%, -50%);left:54.5%""></img><img src=""media/stimuli/animate_012_right.png"" class=""coveredImage test"" style = ""width:100px; height:100px;position:fixed; top:25%;        transform: translate(-50%, -50%);left:61.5%""></img><img src=""media/f.png""style = ""width:30px x; height:30px;position:fixed; top:43%;    transform: translate(-50%, -50%);left:40%""></img><img src=""media/j.png""style = ""width:30px; height:30px;position:fixed; top:43%;    transform: translate(-50%, -50%);left:60%""></img>","media/stimuli/animate_012_left.png","animate","left","pair","media/stimuli/animate_003_left.png","animate","left","pair","media/stimuli/animate_012_right.png","animate","right","pair","identity_pose","","","",""
"","","","","","html-keyboard-response","87","227411","0.0-87.0","SS1678233213638","5c60a763dff4b30001aa98ee","6406d7f26dd5b7fc1e3377bd","6407ce781fca9f44fcd21494","1614","849","","796","","f","","","<img src=""media/stimuli/inanimate_007_left.png"" class=""coveredImage test"" style = ""width:100px; height:100px; position:fixed; top:10%;    transform: translate(-50%, -50%);left:48%""></img><img src=""media/stimuli/inanimate_007_right.png"" class=""coveredImage test"" style = ""width:100px; height:100px;position:fixed; top:25%;        transform: translate(-50%, -50%);left:38%""></img><img src=""media/stimuli/inanimate_006_left.png"" class=""coveredImage test"" style = ""width:100px; height:100px;position:fixed; top:25%;        transform: translate(-50%, -50%);left:58%""></img><img src=""media/f.png""style = ""width:30px x; height:30px;position:fixed; top:43%;    transform: translate(-50%, -50%);left:40%""></img><img src=""media/j.png""style = ""width:30px; height:30px;position:fixed; top:43%;    transform: translate(-50%, -50%);left:60%""></img>","media/stimuli/inanimate_007_left.png","inanimate","left","single","media/stimuli/inanimate_007_right.png","inanimate","right","single","media/stimuli/inanimate_006_left.png","inanimate","left","single","pose_identity","","","",""
"","","","","","html-keyboard-response","88","228141","0.0-88.0","SS1678233213638","5c60a763dff4b30001aa98ee","6406d7f26dd5b7fc1e3377bd","6407ce781fca9f44fcd21494","1614","849","","726","","f","","","<img src=""media/stimuli/animate_011_right.png"" class=""coveredImage test"" style = ""width:100px; height:100px; position:fixed; top:10%;    transform: translate(-50%, -50%);left:48%""></img><img src=""media/stimuli/animate_011_right.png"" class=""coveredImage test"" style = ""width:100px; height:100px;position:fixed; top:25%;        transform: translate(-50%, -50%);left:34.5%""></img><img src=""media/stimuli/animate_011_right.png"" class=""coveredImage test"" style = ""width:100px; height:100px;position:fixed; top:25%;        transform: translate(-50%, -50%);left:41.5%""></img><img src=""media/stimuli/animate_001_right.png"" class=""coveredImage test"" style = ""width:100px; height:100px;position:fixed; top:25%;        transform: translate(-50%, -50%);left:58%""></img><img src=""media/f.png""style = ""width:30px x; height:30px;position:fixed; top:43%;    transform: translate(-50%, -50%);left:40%""></img><img src=""media/j.png""style = ""width:30px; height:30px;position:fixed; top:43%;    transform: translate(-50%, -50%);left:60%""></img>","media/stimuli/animate_011_right.png","animate","right","single","media/stimuli/animate_011_right.png","animate","right","pair","media/stimuli/animate_001_right.png","animate","right","single","number_identity","","","",""
"","","","","","html-keyboard-response","89","228819","0.0-89.0","SS1678233213638","5c60a763dff4b30001aa98ee","6406d7f26dd5b7fc1e3377bd","6407ce781fca9f44fcd21494","1614","849","","674","","f","","","<img src=""media/stimuli/inanimate_009_right.png"" class=""coveredImage test"" style = ""width:100px; height:100px; position:fixed; top:10%;    transform: translate(-50%, -50%);left:44.5%""></img><img src=""media/stimuli/inanimate_009_right.png"" class=""coveredImage test"" style = ""width:100px; height:100px; position:fixed; top:10%;    transform: translate(-50%, -50%);left:51.5%""></img><img src=""media/stimuli/inanimate_009_right.png"" class=""coveredImage test"" style = ""width:100px; height:100px;position:fixed; top:25%;        transform: translate(-50%, -50%);left:38%""></img><img src=""media/stimuli/animate_005_right.png"" class=""coveredImage test"" style = ""width:100px; height:100px;position:fixed; top:25%;        transform: translate(-50%, -50%);left:54.5%""></img><img src=""media/stimuli/animate_005_right.png"" class=""coveredImage test"" style = ""width:100px; height:100px;position:fixed; top:25%;        transform: translate(-50%, -50%);left:61.5%""></img><img src=""media/f.png""style = ""width:30px x; height:30px;position:fixed; top:43%;    transform: translate(-50%, -50%);left:40%""></img><img src=""media/j.png""style = ""width:30px; height:30px;position:fixed; top:43%;    transform: translate(-50%, -50%);left:60%""></img>","media/stimuli/inanimate_009_right.png","inanimate","right","pair","media/stimuli/inanimate_009_right.png","inanimate","right","single","media/stimuli/animate_005_right.png","animate","right","pair","number_animacy","","","",""
"","","","","","html-keyboard-response","90","229476","0.0-90.0","SS1678233213638","5c60a763dff4b30001aa98ee","6406d7f26dd5b7fc1e3377bd","6407ce781fca9f44fcd21494","1614","849","","652","","j","","","<img src=""media/stimuli/inanimate_010_left.png"" class=""coveredImage test"" style = ""width:100px; height:100px; position:fixed; top:10%;    transform: translate(-50%, -50%);left:44.5%""></img><img src=""media/stimuli/inanimate_010_left.png"" class=""coveredImage test"" style = ""width:100px; height:100px; position:fixed; top:10%;    transform: translate(-50%, -50%);left:51.5%""></img><img src=""media/stimuli/inanimate_004_left.png"" class=""coveredImage test"" style = ""width:100px; height:100px;position:fixed; top:25%;        transform: translate(-50%, -50%);left:34.5%""></img><img src=""media/stimuli/inanimate_004_left.png"" class=""coveredImage test"" style = ""width:100px; height:100px;position:fixed; top:25%;        transform: translate(-50%, -50%);left:41.5%""></img><img src=""media/stimuli/inanimate_010_left.png"" class=""coveredImage test"" style = ""width:100px; height:100px;position:fixed; top:25%;        transform: translate(-50%, -50%);left:58%""></img><img src=""media/f.png""style = ""width:30px x; height:30px;position:fixed; top:43%;    transform: translate(-50%, -50%);left:40%""></img><img src=""media/j.png""style = ""width:30px; height:30px;position:fixed; top:43%;    transform: translate(-50%, -50%);left:60%""></img>","media/stimuli/inanimate_010_left.png","inanimate","left","pair","media/stimuli/inanimate_004_left.png","inanimate","left","pair","media/stimuli/inanimate_010_left.png","inanimate","left","single","identity_number","","","",""
"","","","","","html-keyboard-response","91","230443","0.0-91.0","SS1678233213638","5c60a763dff4b30001aa98ee","6406d7f26dd5b7fc1e3377bd","6407ce781fca9f44fcd21494","1614","849","","963","","f","","","<img src=""media/stimuli/animate_010_right.png"" class=""coveredImage test"" style = ""width:100px; height:100px; position:fixed; top:10%;    transform: translate(-50%, -50%);left:44.5%""></img><img src=""media/stimuli/animate_010_right.png"" class=""coveredImage test"" style = ""width:100px; height:100px; position:fixed; top:10%;    transform: translate(-50%, -50%);left:51.5%""></img><img src=""media/stimuli/animate_010_right.png"" class=""coveredImage test"" style = ""width:100px; height:100px;position:fixed; top:25%;        transform: translate(-50%, -50%);left:38%""></img><img src=""media/stimuli/animate_010_left.png"" class=""coveredImage test"" style = ""width:100px; height:100px;position:fixed; top:25%;        transform: translate(-50%, -50%);left:54.5%""></img><img src=""media/stimuli/animate_010_left.png"" class=""coveredImage test"" style = ""width:100px; height:100px;position:fixed; top:25%;        transform: translate(-50%, -50%);left:61.5%""></img><img src=""media/f.png""style = ""width:30px x; height:30px;position:fixed; top:43%;    transform: translate(-50%, -50%);left:40%""></img><img src=""media/j.png""style = ""width:30px; height:30px;position:fixed; top:43%;    transform: translate(-50%, -50%);left:60%""></img>","media/stimuli/animate_010_right.png","animate","right","pair","media/stimuli/animate_010_right.png","animate","right","single","media/stimuli/animate_010_left.png","animate","left","pair","number_pose","","","",""
"","","","","","html-keyboard-response","92","231195","0.0-92.0","SS1678233213638","5c60a763dff4b30001aa98ee","6406d7f26dd5b7fc1e3377bd","6407ce781fca9f44fcd21494","1614","849","","748","","j","","","<img src=""media/stimuli/animate_009_right.png"" class=""coveredImage test"" style = ""width:100px; height:100px; position:fixed; top:10%;    transform: translate(-50%, -50%);left:48%""></img><img src=""media/stimuli/animate_004_right.png"" class=""coveredImage test"" style = ""width:100px; height:100px;position:fixed; top:25%;        transform: translate(-50%, -50%);left:38%""></img><img src=""media/stimuli/animate_009_left.png"" class=""coveredImage test"" style = ""width:100px; height:100px;position:fixed; top:25%;        transform: translate(-50%, -50%);left:58%""></img><img src=""media/f.png""style = ""width:30px x; height:30px;position:fixed; top:43%;    transform: translate(-50%, -50%);left:40%""></img><img src=""media/j.png""style = ""width:30px; height:30px;position:fixed; top:43%;    transform: translate(-50%, -50%);left:60%""></img>","media/stimuli/animate_009_right.png","animate","right","single","media/stimuli/animate_004_right.png","animate","right","single","media/stimuli/animate_009_left.png","animate","left","single","identity_pose","","","",""
"","","","","","html-keyboard-response","93","231996","0.0-93.0","SS1678233213638","5c60a763dff4b30001aa98ee","6406d7f26dd5b7fc1e3377bd","6407ce781fca9f44fcd21494","1614","849","","797","","f","","","<img src=""media/stimuli/animate_004_right.png"" class=""coveredImage test"" style = ""width:100px; height:100px; position:fixed; top:10%;    transform: translate(-50%, -50%);left:44.5%""></img><img src=""media/stimuli/animate_004_right.png"" class=""coveredImage test"" style = ""width:100px; height:100px; position:fixed; top:10%;    transform: translate(-50%, -50%);left:51.5%""></img><img src=""media/stimuli/animate_004_right.png"" class=""coveredImage test"" style = ""width:100px; height:100px;position:fixed; top:25%;        transform: translate(-50%, -50%);left:38%""></img><img src=""media/stimuli/animate_006_right.png"" class=""coveredImage test"" style = ""width:100px; height:100px;position:fixed; top:25%;        transform: translate(-50%, -50%);left:54.5%""></img><img src=""media/stimuli/animate_006_right.png"" class=""coveredImage test"" style = ""width:100px; height:100px;position:fixed; top:25%;        transform: translate(-50%, -50%);left:61.5%""></img><img src=""media/f.png""style = ""width:30px x; height:30px;position:fixed; top:43%;    transform: translate(-50%, -50%);left:40%""></img><img src=""media/j.png""style = ""width:30px; height:30px;position:fixed; top:43%;    transform: translate(-50%, -50%);left:60%""></img>","media/stimuli/animate_004_right.png","animate","right","pair","media/stimuli/animate_004_right.png","animate","right","single","media/stimuli/animate_006_right.png","animate","right","pair","number_identity","","","",""
"","","","","","html-keyboard-response","94","232603","0.0-94.0","SS1678233213638","5c60a763dff4b30001aa98ee","6406d7f26dd5b7fc1e3377bd","6407ce781fca9f44fcd21494","1614","849","","603","","j","","","<img src=""media/stimuli/animate_012_left.png"" class=""coveredImage test"" style = ""width:100px; height:100px; position:fixed; top:10%;    transform: translate(-50%, -50%);left:44.5%""></img><img src=""media/stimuli/animate_012_left.png"" class=""coveredImage test"" style = ""width:100px; height:100px; position:fixed; top:10%;    transform: translate(-50%, -50%);left:51.5%""></img><img src=""media/stimuli/animate_008_left.png"" class=""coveredImage test"" style = ""width:100px; height:100px;position:fixed; top:25%;        transform: translate(-50%, -50%);left:34.5%""></img><img src=""media/stimuli/animate_008_left.png"" class=""coveredImage test"" style = ""width:100px; height:100px;position:fixed; top:25%;        transform: translate(-50%, -50%);left:41.5%""></img><img src=""media/stimuli/animate_012_right.png"" class=""coveredImage test"" style = ""width:100px; height:100px;position:fixed; top:25%;        transform: translate(-50%, -50%);left:54.5%""></img><img src=""media/stimuli/animate_012_right.png"" class=""coveredImage test"" style = ""width:100px; height:100px;position:fixed; top:25%;        transform: translate(-50%, -50%);left:61.5%""></img><img src=""media/f.png""style = ""width:30px x; height:30px;position:fixed; top:43%;    transform: translate(-50%, -50%);left:40%""></img><img src=""media/j.png""style = ""width:30px; height:30px;position:fixed; top:43%;    transform: translate(-50%, -50%);left:60%""></img>","media/stimuli/animate_012_left.png","animate","left","pair","media/stimuli/animate_008_left.png","animate","left","pair","media/stimuli/animate_012_right.png","animate","right","pair","identity_pose","","","",""
"","","","","","html-keyboard-response","95","233196","0.0-95.0","SS1678233213638","5c60a763dff4b30001aa98ee","6406d7f26dd5b7fc1e3377bd","6407ce781fca9f44fcd21494","1614","849","","588","","f","","","<img src=""media/stimuli/inanimate_010_right.png"" class=""coveredImage test"" style = ""width:100px; height:100px; position:fixed; top:10%;    transform: translate(-50%, -50%);left:48%""></img><img src=""media/stimuli/inanimate_010_left.png"" class=""coveredImage test"" style = ""width:100px; height:100px;position:fixed; top:25%;        transform: translate(-50%, -50%);left:34.5%""></img><img src=""media/stimuli/inanimate_010_left.png"" class=""coveredImage test"" style = ""width:100px; height:100px;position:fixed; top:25%;        transform: translate(-50%, -50%);left:41.5%""></img><img src=""media/stimuli/animate_003_right.png"" class=""coveredImage test"" style = ""width:100px; height:100px;position:fixed; top:25%;        transform: translate(-50%, -50%);left:54.5%""></img><img src=""media/stimuli/animate_003_right.png"" class=""coveredImage test"" style = ""width:100px; height:100px;position:fixed; top:25%;        transform: translate(-50%, -50%);left:61.5%""></img><img src=""media/f.png""style = ""width:30px x; height:30px;position:fixed; top:43%;    transform: translate(-50%, -50%);left:40%""></img><img src=""media/j.png""style = ""width:30px; height:30px;position:fixed; top:43%;    transform: translate(-50%, -50%);left:60%""></img>","media/stimuli/inanimate_010_right.png","inanimate","right","single","media/stimuli/inanimate_010_left.png","inanimate","left","pair","media/stimuli/animate_003_right.png","animate","right","pair","pose_animacy","","","",""
"","","","","","html-keyboard-response","96","233867","0.0-96.0","SS1678233213638","5c60a763dff4b30001aa98ee","6406d7f26dd5b7fc1e3377bd","6407ce781fca9f44fcd21494","1614","849","","667","","f","","","<img src=""media/stimuli/inanimate_004_right.png"" class=""coveredImage test"" style = ""width:100px; height:100px; position:fixed; top:10%;    transform: translate(-50%, -50%);left:44.5%""></img><img src=""media/stimuli/inanimate_004_right.png"" class=""coveredImage test"" style = ""width:100px; height:100px; position:fixed; top:10%;    transform: translate(-50%, -50%);left:51.5%""></img><img src=""media/stimuli/inanimate_004_right.png"" class=""coveredImage test"" style = ""width:100px; height:100px;position:fixed; top:25%;        transform: translate(-50%, -50%);left:38%""></img><img src=""media/stimuli/animate_012_right.png"" class=""coveredImage test"" style = ""width:100px; height:100px;position:fixed; top:25%;        transform: translate(-50%, -50%);left:54.5%""></img><img src=""media/stimuli/animate_012_right.png"" class=""coveredImage test"" style = ""width:100px; height:100px;position:fixed; top:25%;        transform: translate(-50%, -50%);left:61.5%""></img><img src=""media/f.png""style = ""width:30px x; height:30px;position:fixed; top:43%;    transform: translate(-50%, -50%);left:40%""></img><img src=""media/j.png""style = ""width:30px; height:30px;position:fixed; top:43%;    transform: translate(-50%, -50%);left:60%""></img>","media/stimuli/inanimate_004_right.png","inanimate","right","pair","media/stimuli/inanimate_004_right.png","inanimate","right","single","media/stimuli/animate_012_right.png","animate","right","pair","number_animacy","","","",""
"","","","","","html-keyboard-response","97","234451","0.0-97.0","SS1678233213638","5c60a763dff4b30001aa98ee","6406d7f26dd5b7fc1e3377bd","6407ce781fca9f44fcd21494","1614","849","","580","","f","","","<img src=""media/stimuli/inanimate_009_right.png"" class=""coveredImage test"" style = ""width:100px; height:100px; position:fixed; top:10%;    transform: translate(-50%, -50%);left:48%""></img><img src=""media/stimuli/inanimate_009_right.png"" class=""coveredImage test"" style = ""width:100px; height:100px;position:fixed; top:25%;        transform: translate(-50%, -50%);left:38%""></img><img src=""media/stimuli/animate_003_left.png"" class=""coveredImage test"" style = ""width:100px; height:100px;position:fixed; top:25%;        transform: translate(-50%, -50%);left:58%""></img><img src=""media/f.png""style = ""width:30px x; height:30px;position:fixed; top:43%;    transform: translate(-50%, -50%);left:40%""></img><img src=""media/j.png""style = ""width:30px; height:30px;position:fixed; top:43%;    transform: translate(-50%, -50%);left:60%""></img>","media/stimuli/inanimate_009_right.png","inanimate","right","single","media/stimuli/inanimate_009_right.png","inanimate","right","single","media/stimuli/animate_003_left.png","animate","left","single","pose_animacy","","","",""
"","","","","","html-keyboard-response","98","235275","0.0-98.0","SS1678233213638","5c60a763dff4b30001aa98ee","6406d7f26dd5b7fc1e3377bd","6407ce781fca9f44fcd21494","1614","849","","821",""," ","","","","","","","","","","","","","","","","","","","",""
"","","","","","html-keyboard-response","99","235859","0.0-99.0","SS1678233213638","5c60a763dff4b30001aa98ee","6406d7f26dd5b7fc1e3377bd","6407ce781fca9f44fcd21494","1614","849","","580","","j","","","<img src=""media/stimuli/inanimate_001_right.png"" class=""coveredImage test"" style = ""width:100px; height:100px; position:fixed; top:10%;    transform: translate(-50%, -50%);left:48%""></img><img src=""media/stimuli/inanimate_005_right.png"" class=""coveredImage test"" style = ""width:100px; height:100px;position:fixed; top:25%;        transform: translate(-50%, -50%);left:38%""></img><img src=""media/stimuli/inanimate_001_left.png"" class=""coveredImage test"" style = ""width:100px; height:100px;position:fixed; top:25%;        transform: translate(-50%, -50%);left:58%""></img><img src=""media/f.png""style = ""width:30px x; height:30px;position:fixed; top:43%;    transform: translate(-50%, -50%);left:40%""></img><img src=""media/j.png""style = ""width:30px; height:30px;position:fixed; top:43%;    transform: translate(-50%, -50%);left:60%""></img>","media/stimuli/inanimate_001_right.png","inanimate","right","single","media/stimuli/inanimate_005_right.png","inanimate","right","single","media/stimuli/inanimate_001_left.png","inanimate","left","single","identity_pose","","","",""
"","","","","","html-keyboard-response","100","236507","0.0-100.0","SS1678233213638","5c60a763dff4b30001aa98ee","6406d7f26dd5b7fc1e3377bd","6407ce781fca9f44fcd21494","1614","849","","642","","j","","","<img src=""media/stimuli/animate_007_left.png"" class=""coveredImage test"" style = ""width:100px; height:100px; position:fixed; top:10%;    transform: translate(-50%, -50%);left:48%""></img><img src=""media/stimuli/inanimate_003_right.png"" class=""coveredImage test"" style = ""width:100px; height:100px;position:fixed; top:25%;        transform: translate(-50%, -50%);left:34.5%""></img><img src=""media/stimuli/inanimate_003_right.png"" class=""coveredImage test"" style = ""width:100px; height:100px;position:fixed; top:25%;        transform: translate(-50%, -50%);left:41.5%""></img><img src=""media/stimuli/animate_007_left.png"" class=""coveredImage test"" style = ""width:100px; height:100px;position:fixed; top:25%;        transform: translate(-50%, -50%);left:54.5%""></img><img src=""media/stimuli/animate_007_left.png"" class=""coveredImage test"" style = ""width:100px; height:100px;position:fixed; top:25%;        transform: translate(-50%, -50%);left:61.5%""></img><img src=""media/f.png""style = ""width:30px x; height:30px;position:fixed; top:43%;    transform: translate(-50%, -50%);left:40%""></img><img src=""media/j.png""style = ""width:30px; height:30px;position:fixed; top:43%;    transform: translate(-50%, -50%);left:60%""></img>","media/stimuli/animate_007_left.png","animate","left","single","media/stimuli/inanimate_003_right.png","inanimate","right","pair","media/stimuli/animate_007_left.png","animate","left","pair","animacy_pose","","","",""
"","","","","","html-keyboard-response","101","237284","0.0-101.0","SS1678233213638","5c60a763dff4b30001aa98ee","6406d7f26dd5b7fc1e3377bd","6407ce781fca9f44fcd21494","1614","849","","772","","f","","","<img src=""media/stimuli/animate_012_right.png"" class=""coveredImage test"" style = ""width:100px; height:100px; position:fixed; top:10%;    transform: translate(-50%, -50%);left:48%""></img><img src=""media/stimuli/animate_012_right.png"" class=""coveredImage test"" style = ""width:100px; height:100px;position:fixed; top:25%;        transform: translate(-50%, -50%);left:38%""></img><img src=""media/stimuli/animate_004_right.png"" class=""coveredImage test"" style = ""width:100px; height:100px;position:fixed; top:25%;        transform: translate(-50%, -50%);left:58%""></img><img src=""media/f.png""style = ""width:30px x; height:30px;position:fixed; top:43%;    transform: translate(-50%, -50%);left:40%""></img><img src=""media/j.png""style = ""width:30px; height:30px;position:fixed; top:43%;    transform: translate(-50%, -50%);left:60%""></img>","media/stimuli/animate_012_right.png","animate","right","single","media/stimuli/animate_012_right.png","animate","right","single","media/stimuli/animate_004_right.png","animate","right","single","filler_identity","","","",""
"","","","","","html-keyboard-response","102","237955","0.0-102.0","SS1678233213638","5c60a763dff4b30001aa98ee","6406d7f26dd5b7fc1e3377bd","6407ce781fca9f44fcd21494","1614","849","","666","","j","","","<img src=""media/stimuli/inanimate_006_right.png"" class=""coveredImage test"" style = ""width:100px; height:100px; position:fixed; top:10%;    transform: translate(-50%, -50%);left:44.5%""></img><img src=""media/stimuli/inanimate_006_right.png"" class=""coveredImage test"" style = ""width:100px; height:100px; position:fixed; top:10%;    transform: translate(-50%, -50%);left:51.5%""></img><img src=""media/stimuli/inanimate_009_right.png"" class=""coveredImage test"" style = ""width:100px; height:100px;position:fixed; top:25%;        transform: translate(-50%, -50%);left:34.5%""></img><img src=""media/stimuli/inanimate_009_right.png"" class=""coveredImage test"" style = ""width:100px; height:100px;position:fixed; top:25%;        transform: translate(-50%, -50%);left:41.5%""></img><img src=""media/stimuli/inanimate_006_left.png"" class=""coveredImage test"" style = ""width:100px; height:100px;position:fixed; top:25%;        transform: translate(-50%, -50%);left:54.5%""></img><img src=""media/stimuli/inanimate_006_left.png"" class=""coveredImage test"" style = ""width:100px; height:100px;position:fixed; top:25%;        transform: translate(-50%, -50%);left:61.5%""></img><img src=""media/f.png""style = ""width:30px x; height:30px;position:fixed; top:43%;    transform: translate(-50%, -50%);left:40%""></img><img src=""media/j.png""style = ""width:30px; height:30px;position:fixed; top:43%;    transform: translate(-50%, -50%);left:60%""></img>","media/stimuli/inanimate_006_right.png","inanimate","right","pair","media/stimuli/inanimate_009_right.png","inanimate","right","pair","media/stimuli/inanimate_006_left.png","inanimate","left","pair","identity_pose","","","",""
