"success","timeout","failed_images","failed_audio","failed_video","trial_type","trial_index","time_elapsed","internal_node_id","subject","prolific_id","study","session","window_width","window_height","view_history","rt","stimulus_type","response","question_order","rating_type","stimulus","target","target_animacy","target_pose","target_number","left","left_animacy","left_pose","left_number","right","right_animacy","right_pose","right_number","comparison_type","rating_stimulus","rating_animacy","rating_number","rating_pose"
"true","false","[]","[]","[]","preload","0","6762","0.0-0.0","SS1678233171077","63d69e4d6648b39324fdf0ad","6406d7f26dd5b7fc1e3377bd","6407ce4926c6e8b15a792b7e","1366","649","","","","","","","","","","","","","","","","","","","","","","","",""
"","","","","","instructions","1","8268","0.0-1.0","SS1678233171077","63d69e4d6648b39324fdf0ad","6406d7f26dd5b7fc1e3377bd","6407ce4926c6e8b15a792b7e","1366","649","[{""page_index"":0,""viewing_time"":1501}]","1501","","","","","","","","","","","","","","","","","","","","","",""
"","","","","","instructions","2","79607","0.0-2.0","SS1678233171077","63d69e4d6648b39324fdf0ad","6406d7f26dd5b7fc1e3377bd","6407ce4926c6e8b15a792b7e","1366","649","[{""page_index"":0,""viewing_time"":69326}]","69327","instructions","","","","","","","","","","","","","","","","","","","","",""
"","","","","","instructions","3","81383","0.0-3.0","SS1678233171077","63d69e4d6648b39324fdf0ad","6406d7f26dd5b7fc1e3377bd","6407ce4926c6e8b15a792b7e","1366","649","[{""page_index"":0,""viewing_time"":1774}]","1775","instructions","","","","","","","","","","","","","","","","","","","","",""
"","","","","","survey-likert","4","88080","0.0-4.0","SS1678233171077","63d69e4d6648b39324fdf0ad","6406d7f26dd5b7fc1e3377bd","6407ce4926c6e8b15a792b7e","1366","649","","6693","","{""Q0"":5}","[0]","anchoring","","","","","","","","","","","","","","","","","",""
"","","","","","survey-likert","5","97599","0.0-5.0","SS1678233171077","63d69e4d6648b39324fdf0ad","6406d7f26dd5b7fc1e3377bd","6407ce4926c6e8b15a792b7e","1366","649","","9514","","{""Q0"":1}","[0]","anchoring","","","","","","","","","","","","","","","","","",""
"","","","","","instructions","6","98903","0.0-6.0","SS1678233171077","63d69e4d6648b39324fdf0ad","6406d7f26dd5b7fc1e3377bd","6407ce4926c6e8b15a792b7e","1366","649","[{""page_index"":0,""viewing_time"":1300}]","1301","instructions","","","","","","","","","","","","","","","","","","","","",""
"true","","","","","fullscreen","7","106720","0.0-7.0","SS1678233171077","63d69e4d6648b39324fdf0ad","6406d7f26dd5b7fc1e3377bd","6407ce4926c6e8b15a792b7e","1366","649","","","","","","","","","","","","","","","","","","","","","","","",""
"","","","","","html-keyboard-response","8","113542","0.0-8.0","SS1678233171077","63d69e4d6648b39324fdf0ad","6406d7f26dd5b7fc1e3377bd","6407ce4926c6e8b15a792b7e","1366","649","","6814","","f","","","<img src=""media/stimuli/inanimate_012_left.png"" class=""coveredImage test"" style = ""width:100px; height:100px; position:fixed; top:10%;    transform: translate(-50%, -50%);left:44.5%""></img><img src=""media/stimuli/inanimate_012_left.png"" class=""coveredImage test"" style = ""width:100px; height:100px; position:fixed; top:10%;    transform: translate(-50%, -50%);left:51.5%""></img><img src=""media/stimuli/inanimate_012_left.png"" class=""coveredImage test"" style = ""width:100px; height:100px;position:fixed; top:25%;        transform: translate(-50%, -50%);left:38%""></img><img src=""media/stimuli/inanimate_010_left.png"" class=""coveredImage test"" style = ""width:100px; height:100px;position:fixed; top:25%;        transform: translate(-50%, -50%);left:54.5%""></img><img src=""media/stimuli/inanimate_010_left.png"" class=""coveredImage test"" style = ""width:100px; height:100px;position:fixed; top:25%;        transform: translate(-50%, -50%);left:61.5%""></img><img src=""media/f.png""style = ""width:30px x; height:30px;position:fixed; top:43%;    transform: translate(-50%, -50%);left:40%""></img><img src=""media/j.png""style = ""width:30px; height:30px;position:fixed; top:43%;    transform: translate(-50%, -50%);left:60%""></img>","media/stimuli/inanimate_012_left.png","inanimate","left","pair","media/stimuli/inanimate_012_left.png","inanimate","left","single","media/stimuli/inanimate_010_left.png","inanimate","left","pair","number_identity","","","",""
"","","","","","html-keyboard-response","9","116239","0.0-9.0","SS1678233171077","63d69e4d6648b39324fdf0ad","6406d7f26dd5b7fc1e3377bd","6407ce4926c6e8b15a792b7e","1366","649","","2688","","j","","","<img src=""media/stimuli/inanimate_003_right.png"" class=""coveredImage test"" style = ""width:100px; height:100px; position:fixed; top:10%;    transform: translate(-50%, -50%);left:44.5%""></img><img src=""media/stimuli/inanimate_003_right.png"" class=""coveredImage test"" style = ""width:100px; height:100px; position:fixed; top:10%;    transform: translate(-50%, -50%);left:51.5%""></img><img src=""media/stimuli/animate_007_left.png"" class=""coveredImage test"" style = ""width:100px; height:100px;position:fixed; top:25%;        transform: translate(-50%, -50%);left:34.5%""></img><img src=""media/stimuli/animate_007_left.png"" class=""coveredImage test"" style = ""width:100px; height:100px;position:fixed; top:25%;        transform: translate(-50%, -50%);left:41.5%""></img><img src=""media/stimuli/inanimate_003_right.png"" class=""coveredImage test"" style = ""width:100px; height:100px;position:fixed; top:25%;        transform: translate(-50%, -50%);left:54.5%""></img><img src=""media/stimuli/inanimate_003_right.png"" class=""coveredImage test"" style = ""width:100px; height:100px;position:fixed; top:25%;        transform: translate(-50%, -50%);left:61.5%""></img><img src=""media/f.png""style = ""width:30px x; height:30px;position:fixed; top:43%;    transform: translate(-50%, -50%);left:40%""></img><img src=""media/j.png""style = ""width:30px; height:30px;position:fixed; top:43%;    transform: translate(-50%, -50%);left:60%""></img>","media/stimuli/inanimate_003_right.png","inanimate","right","pair","media/stimuli/animate_007_left.png","animate","left","pair","media/stimuli/inanimate_003_right.png","inanimate","right","pair","animacy_pose","","","",""
"","","","","","html-keyboard-response","10","121432","0.0-10.0","SS1678233171077","63d69e4d6648b39324fdf0ad","6406d7f26dd5b7fc1e3377bd","6407ce4926c6e8b15a792b7e","1366","649","","5188","","j","","","<img src=""media/stimuli/animate_005_right.png"" class=""coveredImage test"" style = ""width:100px; height:100px; position:fixed; top:10%;    transform: translate(-50%, -50%);left:44.5%""></img><img src=""media/stimuli/animate_005_right.png"" class=""coveredImage test"" style = ""width:100px; height:100px; position:fixed; top:10%;    transform: translate(-50%, -50%);left:51.5%""></img><img src=""media/stimuli/animate_005_left.png"" class=""coveredImage test"" style = ""width:100px; height:100px;position:fixed; top:25%;        transform: translate(-50%, -50%);left:34.5%""></img><img src=""media/stimuli/animate_005_left.png"" class=""coveredImage test"" style = ""width:100px; height:100px;position:fixed; top:25%;        transform: translate(-50%, -50%);left:41.5%""></img><img src=""media/stimuli/animate_005_right.png"" class=""coveredImage test"" style = ""width:100px; height:100px;position:fixed; top:25%;        transform: translate(-50%, -50%);left:58%""></img><img src=""media/f.png""style = ""width:30px x; height:30px;position:fixed; top:43%;    transform: translate(-50%, -50%);left:40%""></img><img src=""media/j.png""style = ""width:30px; height:30px;position:fixed; top:43%;    transform: translate(-50%, -50%);left:60%""></img>","media/stimuli/animate_005_right.png","animate","right","pair","media/stimuli/animate_005_left.png","animate","left","pair","media/stimuli/animate_005_right.png","animate","right","single","pose_number","","","",""
"","","","","","html-keyboard-response","11","124074","0.0-11.0","SS1678233171077","63d69e4d6648b39324fdf0ad","6406d7f26dd5b7fc1e3377bd","6407ce4926c6e8b15a792b7e","1366","649","","2636","","j","","","<img src=""media/stimuli/animate_001_right.png"" class=""coveredImage test"" style = ""width:100px; height:100px; position:fixed; top:10%;    transform: translate(-50%, -50%);left:44.5%""></img><img src=""media/stimuli/animate_001_right.png"" class=""coveredImage test"" style = ""width:100px; height:100px; position:fixed; top:10%;    transform: translate(-50%, -50%);left:51.5%""></img><img src=""media/stimuli/inanimate_009_right.png"" class=""coveredImage test"" style = ""width:100px; height:100px;position:fixed; top:25%;        transform: translate(-50%, -50%);left:34.5%""></img><img src=""media/stimuli/inanimate_009_right.png"" class=""coveredImage test"" style = ""width:100px; height:100px;position:fixed; top:25%;        transform: translate(-50%, -50%);left:41.5%""></img><img src=""media/stimuli/animate_007_right.png"" class=""coveredImage test"" style = ""width:100px; height:100px;position:fixed; top:25%;        transform: translate(-50%, -50%);left:54.5%""></img><img src=""media/stimuli/animate_007_right.png"" class=""coveredImage test"" style = ""width:100px; height:100px;position:fixed; top:25%;        transform: translate(-50%, -50%);left:61.5%""></img><img src=""media/f.png""style = ""width:30px x; height:30px;position:fixed; top:43%;    transform: translate(-50%, -50%);left:40%""></img><img src=""media/j.png""style = ""width:30px; height:30px;position:fixed; top:43%;    transform: translate(-50%, -50%);left:60%""></img>","media/stimuli/animate_001_right.png","animate","right","pair","media/stimuli/inanimate_009_right.png","inanimate","right","pair","media/stimuli/animate_007_right.png","animate","right","pair","animacy_identity","","","",""
"","","","","","html-keyboard-response","12","128825","0.0-12.0","SS1678233171077","63d69e4d6648b39324fdf0ad","6406d7f26dd5b7fc1e3377bd","6407ce4926c6e8b15a792b7e","1366","649","","4745","","f","","","<img src=""media/stimuli/inanimate_011_right.png"" class=""coveredImage test"" style = ""width:100px; height:100px; position:fixed; top:10%;    transform: translate(-50%, -50%);left:44.5%""></img><img src=""media/stimuli/inanimate_011_right.png"" class=""coveredImage test"" style = ""width:100px; height:100px; position:fixed; top:10%;    transform: translate(-50%, -50%);left:51.5%""></img><img src=""media/stimuli/inanimate_009_right.png"" class=""coveredImage test"" style = ""width:100px; height:100px;position:fixed; top:25%;        transform: translate(-50%, -50%);left:34.5%""></img><img src=""media/stimuli/inanimate_009_right.png"" class=""coveredImage test"" style = ""width:100px; height:100px;position:fixed; top:25%;        transform: translate(-50%, -50%);left:41.5%""></img><img src=""media/stimuli/animate_004_right.png"" class=""coveredImage test"" style = ""width:100px; height:100px;position:fixed; top:25%;        transform: translate(-50%, -50%);left:54.5%""></img><img src=""media/stimuli/animate_004_right.png"" class=""coveredImage test"" style = ""width:100px; height:100px;position:fixed; top:25%;        transform: translate(-50%, -50%);left:61.5%""></img><img src=""media/f.png""style = ""width:30px x; height:30px;position:fixed; top:43%;    transform: translate(-50%, -50%);left:40%""></img><img src=""media/j.png""style = ""width:30px; height:30px;position:fixed; top:43%;    transform: translate(-50%, -50%);left:60%""></img>","media/stimuli/inanimate_011_right.png","inanimate","right","pair","media/stimuli/inanimate_009_right.png","inanimate","right","pair","media/stimuli/animate_004_right.png","animate","right","pair","identity_animacy","","","",""
"","","","","","html-keyboard-response","13","133119","0.0-13.0","SS1678233171077","63d69e4d6648b39324fdf0ad","6406d7f26dd5b7fc1e3377bd","6407ce4926c6e8b15a792b7e","1366","649","","4289","","j","","","<img src=""media/stimuli/inanimate_003_right.png"" class=""coveredImage test"" style = ""width:100px; height:100px; position:fixed; top:10%;    transform: translate(-50%, -50%);left:48%""></img><img src=""media/stimuli/inanimate_003_left.png"" class=""coveredImage test"" style = ""width:100px; height:100px;position:fixed; top:25%;        transform: translate(-50%, -50%);left:38%""></img><img src=""media/stimuli/inanimate_003_right.png"" class=""coveredImage test"" style = ""width:100px; height:100px;position:fixed; top:25%;        transform: translate(-50%, -50%);left:54.5%""></img><img src=""media/stimuli/inanimate_003_right.png"" class=""coveredImage test"" style = ""width:100px; height:100px;position:fixed; top:25%;        transform: translate(-50%, -50%);left:61.5%""></img><img src=""media/f.png""style = ""width:30px x; height:30px;position:fixed; top:43%;    transform: translate(-50%, -50%);left:40%""></img><img src=""media/j.png""style = ""width:30px; height:30px;position:fixed; top:43%;    transform: translate(-50%, -50%);left:60%""></img>","media/stimuli/inanimate_003_right.png","inanimate","right","single","media/stimuli/inanimate_003_left.png","inanimate","left","single","media/stimuli/inanimate_003_right.png","inanimate","right","pair","pose_number","","","",""
"","","","","","html-keyboard-response","14","134959","0.0-14.0","SS1678233171077","63d69e4d6648b39324fdf0ad","6406d7f26dd5b7fc1e3377bd","6407ce4926c6e8b15a792b7e","1366","649","","1833","","f","","","<img src=""media/stimuli/inanimate_011_right.png"" class=""coveredImage test"" style = ""width:100px; height:100px; position:fixed; top:10%;    transform: translate(-50%, -50%);left:48%""></img><img src=""media/stimuli/inanimate_001_right.png"" class=""coveredImage test"" style = ""width:100px; height:100px;position:fixed; top:25%;        transform: translate(-50%, -50%);left:38%""></img><img src=""media/stimuli/inanimate_011_left.png"" class=""coveredImage test"" style = ""width:100px; height:100px;position:fixed; top:25%;        transform: translate(-50%, -50%);left:58%""></img><img src=""media/f.png""style = ""width:30px x; height:30px;position:fixed; top:43%;    transform: translate(-50%, -50%);left:40%""></img><img src=""media/j.png""style = ""width:30px; height:30px;position:fixed; top:43%;    transform: translate(-50%, -50%);left:60%""></img>","media/stimuli/inanimate_011_right.png","inanimate","right","single","media/stimuli/inanimate_001_right.png","inanimate","right","single","media/stimuli/inanimate_011_left.png","inanimate","left","single","identity_pose","","","",""
"","","","","","html-keyboard-response","15","138123","0.0-15.0","SS1678233171077","63d69e4d6648b39324fdf0ad","6406d7f26dd5b7fc1e3377bd","6407ce4926c6e8b15a792b7e","1366","649","","3156","","f","","","<img src=""media/stimuli/inanimate_002_right.png"" class=""coveredImage test"" style = ""width:100px; height:100px; position:fixed; top:10%;    transform: translate(-50%, -50%);left:48%""></img><img src=""media/stimuli/inanimate_002_right.png"" class=""coveredImage test"" style = ""width:100px; height:100px;position:fixed; top:25%;        transform: translate(-50%, -50%);left:34.5%""></img><img src=""media/stimuli/inanimate_002_right.png"" class=""coveredImage test"" style = ""width:100px; height:100px;position:fixed; top:25%;        transform: translate(-50%, -50%);left:41.5%""></img><img src=""media/stimuli/inanimate_002_left.png"" class=""coveredImage test"" style = ""width:100px; height:100px;position:fixed; top:25%;        transform: translate(-50%, -50%);left:58%""></img><img src=""media/f.png""style = ""width:30px x; height:30px;position:fixed; top:43%;    transform: translate(-50%, -50%);left:40%""></img><img src=""media/j.png""style = ""width:30px; height:30px;position:fixed; top:43%;    transform: translate(-50%, -50%);left:60%""></img>","media/stimuli/inanimate_002_right.png","inanimate","right","single","media/stimuli/inanimate_002_right.png","inanimate","right","pair","media/stimuli/inanimate_002_left.png","inanimate","left","single","number_pose","","","",""
"","","","","","html-keyboard-response","16","139631","0.0-16.0","SS1678233171077","63d69e4d6648b39324fdf0ad","6406d7f26dd5b7fc1e3377bd","6407ce4926c6e8b15a792b7e","1366","649","","1499","","f","","","<img src=""media/stimuli/animate_004_left.png"" class=""coveredImage test"" style = ""width:100px; height:100px; position:fixed; top:10%;    transform: translate(-50%, -50%);left:48%""></img><img src=""media/stimuli/animate_004_left.png"" class=""coveredImage test"" style = ""width:100px; height:100px;position:fixed; top:25%;        transform: translate(-50%, -50%);left:34.5%""></img><img src=""media/stimuli/animate_004_left.png"" class=""coveredImage test"" style = ""width:100px; height:100px;position:fixed; top:25%;        transform: translate(-50%, -50%);left:41.5%""></img><img src=""media/stimuli/animate_009_left.png"" class=""coveredImage test"" style = ""width:100px; height:100px;position:fixed; top:25%;        transform: translate(-50%, -50%);left:58%""></img><img src=""media/f.png""style = ""width:30px x; height:30px;position:fixed; top:43%;    transform: translate(-50%, -50%);left:40%""></img><img src=""media/j.png""style = ""width:30px; height:30px;position:fixed; top:43%;    transform: translate(-50%, -50%);left:60%""></img>","media/stimuli/animate_004_left.png","animate","left","single","media/stimuli/animate_004_left.png","animate","left","pair","media/stimuli/animate_009_left.png","animate","left","single","number_identity","","","",""
"","","","","","html-keyboard-response","17","143054","0.0-17.0","SS1678233171077","63d69e4d6648b39324fdf0ad","6406d7f26dd5b7fc1e3377bd","6407ce4926c6e8b15a792b7e","1366","649","","3415","","f","","","<img src=""media/stimuli/animate_008_right.png"" class=""coveredImage test"" style = ""width:100px; height:100px; position:fixed; top:10%;    transform: translate(-50%, -50%);left:48%""></img><img src=""media/stimuli/animate_008_left.png"" class=""coveredImage test"" style = ""width:100px; height:100px;position:fixed; top:25%;        transform: translate(-50%, -50%);left:38%""></img><img src=""media/stimuli/inanimate_010_right.png"" class=""coveredImage test"" style = ""width:100px; height:100px;position:fixed; top:25%;        transform: translate(-50%, -50%);left:58%""></img><img src=""media/f.png""style = ""width:30px x; height:30px;position:fixed; top:43%;    transform: translate(-50%, -50%);left:40%""></img><img src=""media/j.png""style = ""width:30px; height:30px;position:fixed; top:43%;    transform: translate(-50%, -50%);left:60%""></img>","media/stimuli/animate_008_right.png","animate","right","single","media/stimuli/animate_008_left.png","animate","left","single","media/stimuli/inanimate_010_right.png","inanimate","right","single","pose_animacy","","","",""
"","","","","","html-keyboard-response","18","146241","0.0-18.0","SS1678233171077","63d69e4d6648b39324fdf0ad","6406d7f26dd5b7fc1e3377bd","6407ce4926c6e8b15a792b7e","1366","649","","3178","","j","","","<img src=""media/stimuli/animate_009_left.png"" class=""coveredImage test"" style = ""width:100px; height:100px; position:fixed; top:10%;    transform: translate(-50%, -50%);left:44.5%""></img><img src=""media/stimuli/animate_009_left.png"" class=""coveredImage test"" style = ""width:100px; height:100px; position:fixed; top:10%;    transform: translate(-50%, -50%);left:51.5%""></img><img src=""media/stimuli/inanimate_009_left.png"" class=""coveredImage test"" style = ""width:100px; height:100px;position:fixed; top:25%;        transform: translate(-50%, -50%);left:34.5%""></img><img src=""media/stimuli/inanimate_009_left.png"" class=""coveredImage test"" style = ""width:100px; height:100px;position:fixed; top:25%;        transform: translate(-50%, -50%);left:41.5%""></img><img src=""media/stimuli/animate_004_left.png"" class=""coveredImage test"" style = ""width:100px; height:100px;position:fixed; top:25%;        transform: translate(-50%, -50%);left:54.5%""></img><img src=""media/stimuli/animate_004_left.png"" class=""coveredImage test"" style = ""width:100px; height:100px;position:fixed; top:25%;        transform: translate(-50%, -50%);left:61.5%""></img><img src=""media/f.png""style = ""width:30px x; height:30px;position:fixed; top:43%;    transform: translate(-50%, -50%);left:40%""></img><img src=""media/j.png""style = ""width:30px; height:30px;position:fixed; top:43%;    transform: translate(-50%, -50%);left:60%""></img>","media/stimuli/animate_009_left.png","animate","left","pair","media/stimuli/inanimate_009_left.png","inanimate","left","pair","media/stimuli/animate_004_left.png","animate","left","pair","animacy_identity","","","",""
"","","","","","html-keyboard-response","19","147669","0.0-19.0","SS1678233171077","63d69e4d6648b39324fdf0ad","6406d7f26dd5b7fc1e3377bd","6407ce4926c6e8b15a792b7e","1366","649","","1420","","j","","","<img src=""media/stimuli/animate_009_left.png"" class=""coveredImage test"" style = ""width:100px; height:100px; position:fixed; top:10%;    transform: translate(-50%, -50%);left:48%""></img><img src=""media/stimuli/animate_009_right.png"" class=""coveredImage test"" style = ""width:100px; height:100px;position:fixed; top:25%;        transform: translate(-50%, -50%);left:38%""></img><img src=""media/stimuli/animate_009_left.png"" class=""coveredImage test"" style = ""width:100px; height:100px;position:fixed; top:25%;        transform: translate(-50%, -50%);left:54.5%""></img><img src=""media/stimuli/animate_009_left.png"" class=""coveredImage test"" style = ""width:100px; height:100px;position:fixed; top:25%;        transform: translate(-50%, -50%);left:61.5%""></img><img src=""media/f.png""style = ""width:30px x; height:30px;position:fixed; top:43%;    transform: translate(-50%, -50%);left:40%""></img><img src=""media/j.png""style = ""width:30px; height:30px;position:fixed; top:43%;    transform: translate(-50%, -50%);left:60%""></img>","media/stimuli/animate_009_left.png","animate","left","single","media/stimuli/animate_009_right.png","animate","right","single","media/stimuli/animate_009_left.png","animate","left","pair","pose_number","","","",""
"","","","","","html-keyboard-response","20","149649","0.0-20.0","SS1678233171077","63d69e4d6648b39324fdf0ad","6406d7f26dd5b7fc1e3377bd","6407ce4926c6e8b15a792b7e","1366","649","","1975","","f","","","","","","","","","","","","","","","","","","","",""
"","","","","","html-keyboard-response","21","151005","0.0-21.0","SS1678233171077","63d69e4d6648b39324fdf0ad","6406d7f26dd5b7fc1e3377bd","6407ce4926c6e8b15a792b7e","1366","649","","1350","","f","","","<img src=""media/stimuli/inanimate_003_left.png"" class=""coveredImage test"" style = ""width:100px; height:100px; position:fixed; top:10%;    transform: translate(-50%, -50%);left:44.5%""></img><img src=""media/stimuli/inanimate_003_left.png"" class=""coveredImage test"" style = ""width:100px; height:100px; position:fixed; top:10%;    transform: translate(-50%, -50%);left:51.5%""></img><img src=""media/stimuli/inanimate_003_left.png"" class=""coveredImage test"" style = ""width:100px; height:100px;position:fixed; top:25%;        transform: translate(-50%, -50%);left:38%""></img><img src=""media/stimuli/animate_003_left.png"" class=""coveredImage test"" style = ""width:100px; height:100px;position:fixed; top:25%;        transform: translate(-50%, -50%);left:54.5%""></img><img src=""media/stimuli/animate_003_left.png"" class=""coveredImage test"" style = ""width:100px; height:100px;position:fixed; top:25%;        transform: translate(-50%, -50%);left:61.5%""></img><img src=""media/f.png""style = ""width:30px x; height:30px;position:fixed; top:43%;    transform: translate(-50%, -50%);left:40%""></img><img src=""media/j.png""style = ""width:30px; height:30px;position:fixed; top:43%;    transform: translate(-50%, -50%);left:60%""></img>","media/stimuli/inanimate_003_left.png","inanimate","left","pair","media/stimuli/inanimate_003_left.png","inanimate","left","single","media/stimuli/animate_003_left.png","animate","left","pair","number_animacy","","","",""
"","","","","","html-keyboard-response","22","152026","0.0-22.0","SS1678233171077","63d69e4d6648b39324fdf0ad","6406d7f26dd5b7fc1e3377bd","6407ce4926c6e8b15a792b7e","1366","649","","1014","","f","","","<img src=""media/stimuli/inanimate_008_left.png"" class=""coveredImage test"" style = ""width:100px; height:100px; position:fixed; top:10%;    transform: translate(-50%, -50%);left:48%""></img><img src=""media/stimuli/inanimate_008_left.png"" class=""coveredImage test"" style = ""width:100px; height:100px;position:fixed; top:25%;        transform: translate(-50%, -50%);left:38%""></img><img src=""media/stimuli/animate_006_right.png"" class=""coveredImage test"" style = ""width:100px; height:100px;position:fixed; top:25%;        transform: translate(-50%, -50%);left:58%""></img><img src=""media/f.png""style = ""width:30px x; height:30px;position:fixed; top:43%;    transform: translate(-50%, -50%);left:40%""></img><img src=""media/j.png""style = ""width:30px; height:30px;position:fixed; top:43%;    transform: translate(-50%, -50%);left:60%""></img>","media/stimuli/inanimate_008_left.png","inanimate","left","single","media/stimuli/inanimate_008_left.png","inanimate","left","single","media/stimuli/animate_006_right.png","animate","right","single","pose_animacy","","","",""
"","","","","","html-keyboard-response","23","155216","0.0-23.0","SS1678233171077","63d69e4d6648b39324fdf0ad","6406d7f26dd5b7fc1e3377bd","6407ce4926c6e8b15a792b7e","1366","649","","3181","","f","","","<img src=""media/stimuli/inanimate_010_right.png"" class=""coveredImage test"" style = ""width:100px; height:100px; position:fixed; top:10%;    transform: translate(-50%, -50%);left:44.5%""></img><img src=""media/stimuli/inanimate_010_right.png"" class=""coveredImage test"" style = ""width:100px; height:100px; position:fixed; top:10%;    transform: translate(-50%, -50%);left:51.5%""></img><img src=""media/stimuli/inanimate_010_right.png"" class=""coveredImage test"" style = ""width:100px; height:100px;position:fixed; top:25%;        transform: translate(-50%, -50%);left:38%""></img><img src=""media/stimuli/animate_011_right.png"" class=""coveredImage test"" style = ""width:100px; height:100px;position:fixed; top:25%;        transform: translate(-50%, -50%);left:54.5%""></img><img src=""media/stimuli/animate_011_right.png"" class=""coveredImage test"" style = ""width:100px; height:100px;position:fixed; top:25%;        transform: translate(-50%, -50%);left:61.5%""></img><img src=""media/f.png""style = ""width:30px x; height:30px;position:fixed; top:43%;    transform: translate(-50%, -50%);left:40%""></img><img src=""media/j.png""style = ""width:30px; height:30px;position:fixed; top:43%;    transform: translate(-50%, -50%);left:60%""></img>","media/stimuli/inanimate_010_right.png","inanimate","right","pair","media/stimuli/inanimate_010_right.png","inanimate","right","single","media/stimuli/animate_011_right.png","animate","right","pair","number_animacy","","","",""
"","","","","","html-keyboard-response","24","160527","0.0-24.0","SS1678233171077","63d69e4d6648b39324fdf0ad","6406d7f26dd5b7fc1e3377bd","6407ce4926c6e8b15a792b7e","1366","649","","5302","","f","","","<img src=""media/stimuli/animate_005_right.png"" class=""coveredImage test"" style = ""width:100px; height:100px; position:fixed; top:10%;    transform: translate(-50%, -50%);left:44.5%""></img><img src=""media/stimuli/animate_005_right.png"" class=""coveredImage test"" style = ""width:100px; height:100px; position:fixed; top:10%;    transform: translate(-50%, -50%);left:51.5%""></img><img src=""media/stimuli/inanimate_009_right.png"" class=""coveredImage test"" style = ""width:100px; height:100px;position:fixed; top:25%;        transform: translate(-50%, -50%);left:38%""></img><img src=""media/stimuli/animate_005_left.png"" class=""coveredImage test"" style = ""width:100px; height:100px;position:fixed; top:25%;        transform: translate(-50%, -50%);left:58%""></img><img src=""media/f.png""style = ""width:30px x; height:30px;position:fixed; top:43%;    transform: translate(-50%, -50%);left:40%""></img><img src=""media/j.png""style = ""width:30px; height:30px;position:fixed; top:43%;    transform: translate(-50%, -50%);left:60%""></img>","media/stimuli/animate_005_right.png","animate","right","pair","media/stimuli/inanimate_009_right.png","inanimate","right","single","media/stimuli/animate_005_left.png","animate","left","single","animacy_pose","","","",""
"","","","","","html-keyboard-response","25","162260","0.0-25.0","SS1678233171077","63d69e4d6648b39324fdf0ad","6406d7f26dd5b7fc1e3377bd","6407ce4926c6e8b15a792b7e","1366","649","","1726","","f","","","<img src=""media/stimuli/animate_006_right.png"" class=""coveredImage test"" style = ""width:100px; height:100px; position:fixed; top:10%;    transform: translate(-50%, -50%);left:44.5%""></img><img src=""media/stimuli/animate_006_right.png"" class=""coveredImage test"" style = ""width:100px; height:100px; position:fixed; top:10%;    transform: translate(-50%, -50%);left:51.5%""></img><img src=""media/stimuli/animate_006_right.png"" class=""coveredImage test"" style = ""width:100px; height:100px;position:fixed; top:25%;        transform: translate(-50%, -50%);left:38%""></img><img src=""media/stimuli/animate_006_left.png"" class=""coveredImage test"" style = ""width:100px; height:100px;position:fixed; top:25%;        transform: translate(-50%, -50%);left:54.5%""></img><img src=""media/stimuli/animate_006_left.png"" class=""coveredImage test"" style = ""width:100px; height:100px;position:fixed; top:25%;        transform: translate(-50%, -50%);left:61.5%""></img><img src=""media/f.png""style = ""width:30px x; height:30px;position:fixed; top:43%;    transform: translate(-50%, -50%);left:40%""></img><img src=""media/j.png""style = ""width:30px; height:30px;position:fixed; top:43%;    transform: translate(-50%, -50%);left:60%""></img>","media/stimuli/animate_006_right.png","animate","right","pair","media/stimuli/animate_006_right.png","animate","right","single","media/stimuli/animate_006_left.png","animate","left","pair","number_pose","","","",""
"","","","","","html-keyboard-response","26","167636","0.0-26.0","SS1678233171077","63d69e4d6648b39324fdf0ad","6406d7f26dd5b7fc1e3377bd","6407ce4926c6e8b15a792b7e","1366","649","","5370","","j","","","<img src=""media/stimuli/inanimate_011_right.png"" class=""coveredImage test"" style = ""width:100px; height:100px; position:fixed; top:10%;    transform: translate(-50%, -50%);left:44.5%""></img><img src=""media/stimuli/inanimate_011_right.png"" class=""coveredImage test"" style = ""width:100px; height:100px; position:fixed; top:10%;    transform: translate(-50%, -50%);left:51.5%""></img><img src=""media/stimuli/inanimate_011_left.png"" class=""coveredImage test"" style = ""width:100px; height:100px;position:fixed; top:25%;        transform: translate(-50%, -50%);left:38%""></img><img src=""media/stimuli/animate_002_right.png"" class=""coveredImage test"" style = ""width:100px; height:100px;position:fixed; top:25%;        transform: translate(-50%, -50%);left:58%""></img><img src=""media/f.png""style = ""width:30px x; height:30px;position:fixed; top:43%;    transform: translate(-50%, -50%);left:40%""></img><img src=""media/j.png""style = ""width:30px; height:30px;position:fixed; top:43%;    transform: translate(-50%, -50%);left:60%""></img>","media/stimuli/inanimate_011_right.png","inanimate","right","pair","media/stimuli/inanimate_011_left.png","inanimate","left","single","media/stimuli/animate_002_right.png","animate","right","single","pose_animacy","","","",""
"","","","","","html-keyboard-response","27","169365","0.0-27.0","SS1678233171077","63d69e4d6648b39324fdf0ad","6406d7f26dd5b7fc1e3377bd","6407ce4926c6e8b15a792b7e","1366","649","","1719","","j","","","<img src=""media/stimuli/animate_010_right.png"" class=""coveredImage test"" style = ""width:100px; height:100px; position:fixed; top:10%;    transform: translate(-50%, -50%);left:44.5%""></img><img src=""media/stimuli/animate_010_right.png"" class=""coveredImage test"" style = ""width:100px; height:100px; position:fixed; top:10%;    transform: translate(-50%, -50%);left:51.5%""></img><img src=""media/stimuli/inanimate_005_right.png"" class=""coveredImage test"" style = ""width:100px; height:100px;position:fixed; top:25%;        transform: translate(-50%, -50%);left:34.5%""></img><img src=""media/stimuli/inanimate_005_right.png"" class=""coveredImage test"" style = ""width:100px; height:100px;position:fixed; top:25%;        transform: translate(-50%, -50%);left:41.5%""></img><img src=""media/stimuli/animate_010_right.png"" class=""coveredImage test"" style = ""width:100px; height:100px;position:fixed; top:25%;        transform: translate(-50%, -50%);left:58%""></img><img src=""media/f.png""style = ""width:30px x; height:30px;position:fixed; top:43%;    transform: translate(-50%, -50%);left:40%""></img><img src=""media/j.png""style = ""width:30px; height:30px;position:fixed; top:43%;    transform: translate(-50%, -50%);left:60%""></img>","media/stimuli/animate_010_right.png","animate","right","pair","media/stimuli/inanimate_005_right.png","inanimate","right","pair","media/stimuli/animate_010_right.png","animate","right","single","animacy_number","","","",""
"","","","","","html-keyboard-response","28","171243","0.0-28.0","SS1678233171077","63d69e4d6648b39324fdf0ad","6406d7f26dd5b7fc1e3377bd","6407ce4926c6e8b15a792b7e","1366","649","","1869","","f","","","<img src=""media/stimuli/animate_003_left.png"" class=""coveredImage test"" style = ""width:100px; height:100px; position:fixed; top:10%;    transform: translate(-50%, -50%);left:48%""></img><img src=""media/stimuli/inanimate_007_left.png"" class=""coveredImage test"" style = ""width:100px; height:100px;position:fixed; top:25%;        transform: translate(-50%, -50%);left:34.5%""></img><img src=""media/stimuli/inanimate_007_left.png"" class=""coveredImage test"" style = ""width:100px; height:100px;position:fixed; top:25%;        transform: translate(-50%, -50%);left:41.5%""></img><img src=""media/stimuli/animate_003_right.png"" class=""coveredImage test"" style = ""width:100px; height:100px;position:fixed; top:25%;        transform: translate(-50%, -50%);left:54.5%""></img><img src=""media/stimuli/animate_003_right.png"" class=""coveredImage test"" style = ""width:100px; height:100px;position:fixed; top:25%;        transform: translate(-50%, -50%);left:61.5%""></img><img src=""media/f.png""style = ""width:30px x; height:30px;position:fixed; top:43%;    transform: translate(-50%, -50%);left:40%""></img><img src=""media/j.png""style = ""width:30px; height:30px;position:fixed; top:43%;    transform: translate(-50%, -50%);left:60%""></img>","media/stimuli/animate_003_left.png","animate","left","single","media/stimuli/inanimate_007_left.png","inanimate","left","pair","media/stimuli/animate_003_right.png","animate","right","pair","animacy_pose","","","",""
"","","","","","html-keyboard-response","29","172784","0.0-29.0","SS1678233171077","63d69e4d6648b39324fdf0ad","6406d7f26dd5b7fc1e3377bd","6407ce4926c6e8b15a792b7e","1366","649","","1533","","f","","","<img src=""media/stimuli/animate_004_left.png"" class=""coveredImage test"" style = ""width:100px; height:100px; position:fixed; top:10%;    transform: translate(-50%, -50%);left:48%""></img><img src=""media/stimuli/animate_004_left.png"" class=""coveredImage test"" style = ""width:100px; height:100px;position:fixed; top:25%;        transform: translate(-50%, -50%);left:34.5%""></img><img src=""media/stimuli/animate_004_left.png"" class=""coveredImage test"" style = ""width:100px; height:100px;position:fixed; top:25%;        transform: translate(-50%, -50%);left:41.5%""></img><img src=""media/stimuli/inanimate_006_left.png"" class=""coveredImage test"" style = ""width:100px; height:100px;position:fixed; top:25%;        transform: translate(-50%, -50%);left:58%""></img><img src=""media/f.png""style = ""width:30px x; height:30px;position:fixed; top:43%;    transform: translate(-50%, -50%);left:40%""></img><img src=""media/j.png""style = ""width:30px; height:30px;position:fixed; top:43%;    transform: translate(-50%, -50%);left:60%""></img>","media/stimuli/animate_004_left.png","animate","left","single","media/stimuli/animate_004_left.png","animate","left","pair","media/stimuli/inanimate_006_left.png","inanimate","left","single","number_animacy","","","",""
"","","","","","html-keyboard-response","30","174350","0.0-30.0","SS1678233171077","63d69e4d6648b39324fdf0ad","6406d7f26dd5b7fc1e3377bd","6407ce4926c6e8b15a792b7e","1366","649","","1556","","j","","","<img src=""media/stimuli/inanimate_011_left.png"" class=""coveredImage test"" style = ""width:100px; height:100px; position:fixed; top:10%;    transform: translate(-50%, -50%);left:44.5%""></img><img src=""media/stimuli/inanimate_011_left.png"" class=""coveredImage test"" style = ""width:100px; height:100px; position:fixed; top:10%;    transform: translate(-50%, -50%);left:51.5%""></img><img src=""media/stimuli/inanimate_011_right.png"" class=""coveredImage test"" style = ""width:100px; height:100px;position:fixed; top:25%;        transform: translate(-50%, -50%);left:34.5%""></img><img src=""media/stimuli/inanimate_011_right.png"" class=""coveredImage test"" style = ""width:100px; height:100px;position:fixed; top:25%;        transform: translate(-50%, -50%);left:41.5%""></img><img src=""media/stimuli/inanimate_011_left.png"" class=""coveredImage test"" style = ""width:100px; height:100px;position:fixed; top:25%;        transform: translate(-50%, -50%);left:58%""></img><img src=""media/f.png""style = ""width:30px x; height:30px;position:fixed; top:43%;    transform: translate(-50%, -50%);left:40%""></img><img src=""media/j.png""style = ""width:30px; height:30px;position:fixed; top:43%;    transform: translate(-50%, -50%);left:60%""></img>","media/stimuli/inanimate_011_left.png","inanimate","left","pair","media/stimuli/inanimate_011_right.png","inanimate","right","pair","media/stimuli/inanimate_011_left.png","inanimate","left","single","pose_number","","","",""
"","","","","","html-keyboard-response","31","175759","0.0-31.0","SS1678233171077","63d69e4d6648b39324fdf0ad","6406d7f26dd5b7fc1e3377bd","6407ce4926c6e8b15a792b7e","1366","649","","1400","","j","","","<img src=""media/stimuli/inanimate_005_left.png"" class=""coveredImage test"" style = ""width:100px; height:100px; position:fixed; top:10%;    transform: translate(-50%, -50%);left:44.5%""></img><img src=""media/stimuli/inanimate_005_left.png"" class=""coveredImage test"" style = ""width:100px; height:100px; position:fixed; top:10%;    transform: translate(-50%, -50%);left:51.5%""></img><img src=""media/stimuli/inanimate_005_left.png"" class=""coveredImage test"" style = ""width:100px; height:100px;position:fixed; top:25%;        transform: translate(-50%, -50%);left:38%""></img><img src=""media/stimuli/inanimate_012_left.png"" class=""coveredImage test"" style = ""width:100px; height:100px;position:fixed; top:25%;        transform: translate(-50%, -50%);left:54.5%""></img><img src=""media/stimuli/inanimate_012_left.png"" class=""coveredImage test"" style = ""width:100px; height:100px;position:fixed; top:25%;        transform: translate(-50%, -50%);left:61.5%""></img><img src=""media/f.png""style = ""width:30px x; height:30px;position:fixed; top:43%;    transform: translate(-50%, -50%);left:40%""></img><img src=""media/j.png""style = ""width:30px; height:30px;position:fixed; top:43%;    transform: translate(-50%, -50%);left:60%""></img>","media/stimuli/inanimate_005_left.png","inanimate","left","pair","media/stimuli/inanimate_005_left.png","inanimate","left","single","media/stimuli/inanimate_012_left.png","inanimate","left","pair","number_identity","","","",""
"","","","","","html-keyboard-response","32","177278","0.0-32.0","SS1678233171077","63d69e4d6648b39324fdf0ad","6406d7f26dd5b7fc1e3377bd","6407ce4926c6e8b15a792b7e","1366","649","","1511","","f","","","<img src=""media/stimuli/inanimate_009_right.png"" class=""coveredImage test"" style = ""width:100px; height:100px; position:fixed; top:10%;    transform: translate(-50%, -50%);left:44.5%""></img><img src=""media/stimuli/inanimate_009_right.png"" class=""coveredImage test"" style = ""width:100px; height:100px; position:fixed; top:10%;    transform: translate(-50%, -50%);left:51.5%""></img><img src=""media/stimuli/inanimate_009_right.png"" class=""coveredImage test"" style = ""width:100px; height:100px;position:fixed; top:25%;        transform: translate(-50%, -50%);left:34.5%""></img><img src=""media/stimuli/inanimate_009_right.png"" class=""coveredImage test"" style = ""width:100px; height:100px;position:fixed; top:25%;        transform: translate(-50%, -50%);left:41.5%""></img><img src=""media/stimuli/animate_009_left.png"" class=""coveredImage test"" style = ""width:100px; height:100px;position:fixed; top:25%;        transform: translate(-50%, -50%);left:54.5%""></img><img src=""media/stimuli/animate_009_left.png"" class=""coveredImage test"" style = ""width:100px; height:100px;position:fixed; top:25%;        transform: translate(-50%, -50%);left:61.5%""></img><img src=""media/f.png""style = ""width:30px x; height:30px;position:fixed; top:43%;    transform: translate(-50%, -50%);left:40%""></img><img src=""media/j.png""style = ""width:30px; height:30px;position:fixed; top:43%;    transform: translate(-50%, -50%);left:60%""></img>","media/stimuli/inanimate_009_right.png","inanimate","right","pair","media/stimuli/inanimate_009_right.png","inanimate","right","pair","media/stimuli/animate_009_left.png","animate","left","pair","pose_animacy","","","",""
"","","","","","html-keyboard-response","33","178764","0.0-33.0","SS1678233171077","63d69e4d6648b39324fdf0ad","6406d7f26dd5b7fc1e3377bd","6407ce4926c6e8b15a792b7e","1366","649","","1489","","j","","","","","","","","","","","","","","","","","","","",""
"","","","","","html-keyboard-response","34","180600","0.0-34.0","SS1678233171077","63d69e4d6648b39324fdf0ad","6406d7f26dd5b7fc1e3377bd","6407ce4926c6e8b15a792b7e","1366","649","","1828","","j","","","<img src=""media/stimuli/inanimate_008_left.png"" class=""coveredImage test"" style = ""width:100px; height:100px; position:fixed; top:10%;    transform: translate(-50%, -50%);left:48%""></img><img src=""media/stimuli/inanimate_001_left.png"" class=""coveredImage test"" style = ""width:100px; height:100px;position:fixed; top:25%;        transform: translate(-50%, -50%);left:38%""></img><img src=""media/stimuli/inanimate_008_left.png"" class=""coveredImage test"" style = ""width:100px; height:100px;position:fixed; top:25%;        transform: translate(-50%, -50%);left:54.5%""></img><img src=""media/stimuli/inanimate_008_left.png"" class=""coveredImage test"" style = ""width:100px; height:100px;position:fixed; top:25%;        transform: translate(-50%, -50%);left:61.5%""></img><img src=""media/f.png""style = ""width:30px x; height:30px;position:fixed; top:43%;    transform: translate(-50%, -50%);left:40%""></img><img src=""media/j.png""style = ""width:30px; height:30px;position:fixed; top:43%;    transform: translate(-50%, -50%);left:60%""></img>","media/stimuli/inanimate_008_left.png","inanimate","left","single","media/stimuli/inanimate_001_left.png","inanimate","left","single","media/stimuli/inanimate_008_left.png","inanimate","left","pair","identity_number","","","",""
"","","","","","html-keyboard-response","35","187712","0.0-35.0","SS1678233171077","63d69e4d6648b39324fdf0ad","6406d7f26dd5b7fc1e3377bd","6407ce4926c6e8b15a792b7e","1366","649","","7103","","j","","","<img src=""media/stimuli/inanimate_009_left.png"" class=""coveredImage test"" style = ""width:100px; height:100px; position:fixed; top:10%;    transform: translate(-50%, -50%);left:44.5%""></img><img src=""media/stimuli/inanimate_009_left.png"" class=""coveredImage test"" style = ""width:100px; height:100px; position:fixed; top:10%;    transform: translate(-50%, -50%);left:51.5%""></img><img src=""media/stimuli/animate_010_left.png"" class=""coveredImage test"" style = ""width:100px; height:100px;position:fixed; top:25%;        transform: translate(-50%, -50%);left:34.5%""></img><img src=""media/stimuli/animate_010_left.png"" class=""coveredImage test"" style = ""width:100px; height:100px;position:fixed; top:25%;        transform: translate(-50%, -50%);left:41.5%""></img><img src=""media/stimuli/inanimate_009_left.png"" class=""coveredImage test"" style = ""width:100px; height:100px;position:fixed; top:25%;        transform: translate(-50%, -50%);left:58%""></img><img src=""media/f.png""style = ""width:30px x; height:30px;position:fixed; top:43%;    transform: translate(-50%, -50%);left:40%""></img><img src=""media/j.png""style = ""width:30px; height:30px;position:fixed; top:43%;    transform: translate(-50%, -50%);left:60%""></img>","media/stimuli/inanimate_009_left.png","inanimate","left","pair","media/stimuli/animate_010_left.png","animate","left","pair","media/stimuli/inanimate_009_left.png","inanimate","left","single","animacy_number","","","",""
"","","","","","html-keyboard-response","36","189197","0.0-36.0","SS1678233171077","63d69e4d6648b39324fdf0ad","6406d7f26dd5b7fc1e3377bd","6407ce4926c6e8b15a792b7e","1366","649","","1475","","j","","","<img src=""media/stimuli/animate_011_left.png"" class=""coveredImage test"" style = ""width:100px; height:100px; position:fixed; top:10%;    transform: translate(-50%, -50%);left:44.5%""></img><img src=""media/stimuli/animate_011_left.png"" class=""coveredImage test"" style = ""width:100px; height:100px; position:fixed; top:10%;    transform: translate(-50%, -50%);left:51.5%""></img><img src=""media/stimuli/animate_012_left.png"" class=""coveredImage test"" style = ""width:100px; height:100px;position:fixed; top:25%;        transform: translate(-50%, -50%);left:34.5%""></img><img src=""media/stimuli/animate_012_left.png"" class=""coveredImage test"" style = ""width:100px; height:100px;position:fixed; top:25%;        transform: translate(-50%, -50%);left:41.5%""></img><img src=""media/stimuli/animate_011_left.png"" class=""coveredImage test"" style = ""width:100px; height:100px;position:fixed; top:25%;        transform: translate(-50%, -50%);left:58%""></img><img src=""media/f.png""style = ""width:30px x; height:30px;position:fixed; top:43%;    transform: translate(-50%, -50%);left:40%""></img><img src=""media/j.png""style = ""width:30px; height:30px;position:fixed; top:43%;    transform: translate(-50%, -50%);left:60%""></img>","media/stimuli/animate_011_left.png","animate","left","pair","media/stimuli/animate_012_left.png","animate","left","pair","media/stimuli/animate_011_left.png","animate","left","single","identity_number","","","",""
"","","","","","html-keyboard-response","37","190932","0.0-37.0","SS1678233171077","63d69e4d6648b39324fdf0ad","6406d7f26dd5b7fc1e3377bd","6407ce4926c6e8b15a792b7e","1366","649","","1717","","j","","","<img src=""media/stimuli/animate_005_right.png"" class=""coveredImage test"" style = ""width:100px; height:100px; position:fixed; top:10%;    transform: translate(-50%, -50%);left:48%""></img><img src=""media/stimuli/animate_005_left.png"" class=""coveredImage test"" style = ""width:100px; height:100px;position:fixed; top:25%;        transform: translate(-50%, -50%);left:38%""></img><img src=""media/stimuli/animate_004_right.png"" class=""coveredImage test"" style = ""width:100px; height:100px;position:fixed; top:25%;        transform: translate(-50%, -50%);left:58%""></img><img src=""media/f.png""style = ""width:30px x; height:30px;position:fixed; top:43%;    transform: translate(-50%, -50%);left:40%""></img><img src=""media/j.png""style = ""width:30px; height:30px;position:fixed; top:43%;    transform: translate(-50%, -50%);left:60%""></img>","media/stimuli/animate_005_right.png","animate","right","single","media/stimuli/animate_005_left.png","animate","left","single","media/stimuli/animate_004_right.png","animate","right","single","pose_identity","","","",""
"","","","","","html-keyboard-response","38","192344","0.0-38.0","SS1678233171077","63d69e4d6648b39324fdf0ad","6406d7f26dd5b7fc1e3377bd","6407ce4926c6e8b15a792b7e","1366","649","","1403","","f","","","<img src=""media/stimuli/animate_012_right.png"" class=""coveredImage test"" style = ""width:100px; height:100px; position:fixed; top:10%;    transform: translate(-50%, -50%);left:48%""></img><img src=""media/stimuli/animate_012_right.png"" class=""coveredImage test"" style = ""width:100px; height:100px;position:fixed; top:25%;        transform: translate(-50%, -50%);left:38%""></img><img src=""media/stimuli/inanimate_011_left.png"" class=""coveredImage test"" style = ""width:100px; height:100px;position:fixed; top:25%;        transform: translate(-50%, -50%);left:58%""></img><img src=""media/f.png""style = ""width:30px x; height:30px;position:fixed; top:43%;    transform: translate(-50%, -50%);left:40%""></img><img src=""media/j.png""style = ""width:30px; height:30px;position:fixed; top:43%;    transform: translate(-50%, -50%);left:60%""></img>","media/stimuli/animate_012_right.png","animate","right","single","media/stimuli/animate_012_right.png","animate","right","single","media/stimuli/inanimate_011_left.png","inanimate","left","single","pose_animacy","","","",""
"","","","","","html-keyboard-response","39","195162","0.0-39.0","SS1678233171077","63d69e4d6648b39324fdf0ad","6406d7f26dd5b7fc1e3377bd","6407ce4926c6e8b15a792b7e","1366","649","","2805","","j","","","<img src=""media/stimuli/inanimate_012_right.png"" class=""coveredImage test"" style = ""width:100px; height:100px; position:fixed; top:10%;    transform: translate(-50%, -50%);left:48%""></img><img src=""media/stimuli/animate_004_right.png"" class=""coveredImage test"" style = ""width:100px; height:100px;position:fixed; top:25%;        transform: translate(-50%, -50%);left:38%""></img><img src=""media/stimuli/inanimate_002_right.png"" class=""coveredImage test"" style = ""width:100px; height:100px;position:fixed; top:25%;        transform: translate(-50%, -50%);left:58%""></img><img src=""media/f.png""style = ""width:30px x; height:30px;position:fixed; top:43%;    transform: translate(-50%, -50%);left:40%""></img><img src=""media/j.png""style = ""width:30px; height:30px;position:fixed; top:43%;    transform: translate(-50%, -50%);left:60%""></img>","media/stimuli/inanimate_012_right.png","inanimate","right","single","media/stimuli/animate_004_right.png","animate","right","single","media/stimuli/inanimate_002_right.png","inanimate","right","single","animacy_identity","","","",""
"","","","","","html-keyboard-response","40","197966","0.0-40.0","SS1678233171077","63d69e4d6648b39324fdf0ad","6406d7f26dd5b7fc1e3377bd","6407ce4926c6e8b15a792b7e","1366","649","","2795","","f","","","<img src=""media/stimuli/animate_009_left.png"" class=""coveredImage test"" style = ""width:100px; height:100px; position:fixed; top:10%;    transform: translate(-50%, -50%);left:44.5%""></img><img src=""media/stimuli/animate_009_left.png"" class=""coveredImage test"" style = ""width:100px; height:100px; position:fixed; top:10%;    transform: translate(-50%, -50%);left:51.5%""></img><img src=""media/stimuli/animate_009_left.png"" class=""coveredImage test"" style = ""width:100px; height:100px;position:fixed; top:25%;        transform: translate(-50%, -50%);left:38%""></img><img src=""media/stimuli/animate_001_left.png"" class=""coveredImage test"" style = ""width:100px; height:100px;position:fixed; top:25%;        transform: translate(-50%, -50%);left:54.5%""></img><img src=""media/stimuli/animate_001_left.png"" class=""coveredImage test"" style = ""width:100px; height:100px;position:fixed; top:25%;        transform: translate(-50%, -50%);left:61.5%""></img><img src=""media/f.png""style = ""width:30px x; height:30px;position:fixed; top:43%;    transform: translate(-50%, -50%);left:40%""></img><img src=""media/j.png""style = ""width:30px; height:30px;position:fixed; top:43%;    transform: translate(-50%, -50%);left:60%""></img>","media/stimuli/animate_009_left.png","animate","left","pair","media/stimuli/animate_009_left.png","animate","left","single","media/stimuli/animate_001_left.png","animate","left","pair","number_identity","","","",""
"","","","","","html-keyboard-response","41","202877","0.0-41.0","SS1678233171077","63d69e4d6648b39324fdf0ad","6406d7f26dd5b7fc1e3377bd","6407ce4926c6e8b15a792b7e","1366","649","","4900","","j","","","<img src=""media/stimuli/inanimate_007_right.png"" class=""coveredImage test"" style = ""width:100px; height:100px; position:fixed; top:10%;    transform: translate(-50%, -50%);left:44.5%""></img><img src=""media/stimuli/inanimate_007_right.png"" class=""coveredImage test"" style = ""width:100px; height:100px; position:fixed; top:10%;    transform: translate(-50%, -50%);left:51.5%""></img><img src=""media/stimuli/inanimate_007_left.png"" class=""coveredImage test"" style = ""width:100px; height:100px;position:fixed; top:25%;        transform: translate(-50%, -50%);left:34.5%""></img><img src=""media/stimuli/inanimate_007_left.png"" class=""coveredImage test"" style = ""width:100px; height:100px;position:fixed; top:25%;        transform: translate(-50%, -50%);left:41.5%""></img><img src=""media/stimuli/inanimate_007_right.png"" class=""coveredImage test"" style = ""width:100px; height:100px;position:fixed; top:25%;        transform: translate(-50%, -50%);left:58%""></img><img src=""media/f.png""style = ""width:30px x; height:30px;position:fixed; top:43%;    transform: translate(-50%, -50%);left:40%""></img><img src=""media/j.png""style = ""width:30px; height:30px;position:fixed; top:43%;    transform: translate(-50%, -50%);left:60%""></img>","media/stimuli/inanimate_007_right.png","inanimate","right","pair","media/stimuli/inanimate_007_left.png","inanimate","left","pair","media/stimuli/inanimate_007_right.png","inanimate","right","single","pose_number","","","",""
"","","","","","html-keyboard-response","42","204262","0.0-42.0","SS1678233171077","63d69e4d6648b39324fdf0ad","6406d7f26dd5b7fc1e3377bd","6407ce4926c6e8b15a792b7e","1366","649","","1375","","f","","","<img src=""media/stimuli/inanimate_003_right.png"" class=""coveredImage test"" style = ""width:100px; height:100px; position:fixed; top:10%;    transform: translate(-50%, -50%);left:48%""></img><img src=""media/stimuli/inanimate_006_right.png"" class=""coveredImage test"" style = ""width:100px; height:100px;position:fixed; top:25%;        transform: translate(-50%, -50%);left:38%""></img><img src=""media/stimuli/inanimate_003_left.png"" class=""coveredImage test"" style = ""width:100px; height:100px;position:fixed; top:25%;        transform: translate(-50%, -50%);left:58%""></img><img src=""media/f.png""style = ""width:30px x; height:30px;position:fixed; top:43%;    transform: translate(-50%, -50%);left:40%""></img><img src=""media/j.png""style = ""width:30px; height:30px;position:fixed; top:43%;    transform: translate(-50%, -50%);left:60%""></img>","media/stimuli/inanimate_003_right.png","inanimate","right","single","media/stimuli/inanimate_006_right.png","inanimate","right","single","media/stimuli/inanimate_003_left.png","inanimate","left","single","identity_pose","","","",""
"","","","","","html-keyboard-response","43","205690","0.0-43.0","SS1678233171077","63d69e4d6648b39324fdf0ad","6406d7f26dd5b7fc1e3377bd","6407ce4926c6e8b15a792b7e","1366","649","","1418","","f","","","<img src=""media/stimuli/animate_002_right.png"" class=""coveredImage test"" style = ""width:100px; height:100px; position:fixed; top:10%;    transform: translate(-50%, -50%);left:44.5%""></img><img src=""media/stimuli/animate_002_right.png"" class=""coveredImage test"" style = ""width:100px; height:100px; position:fixed; top:10%;    transform: translate(-50%, -50%);left:51.5%""></img><img src=""media/stimuli/animate_002_right.png"" class=""coveredImage test"" style = ""width:100px; height:100px;position:fixed; top:25%;        transform: translate(-50%, -50%);left:38%""></img><img src=""media/stimuli/inanimate_005_right.png"" class=""coveredImage test"" style = ""width:100px; height:100px;position:fixed; top:25%;        transform: translate(-50%, -50%);left:54.5%""></img><img src=""media/stimuli/inanimate_005_right.png"" class=""coveredImage test"" style = ""width:100px; height:100px;position:fixed; top:25%;        transform: translate(-50%, -50%);left:61.5%""></img><img src=""media/f.png""style = ""width:30px x; height:30px;position:fixed; top:43%;    transform: translate(-50%, -50%);left:40%""></img><img src=""media/j.png""style = ""width:30px; height:30px;position:fixed; top:43%;    transform: translate(-50%, -50%);left:60%""></img>","media/stimuli/animate_002_right.png","animate","right","pair","media/stimuli/animate_002_right.png","animate","right","single","media/stimuli/inanimate_005_right.png","inanimate","right","pair","number_animacy","","","",""
"","","","","","html-keyboard-response","44","208251","0.0-44.0","SS1678233171077","63d69e4d6648b39324fdf0ad","6406d7f26dd5b7fc1e3377bd","6407ce4926c6e8b15a792b7e","1366","649","","2551","","f","","","<img src=""media/stimuli/inanimate_003_left.png"" class=""coveredImage test"" style = ""width:100px; height:100px; position:fixed; top:10%;    transform: translate(-50%, -50%);left:48%""></img><img src=""media/stimuli/inanimate_001_left.png"" class=""coveredImage test"" style = ""width:100px; height:100px;position:fixed; top:25%;        transform: translate(-50%, -50%);left:38%""></img><img src=""media/stimuli/animate_006_left.png"" class=""coveredImage test"" style = ""width:100px; height:100px;position:fixed; top:25%;        transform: translate(-50%, -50%);left:58%""></img><img src=""media/f.png""style = ""width:30px x; height:30px;position:fixed; top:43%;    transform: translate(-50%, -50%);left:40%""></img><img src=""media/j.png""style = ""width:30px; height:30px;position:fixed; top:43%;    transform: translate(-50%, -50%);left:60%""></img>","media/stimuli/inanimate_003_left.png","inanimate","left","single","media/stimuli/inanimate_001_left.png","inanimate","left","single","media/stimuli/animate_006_left.png","animate","left","single","identity_animacy","","","",""
"","","","","","html-keyboard-response","45","211486","0.0-45.0","SS1678233171077","63d69e4d6648b39324fdf0ad","6406d7f26dd5b7fc1e3377bd","6407ce4926c6e8b15a792b7e","1366","649","","3227","","j","","","<img src=""media/stimuli/animate_002_right.png"" class=""coveredImage test"" style = ""width:100px; height:100px; position:fixed; top:10%;    transform: translate(-50%, -50%);left:44.5%""></img><img src=""media/stimuli/animate_002_right.png"" class=""coveredImage test"" style = ""width:100px; height:100px; position:fixed; top:10%;    transform: translate(-50%, -50%);left:51.5%""></img><img src=""media/stimuli/animate_002_left.png"" class=""coveredImage test"" style = ""width:100px; height:100px;position:fixed; top:25%;        transform: translate(-50%, -50%);left:34.5%""></img><img src=""media/stimuli/animate_002_left.png"" class=""coveredImage test"" style = ""width:100px; height:100px;position:fixed; top:25%;        transform: translate(-50%, -50%);left:41.5%""></img><img src=""media/stimuli/animate_012_right.png"" class=""coveredImage test"" style = ""width:100px; height:100px;position:fixed; top:25%;        transform: translate(-50%, -50%);left:54.5%""></img><img src=""media/stimuli/animate_012_right.png"" class=""coveredImage test"" style = ""width:100px; height:100px;position:fixed; top:25%;        transform: translate(-50%, -50%);left:61.5%""></img><img src=""media/f.png""style = ""width:30px x; height:30px;position:fixed; top:43%;    transform: translate(-50%, -50%);left:40%""></img><img src=""media/j.png""style = ""width:30px; height:30px;position:fixed; top:43%;    transform: translate(-50%, -50%);left:60%""></img>","media/stimuli/animate_002_right.png","animate","right","pair","media/stimuli/animate_002_left.png","animate","left","pair","media/stimuli/animate_012_right.png","animate","right","pair","pose_identity","","","",""
"","","","","","html-keyboard-response","46","235746","0.0-46.0","SS1678233171077","63d69e4d6648b39324fdf0ad","6406d7f26dd5b7fc1e3377bd","6407ce4926c6e8b15a792b7e","1366","649","","24252","","j","","","","","","","","","","","","","","","","","","","",""
"","","","","","survey-likert","47","241472","0.0-47.0","SS1678233171077","63d69e4d6648b39324fdf0ad","6406d7f26dd5b7fc1e3377bd","6407ce4926c6e8b15a792b7e","1366","649","","5709","","{""Q0"":1}","[0]","complexity","","","","","","","","","","","","","","","media/stimuli/inanimate_010_left.png","inanimate","single","left"
"","","","","","survey-likert","48","244359","0.0-48.0","SS1678233171077","63d69e4d6648b39324fdf0ad","6406d7f26dd5b7fc1e3377bd","6407ce4926c6e8b15a792b7e","1366","649","","2880","","{""Q0"":5}","[0]","complexity","","","","","","","","","","","","","","","media/stimuli/inanimate_010_left.png","inanimate","pair","left"
"","","","","","survey-likert","49","251271","0.0-49.0","SS1678233171077","63d69e4d6648b39324fdf0ad","6406d7f26dd5b7fc1e3377bd","6407ce4926c6e8b15a792b7e","1366","649","","6904","","{""Q0"":4}","[0]","complexity","","","","","","","","","","","","","","","media/stimuli/animate_010_left.png","animate","pair","left"
"","","","","","survey-likert","50","254582","0.0-50.0","SS1678233171077","63d69e4d6648b39324fdf0ad","6406d7f26dd5b7fc1e3377bd","6407ce4926c6e8b15a792b7e","1366","649","","3303","","{""Q0"":4}","[0]","complexity","","","","","","","","","","","","","","","media/stimuli/inanimate_008_right.png","inanimate","pair","right"
"","","","","","survey-likert","51","257559","0.0-51.0","SS1678233171077","63d69e4d6648b39324fdf0ad","6406d7f26dd5b7fc1e3377bd","6407ce4926c6e8b15a792b7e","1366","649","","2968","","{""Q0"":1}","[0]","complexity","","","","","","","","","","","","","","","media/stimuli/inanimate_007_right.png","inanimate","single","right"
"","","","","","survey-likert","52","260312","0.0-52.0","SS1678233171077","63d69e4d6648b39324fdf0ad","6406d7f26dd5b7fc1e3377bd","6407ce4926c6e8b15a792b7e","1366","649","","2744","","{""Q0"":2}","[0]","complexity","","","","","","","","","","","","","","","media/stimuli/animate_003_right.png","animate","single","right"
"","","","","","survey-likert","53","264016","0.0-53.0","SS1678233171077","63d69e4d6648b39324fdf0ad","6406d7f26dd5b7fc1e3377bd","6407ce4926c6e8b15a792b7e","1366","649","","3698","","{""Q0"":4}","[0]","complexity","","","","","","","","","","","","","","","media/stimuli/inanimate_002_left.png","inanimate","pair","left"
"","","","","","survey-likert","54","268991","0.0-54.0","SS1678233171077","63d69e4d6648b39324fdf0ad","6406d7f26dd5b7fc1e3377bd","6407ce4926c6e8b15a792b7e","1366","649","","4965","","{""Q0"":2}","[0]","complexity","","","","","","","","","","","","","","","media/stimuli/inanimate_003_left.png","inanimate","single","left"
"","","","","","survey-likert","55","274887","0.0-55.0","SS1678233171077","63d69e4d6648b39324fdf0ad","6406d7f26dd5b7fc1e3377bd","6407ce4926c6e8b15a792b7e","1366","649","","5890","","{""Q0"":4}","[0]","complexity","","","","","","","","","","","","","","","media/stimuli/animate_010_left.png","animate","single","left"
"","","","","","survey-likert","56","278951","0.0-56.0","SS1678233171077","63d69e4d6648b39324fdf0ad","6406d7f26dd5b7fc1e3377bd","6407ce4926c6e8b15a792b7e","1366","649","","4057","","{""Q0"":4}","[0]","complexity","","","","","","","","","","","","","","","media/stimuli/animate_011_right.png","animate","single","right"
"","","","","","survey-likert","57","282423","0.0-57.0","SS1678233171077","63d69e4d6648b39324fdf0ad","6406d7f26dd5b7fc1e3377bd","6407ce4926c6e8b15a792b7e","1366","649","","3462","","{""Q0"":1}","[0]","complexity","","","","","","","","","","","","","","","media/stimuli/inanimate_006_left.png","inanimate","single","left"
"","","","","","survey-likert","58","284592","0.0-58.0","SS1678233171077","63d69e4d6648b39324fdf0ad","6406d7f26dd5b7fc1e3377bd","6407ce4926c6e8b15a792b7e","1366","649","","2157","","{""Q0"":4}","[0]","complexity","","","","","","","","","","","","","","","media/stimuli/inanimate_002_right.png","inanimate","pair","right"
"","","","","","html-keyboard-response","59","287799","0.0-59.0","SS1678233171077","63d69e4d6648b39324fdf0ad","6406d7f26dd5b7fc1e3377bd","6407ce4926c6e8b15a792b7e","1366","649","","3201","","j","","","","","","","","","","","","","","","","","","","",""
"","","","","","html-keyboard-response","60","289596","0.0-60.0","SS1678233171077","63d69e4d6648b39324fdf0ad","6406d7f26dd5b7fc1e3377bd","6407ce4926c6e8b15a792b7e","1366","649","","1784","","j","","","<img src=""media/stimuli/animate_007_left.png"" class=""coveredImage test"" style = ""width:100px; height:100px; position:fixed; top:10%;    transform: translate(-50%, -50%);left:48%""></img><img src=""media/stimuli/inanimate_002_left.png"" class=""coveredImage test"" style = ""width:100px; height:100px;position:fixed; top:25%;        transform: translate(-50%, -50%);left:38%""></img><img src=""media/stimuli/animate_001_left.png"" class=""coveredImage test"" style = ""width:100px; height:100px;position:fixed; top:25%;        transform: translate(-50%, -50%);left:58%""></img><img src=""media/f.png""style = ""width:30px x; height:30px;position:fixed; top:43%;    transform: translate(-50%, -50%);left:40%""></img><img src=""media/j.png""style = ""width:30px; height:30px;position:fixed; top:43%;    transform: translate(-50%, -50%);left:60%""></img>","media/stimuli/animate_007_left.png","animate","left","single","media/stimuli/inanimate_002_left.png","inanimate","left","single","media/stimuli/animate_001_left.png","animate","left","single","animacy_identity","","","",""
"","","","","","html-keyboard-response","61","291125","0.0-61.0","SS1678233171077","63d69e4d6648b39324fdf0ad","6406d7f26dd5b7fc1e3377bd","6407ce4926c6e8b15a792b7e","1366","649","","1518","","f","","","<img src=""media/stimuli/animate_010_right.png"" class=""coveredImage test"" style = ""width:100px; height:100px; position:fixed; top:10%;    transform: translate(-50%, -50%);left:48%""></img><img src=""media/stimuli/animate_011_right.png"" class=""coveredImage test"" style = ""width:100px; height:100px;position:fixed; top:25%;        transform: translate(-50%, -50%);left:38%""></img><img src=""media/stimuli/animate_010_left.png"" class=""coveredImage test"" style = ""width:100px; height:100px;position:fixed; top:25%;        transform: translate(-50%, -50%);left:58%""></img><img src=""media/f.png""style = ""width:30px x; height:30px;position:fixed; top:43%;    transform: translate(-50%, -50%);left:40%""></img><img src=""media/j.png""style = ""width:30px; height:30px;position:fixed; top:43%;    transform: translate(-50%, -50%);left:60%""></img>","media/stimuli/animate_010_right.png","animate","right","single","media/stimuli/animate_011_right.png","animate","right","single","media/stimuli/animate_010_left.png","animate","left","single","identity_pose","","","",""
"","","","","","html-keyboard-response","62","293064","0.0-62.0","SS1678233171077","63d69e4d6648b39324fdf0ad","6406d7f26dd5b7fc1e3377bd","6407ce4926c6e8b15a792b7e","1366","649","","1927","","j","","","<img src=""media/stimuli/animate_008_left.png"" class=""coveredImage test"" style = ""width:100px; height:100px; position:fixed; top:10%;    transform: translate(-50%, -50%);left:48%""></img><img src=""media/stimuli/animate_010_left.png"" class=""coveredImage test"" style = ""width:100px; height:100px;position:fixed; top:25%;        transform: translate(-50%, -50%);left:38%""></img><img src=""media/stimuli/animate_008_left.png"" class=""coveredImage test"" style = ""width:100px; height:100px;position:fixed; top:25%;        transform: translate(-50%, -50%);left:54.5%""></img><img src=""media/stimuli/animate_008_left.png"" class=""coveredImage test"" style = ""width:100px; height:100px;position:fixed; top:25%;        transform: translate(-50%, -50%);left:61.5%""></img><img src=""media/f.png""style = ""width:30px x; height:30px;position:fixed; top:43%;    transform: translate(-50%, -50%);left:40%""></img><img src=""media/j.png""style = ""width:30px; height:30px;position:fixed; top:43%;    transform: translate(-50%, -50%);left:60%""></img>","media/stimuli/animate_008_left.png","animate","left","single","media/stimuli/animate_010_left.png","animate","left","single","media/stimuli/animate_008_left.png","animate","left","pair","identity_number","","","",""
"","","","","","html-keyboard-response","63","295648","0.0-63.0","SS1678233171077","63d69e4d6648b39324fdf0ad","6406d7f26dd5b7fc1e3377bd","6407ce4926c6e8b15a792b7e","1366","649","","2575","","f","","","<img src=""media/stimuli/animate_011_left.png"" class=""coveredImage test"" style = ""width:100px; height:100px; position:fixed; top:10%;    transform: translate(-50%, -50%);left:48%""></img><img src=""media/stimuli/inanimate_004_left.png"" class=""coveredImage test"" style = ""width:100px; height:100px;position:fixed; top:25%;        transform: translate(-50%, -50%);left:38%""></img><img src=""media/stimuli/animate_011_right.png"" class=""coveredImage test"" style = ""width:100px; height:100px;position:fixed; top:25%;        transform: translate(-50%, -50%);left:58%""></img><img src=""media/f.png""style = ""width:30px x; height:30px;position:fixed; top:43%;    transform: translate(-50%, -50%);left:40%""></img><img src=""media/j.png""style = ""width:30px; height:30px;position:fixed; top:43%;    transform: translate(-50%, -50%);left:60%""></img>","media/stimuli/animate_011_left.png","animate","left","single","media/stimuli/inanimate_004_left.png","inanimate","left","single","media/stimuli/animate_011_right.png","animate","right","single","animacy_pose","","","",""
"","","","","","html-keyboard-response","64","297317","0.0-64.0","SS1678233171077","63d69e4d6648b39324fdf0ad","6406d7f26dd5b7fc1e3377bd","6407ce4926c6e8b15a792b7e","1366","649","","1660","","j","","","<img src=""media/stimuli/animate_012_left.png"" class=""coveredImage test"" style = ""width:100px; height:100px; position:fixed; top:10%;    transform: translate(-50%, -50%);left:48%""></img><img src=""media/stimuli/animate_012_right.png"" class=""coveredImage test"" style = ""width:100px; height:100px;position:fixed; top:25%;        transform: translate(-50%, -50%);left:38%""></img><img src=""media/stimuli/animate_012_left.png"" class=""coveredImage test"" style = ""width:100px; height:100px;position:fixed; top:25%;        transform: translate(-50%, -50%);left:54.5%""></img><img src=""media/stimuli/animate_012_left.png"" class=""coveredImage test"" style = ""width:100px; height:100px;position:fixed; top:25%;        transform: translate(-50%, -50%);left:61.5%""></img><img src=""media/f.png""style = ""width:30px x; height:30px;position:fixed; top:43%;    transform: translate(-50%, -50%);left:40%""></img><img src=""media/j.png""style = ""width:30px; height:30px;position:fixed; top:43%;    transform: translate(-50%, -50%);left:60%""></img>","media/stimuli/animate_012_left.png","animate","left","single","media/stimuli/animate_012_right.png","animate","right","single","media/stimuli/animate_012_left.png","animate","left","pair","pose_number","","","",""
"","","","","","html-keyboard-response","65","298624","0.0-65.0","SS1678233171077","63d69e4d6648b39324fdf0ad","6406d7f26dd5b7fc1e3377bd","6407ce4926c6e8b15a792b7e","1366","649","","1296","","f","","","<img src=""media/stimuli/inanimate_009_left.png"" class=""coveredImage test"" style = ""width:100px; height:100px; position:fixed; top:10%;    transform: translate(-50%, -50%);left:48%""></img><img src=""media/stimuli/inanimate_009_left.png"" class=""coveredImage test"" style = ""width:100px; height:100px;position:fixed; top:25%;        transform: translate(-50%, -50%);left:38%""></img><img src=""media/stimuli/animate_003_left.png"" class=""coveredImage test"" style = ""width:100px; height:100px;position:fixed; top:25%;        transform: translate(-50%, -50%);left:58%""></img><img src=""media/f.png""style = ""width:30px x; height:30px;position:fixed; top:43%;    transform: translate(-50%, -50%);left:40%""></img><img src=""media/j.png""style = ""width:30px; height:30px;position:fixed; top:43%;    transform: translate(-50%, -50%);left:60%""></img>","media/stimuli/inanimate_009_left.png","inanimate","left","single","media/stimuli/inanimate_009_left.png","inanimate","left","single","media/stimuli/animate_003_left.png","animate","left","single","filler_animacy","","","",""
"","","","","","html-keyboard-response","66","299859","0.0-66.0","SS1678233171077","63d69e4d6648b39324fdf0ad","6406d7f26dd5b7fc1e3377bd","6407ce4926c6e8b15a792b7e","1366","649","","1223","","j","","","<img src=""media/stimuli/animate_006_right.png"" class=""coveredImage test"" style = ""width:100px; height:100px; position:fixed; top:10%;    transform: translate(-50%, -50%);left:48%""></img><img src=""media/stimuli/inanimate_008_right.png"" class=""coveredImage test"" style = ""width:100px; height:100px;position:fixed; top:25%;        transform: translate(-50%, -50%);left:38%""></img><img src=""media/stimuli/animate_010_right.png"" class=""coveredImage test"" style = ""width:100px; height:100px;position:fixed; top:25%;        transform: translate(-50%, -50%);left:58%""></img><img src=""media/f.png""style = ""width:30px x; height:30px;position:fixed; top:43%;    transform: translate(-50%, -50%);left:40%""></img><img src=""media/j.png""style = ""width:30px; height:30px;position:fixed; top:43%;    transform: translate(-50%, -50%);left:60%""></img>","media/stimuli/animate_006_right.png","animate","right","single","media/stimuli/inanimate_008_right.png","inanimate","right","single","media/stimuli/animate_010_right.png","animate","right","single","animacy_identity","","","",""
"","","","","","html-keyboard-response","67","303089","0.0-67.0","SS1678233171077","63d69e4d6648b39324fdf0ad","6406d7f26dd5b7fc1e3377bd","6407ce4926c6e8b15a792b7e","1366","649","","3216","","j","","","<img src=""media/stimuli/inanimate_009_right.png"" class=""coveredImage test"" style = ""width:100px; height:100px; position:fixed; top:10%;    transform: translate(-50%, -50%);left:44.5%""></img><img src=""media/stimuli/inanimate_009_right.png"" class=""coveredImage test"" style = ""width:100px; height:100px; position:fixed; top:10%;    transform: translate(-50%, -50%);left:51.5%""></img><img src=""media/stimuli/inanimate_009_left.png"" class=""coveredImage test"" style = ""width:100px; height:100px;position:fixed; top:25%;        transform: translate(-50%, -50%);left:34.5%""></img><img src=""media/stimuli/inanimate_009_left.png"" class=""coveredImage test"" style = ""width:100px; height:100px;position:fixed; top:25%;        transform: translate(-50%, -50%);left:41.5%""></img><img src=""media/stimuli/inanimate_005_right.png"" class=""coveredImage test"" style = ""width:100px; height:100px;position:fixed; top:25%;        transform: translate(-50%, -50%);left:54.5%""></img><img src=""media/stimuli/inanimate_005_right.png"" class=""coveredImage test"" style = ""width:100px; height:100px;position:fixed; top:25%;        transform: translate(-50%, -50%);left:61.5%""></img><img src=""media/f.png""style = ""width:30px x; height:30px;position:fixed; top:43%;    transform: translate(-50%, -50%);left:40%""></img><img src=""media/j.png""style = ""width:30px; height:30px;position:fixed; top:43%;    transform: translate(-50%, -50%);left:60%""></img>","media/stimuli/inanimate_009_right.png","inanimate","right","pair","media/stimuli/inanimate_009_left.png","inanimate","left","pair","media/stimuli/inanimate_005_right.png","inanimate","right","pair","pose_identity","","","",""
"","","","","","html-keyboard-response","68","304536","0.0-68.0","SS1678233171077","63d69e4d6648b39324fdf0ad","6406d7f26dd5b7fc1e3377bd","6407ce4926c6e8b15a792b7e","1366","649","","1432","","j","","","<img src=""media/stimuli/animate_001_right.png"" class=""coveredImage test"" style = ""width:100px; height:100px; position:fixed; top:10%;    transform: translate(-50%, -50%);left:44.5%""></img><img src=""media/stimuli/animate_001_right.png"" class=""coveredImage test"" style = ""width:100px; height:100px; position:fixed; top:10%;    transform: translate(-50%, -50%);left:51.5%""></img><img src=""media/stimuli/animate_011_right.png"" class=""coveredImage test"" style = ""width:100px; height:100px;position:fixed; top:25%;        transform: translate(-50%, -50%);left:34.5%""></img><img src=""media/stimuli/animate_011_right.png"" class=""coveredImage test"" style = ""width:100px; height:100px;position:fixed; top:25%;        transform: translate(-50%, -50%);left:41.5%""></img><img src=""media/stimuli/animate_001_right.png"" class=""coveredImage test"" style = ""width:100px; height:100px;position:fixed; top:25%;        transform: translate(-50%, -50%);left:58%""></img><img src=""media/f.png""style = ""width:30px x; height:30px;position:fixed; top:43%;    transform: translate(-50%, -50%);left:40%""></img><img src=""media/j.png""style = ""width:30px; height:30px;position:fixed; top:43%;    transform: translate(-50%, -50%);left:60%""></img>","media/stimuli/animate_001_right.png","animate","right","pair","media/stimuli/animate_011_right.png","animate","right","pair","media/stimuli/animate_001_right.png","animate","right","single","identity_number","","","",""
"","","","","","html-keyboard-response","69","309056","0.0-69.0","SS1678233171077","63d69e4d6648b39324fdf0ad","6406d7f26dd5b7fc1e3377bd","6407ce4926c6e8b15a792b7e","1366","649","","4508","","f","","","<img src=""media/stimuli/inanimate_004_right.png"" class=""coveredImage test"" style = ""width:100px; height:100px; position:fixed; top:10%;    transform: translate(-50%, -50%);left:44.5%""></img><img src=""media/stimuli/inanimate_004_right.png"" class=""coveredImage test"" style = ""width:100px; height:100px; position:fixed; top:10%;    transform: translate(-50%, -50%);left:51.5%""></img><img src=""media/stimuli/inanimate_004_left.png"" class=""coveredImage test"" style = ""width:100px; height:100px;position:fixed; top:25%;        transform: translate(-50%, -50%);left:34.5%""></img><img src=""media/stimuli/inanimate_004_left.png"" class=""coveredImage test"" style = ""width:100px; height:100px;position:fixed; top:25%;        transform: translate(-50%, -50%);left:41.5%""></img><img src=""media/stimuli/animate_011_right.png"" class=""coveredImage test"" style = ""width:100px; height:100px;position:fixed; top:25%;        transform: translate(-50%, -50%);left:54.5%""></img><img src=""media/stimuli/animate_011_right.png"" class=""coveredImage test"" style = ""width:100px; height:100px;position:fixed; top:25%;        transform: translate(-50%, -50%);left:61.5%""></img><img src=""media/f.png""style = ""width:30px x; height:30px;position:fixed; top:43%;    transform: translate(-50%, -50%);left:40%""></img><img src=""media/j.png""style = ""width:30px; height:30px;position:fixed; top:43%;    transform: translate(-50%, -50%);left:60%""></img>","media/stimuli/inanimate_004_right.png","inanimate","right","pair","media/stimuli/inanimate_004_left.png","inanimate","left","pair","media/stimuli/animate_011_right.png","animate","right","pair","pose_animacy","","","",""
"","","","","","html-keyboard-response","70","311227","0.0-70.0","SS1678233171077","63d69e4d6648b39324fdf0ad","6406d7f26dd5b7fc1e3377bd","6407ce4926c6e8b15a792b7e","1366","649","","2155","","j","","","<img src=""media/stimuli/inanimate_008_right.png"" class=""coveredImage test"" style = ""width:100px; height:100px; position:fixed; top:10%;    transform: translate(-50%, -50%);left:44.5%""></img><img src=""media/stimuli/inanimate_008_right.png"" class=""coveredImage test"" style = ""width:100px; height:100px; position:fixed; top:10%;    transform: translate(-50%, -50%);left:51.5%""></img><img src=""media/stimuli/animate_002_right.png"" class=""coveredImage test"" style = ""width:100px; height:100px;position:fixed; top:25%;        transform: translate(-50%, -50%);left:34.5%""></img><img src=""media/stimuli/animate_002_right.png"" class=""coveredImage test"" style = ""width:100px; height:100px;position:fixed; top:25%;        transform: translate(-50%, -50%);left:41.5%""></img><img src=""media/stimuli/inanimate_009_right.png"" class=""coveredImage test"" style = ""width:100px; height:100px;position:fixed; top:25%;        transform: translate(-50%, -50%);left:54.5%""></img><img src=""media/stimuli/inanimate_009_right.png"" class=""coveredImage test"" style = ""width:100px; height:100px;position:fixed; top:25%;        transform: translate(-50%, -50%);left:61.5%""></img><img src=""media/f.png""style = ""width:30px x; height:30px;position:fixed; top:43%;    transform: translate(-50%, -50%);left:40%""></img><img src=""media/j.png""style = ""width:30px; height:30px;position:fixed; top:43%;    transform: translate(-50%, -50%);left:60%""></img>","media/stimuli/inanimate_008_right.png","inanimate","right","pair","media/stimuli/animate_002_right.png","animate","right","pair","media/stimuli/inanimate_009_right.png","inanimate","right","pair","animacy_identity","","","",""
"","","","","","html-keyboard-response","71","314203","0.0-71.0","SS1678233171077","63d69e4d6648b39324fdf0ad","6406d7f26dd5b7fc1e3377bd","6407ce4926c6e8b15a792b7e","1366","649","","2963","","j","","","<img src=""media/stimuli/inanimate_003_right.png"" class=""coveredImage test"" style = ""width:100px; height:100px; position:fixed; top:10%;    transform: translate(-50%, -50%);left:48%""></img><img src=""media/stimuli/inanimate_003_left.png"" class=""coveredImage test"" style = ""width:100px; height:100px;position:fixed; top:25%;        transform: translate(-50%, -50%);left:38%""></img><img src=""media/stimuli/inanimate_009_right.png"" class=""coveredImage test"" style = ""width:100px; height:100px;position:fixed; top:25%;        transform: translate(-50%, -50%);left:58%""></img><img src=""media/f.png""style = ""width:30px x; height:30px;position:fixed; top:43%;    transform: translate(-50%, -50%);left:40%""></img><img src=""media/j.png""style = ""width:30px; height:30px;position:fixed; top:43%;    transform: translate(-50%, -50%);left:60%""></img>","media/stimuli/inanimate_003_right.png","inanimate","right","single","media/stimuli/inanimate_003_left.png","inanimate","left","single","media/stimuli/inanimate_009_right.png","inanimate","right","single","pose_identity","","","",""
"","","","","","html-keyboard-response","72","315440","0.0-72.0","SS1678233171077","63d69e4d6648b39324fdf0ad","6406d7f26dd5b7fc1e3377bd","6407ce4926c6e8b15a792b7e","1366","649","","1224","","j","","","","","","","","","","","","","","","","","","","",""
"","","","","","survey-likert","73","320182","0.0-73.0","SS1678233171077","63d69e4d6648b39324fdf0ad","6406d7f26dd5b7fc1e3377bd","6407ce4926c6e8b15a792b7e","1366","649","","4731","","{""Q0"":4}","[0]","complexity","","","","","","","","","","","","","","","media/stimuli/animate_006_right.png","animate","pair","right"
"","","","","","survey-likert","74","326366","0.0-74.0","SS1678233171077","63d69e4d6648b39324fdf0ad","6406d7f26dd5b7fc1e3377bd","6407ce4926c6e8b15a792b7e","1366","649","","6176","","{""Q0"":4}","[0]","complexity","","","","","","","","","","","","","","","media/stimuli/animate_008_right.png","animate","single","right"
"","","","","","survey-likert","75","328455","0.0-75.0","SS1678233171077","63d69e4d6648b39324fdf0ad","6406d7f26dd5b7fc1e3377bd","6407ce4926c6e8b15a792b7e","1366","649","","2081","","{""Q0"":4}","[0]","complexity","","","","","","","","","","","","","","","media/stimuli/animate_002_left.png","animate","pair","left"
"","","","","","survey-likert","76","330543","0.0-76.0","SS1678233171077","63d69e4d6648b39324fdf0ad","6406d7f26dd5b7fc1e3377bd","6407ce4926c6e8b15a792b7e","1366","649","","2080","","{""Q0"":5}","[0]","complexity","","","","","","","","","","","","","","","media/stimuli/animate_005_right.png","animate","pair","right"
"","","","","","survey-likert","77","332918","0.0-77.0","SS1678233171077","63d69e4d6648b39324fdf0ad","6406d7f26dd5b7fc1e3377bd","6407ce4926c6e8b15a792b7e","1366","649","","2368","","{""Q0"":1}","[0]","complexity","","","","","","","","","","","","","","","media/stimuli/animate_009_left.png","animate","single","left"
"","","","","","survey-likert","78","336032","0.0-78.0","SS1678233171077","63d69e4d6648b39324fdf0ad","6406d7f26dd5b7fc1e3377bd","6407ce4926c6e8b15a792b7e","1366","649","","3103","","{""Q0"":4}","[0]","complexity","","","","","","","","","","","","","","","media/stimuli/animate_009_left.png","animate","pair","left"
"","","","","","survey-likert","79","338510","0.0-79.0","SS1678233171077","63d69e4d6648b39324fdf0ad","6406d7f26dd5b7fc1e3377bd","6407ce4926c6e8b15a792b7e","1366","649","","2472","","{""Q0"":4}","[0]","complexity","","","","","","","","","","","","","","","media/stimuli/inanimate_007_left.png","inanimate","pair","left"
"","","","","","survey-likert","80","341838","0.0-80.0","SS1678233171077","63d69e4d6648b39324fdf0ad","6406d7f26dd5b7fc1e3377bd","6407ce4926c6e8b15a792b7e","1366","649","","3319","","{""Q0"":5}","[0]","complexity","","","","","","","","","","","","","","","media/stimuli/animate_011_right.png","animate","pair","right"
"","","","","","survey-likert","81","348087","0.0-81.0","SS1678233171077","63d69e4d6648b39324fdf0ad","6406d7f26dd5b7fc1e3377bd","6407ce4926c6e8b15a792b7e","1366","649","","6241","","{""Q0"":2}","[0]","complexity","","","","","","","","","","","","","","","media/stimuli/animate_004_right.png","animate","pair","right"
"","","","","","survey-likert","82","349952","0.0-82.0","SS1678233171077","63d69e4d6648b39324fdf0ad","6406d7f26dd5b7fc1e3377bd","6407ce4926c6e8b15a792b7e","1366","649","","1855","","{""Q0"":1}","[0]","complexity","","","","","","","","","","","","","","","media/stimuli/inanimate_004_left.png","inanimate","single","left"
"","","","","","survey-likert","83","351838","0.0-83.0","SS1678233171077","63d69e4d6648b39324fdf0ad","6406d7f26dd5b7fc1e3377bd","6407ce4926c6e8b15a792b7e","1366","649","","1878","","{""Q0"":1}","[0]","complexity","","","","","","","","","","","","","","","media/stimuli/inanimate_002_right.png","inanimate","single","right"
"","","","","","survey-likert","84","354575","0.0-84.0","SS1678233171077","63d69e4d6648b39324fdf0ad","6406d7f26dd5b7fc1e3377bd","6407ce4926c6e8b15a792b7e","1366","649","","2727","","{""Q0"":4}","[0]","complexity","","","","","","","","","","","","","","","media/stimuli/inanimate_006_left.png","inanimate","pair","left"
"","","","","","html-keyboard-response","85","356037","0.0-85.0","SS1678233171077","63d69e4d6648b39324fdf0ad","6406d7f26dd5b7fc1e3377bd","6407ce4926c6e8b15a792b7e","1366","649","","1453","","j","","","","","","","","","","","","","","","","","","","",""
"","","","","","survey-likert","86","361218","0.0-86.0","SS1678233171077","63d69e4d6648b39324fdf0ad","6406d7f26dd5b7fc1e3377bd","6407ce4926c6e8b15a792b7e","1366","649","","5174","","{""Q0"":4}","[0]","complexity","","","","","","","","","","","","","","","media/stimuli/inanimate_006_right.png","inanimate","pair","right"
"","","","","","survey-likert","87","365186","0.0-87.0","SS1678233171077","63d69e4d6648b39324fdf0ad","6406d7f26dd5b7fc1e3377bd","6407ce4926c6e8b15a792b7e","1366","649","","3959","","{""Q0"":5}","[0]","complexity","","","","","","","","","","","","","","","media/stimuli/animate_003_right.png","animate","pair","right"
"","","","","","survey-likert","88","367140","0.0-88.0","SS1678233171077","63d69e4d6648b39324fdf0ad","6406d7f26dd5b7fc1e3377bd","6407ce4926c6e8b15a792b7e","1366","649","","1942","","{""Q0"":4}","[0]","complexity","","","","","","","","","","","","","","","media/stimuli/animate_010_right.png","animate","pair","right"
"","","","","","survey-likert","89","370114","0.0-89.0","SS1678233171077","63d69e4d6648b39324fdf0ad","6406d7f26dd5b7fc1e3377bd","6407ce4926c6e8b15a792b7e","1366","649","","2967","","{""Q0"":2}","[0]","complexity","","","","","","","","","","","","","","","media/stimuli/inanimate_010_right.png","inanimate","pair","right"
"","","","","","survey-likert","90","372803","0.0-90.0","SS1678233171077","63d69e4d6648b39324fdf0ad","6406d7f26dd5b7fc1e3377bd","6407ce4926c6e8b15a792b7e","1366","649","","2676","","{""Q0"":1}","[0]","complexity","","","","","","","","","","","","","","","media/stimuli/animate_006_left.png","animate","single","left"
"","","","","","survey-likert","91","375379","0.0-91.0","SS1678233171077","63d69e4d6648b39324fdf0ad","6406d7f26dd5b7fc1e3377bd","6407ce4926c6e8b15a792b7e","1366","649","","2566","","{""Q0"":4}","[0]","complexity","","","","","","","","","","","","","","","media/stimuli/animate_005_left.png","animate","pair","left"
"","","","","","survey-likert","92","377322","0.0-92.0","SS1678233171077","63d69e4d6648b39324fdf0ad","6406d7f26dd5b7fc1e3377bd","6407ce4926c6e8b15a792b7e","1366","649","","1934","","{""Q0"":2}","[0]","complexity","","","","","","","","","","","","","","","media/stimuli/animate_004_left.png","animate","single","left"
"","","","","","survey-likert","93","379699","0.0-93.0","SS1678233171077","63d69e4d6648b39324fdf0ad","6406d7f26dd5b7fc1e3377bd","6407ce4926c6e8b15a792b7e","1366","649","","2365","","{""Q0"":1}","[0]","complexity","","","","","","","","","","","","","","","media/stimuli/inanimate_012_right.png","inanimate","single","right"
"","","","","","survey-likert","94","382180","0.0-94.0","SS1678233171077","63d69e4d6648b39324fdf0ad","6406d7f26dd5b7fc1e3377bd","6407ce4926c6e8b15a792b7e","1366","649","","2473","","{""Q0"":2}","[0]","complexity","","","","","","","","","","","","","","","media/stimuli/animate_012_right.png","animate","single","right"
"","","","","","survey-likert","95","384490","0.0-95.0","SS1678233171077","63d69e4d6648b39324fdf0ad","6406d7f26dd5b7fc1e3377bd","6407ce4926c6e8b15a792b7e","1366","649","","2302","","{""Q0"":4}","[0]","complexity","","","","","","","","","","","","","","","media/stimuli/animate_008_right.png","animate","pair","right"
"","","","","","survey-likert","96","386370","0.0-96.0","SS1678233171077","63d69e4d6648b39324fdf0ad","6406d7f26dd5b7fc1e3377bd","6407ce4926c6e8b15a792b7e","1366","649","","1868","","{""Q0"":4}","[0]","complexity","","","","","","","","","","","","","","","media/stimuli/inanimate_007_right.png","inanimate","pair","right"
"","","","","","survey-likert","97","389114","0.0-97.0","SS1678233171077","63d69e4d6648b39324fdf0ad","6406d7f26dd5b7fc1e3377bd","6407ce4926c6e8b15a792b7e","1366","649","","2737","","{""Q0"":5}","[0]","complexity","","","","","","","","","","","","","","","media/stimuli/inanimate_008_left.png","inanimate","pair","left"
"","","","","","html-keyboard-response","98","390799","0.0-98.0","SS1678233171077","63d69e4d6648b39324fdf0ad","6406d7f26dd5b7fc1e3377bd","6407ce4926c6e8b15a792b7e","1366","649","","1675","","j","","","","","","","","","","","","","","","","","","","",""
"","","","","","html-keyboard-response","99","395071","0.0-99.0","SS1678233171077","63d69e4d6648b39324fdf0ad","6406d7f26dd5b7fc1e3377bd","6407ce4926c6e8b15a792b7e","1366","649","","4259","","j","","","<img src=""media/stimuli/inanimate_009_right.png"" class=""coveredImage test"" style = ""width:100px; height:100px; position:fixed; top:10%;    transform: translate(-50%, -50%);left:44.5%""></img><img src=""media/stimuli/inanimate_009_right.png"" class=""coveredImage test"" style = ""width:100px; height:100px; position:fixed; top:10%;    transform: translate(-50%, -50%);left:51.5%""></img><img src=""media/stimuli/inanimate_009_left.png"" class=""coveredImage test"" style = ""width:100px; height:100px;position:fixed; top:25%;        transform: translate(-50%, -50%);left:34.5%""></img><img src=""media/stimuli/inanimate_009_left.png"" class=""coveredImage test"" style = ""width:100px; height:100px;position:fixed; top:25%;        transform: translate(-50%, -50%);left:41.5%""></img><img src=""media/stimuli/inanimate_002_right.png"" class=""coveredImage test"" style = ""width:100px; height:100px;position:fixed; top:25%;        transform: translate(-50%, -50%);left:54.5%""></img><img src=""media/stimuli/inanimate_002_right.png"" class=""coveredImage test"" style = ""width:100px; height:100px;position:fixed; top:25%;        transform: translate(-50%, -50%);left:61.5%""></img><img src=""media/f.png""style = ""width:30px x; height:30px;position:fixed; top:43%;    transform: translate(-50%, -50%);left:40%""></img><img src=""media/j.png""style = ""width:30px; height:30px;position:fixed; top:43%;    transform: translate(-50%, -50%);left:60%""></img>","media/stimuli/inanimate_009_right.png","inanimate","right","pair","media/stimuli/inanimate_009_left.png","inanimate","left","pair","media/stimuli/inanimate_002_right.png","inanimate","right","pair","pose_identity","","","",""
"","","","","","html-keyboard-response","100","396454","0.0-100.0","SS1678233171077","63d69e4d6648b39324fdf0ad","6406d7f26dd5b7fc1e3377bd","6407ce4926c6e8b15a792b7e","1366","649","","1368","","f","","","<img src=""media/stimuli/inanimate_011_right.png"" class=""coveredImage test"" style = ""width:100px; height:100px; position:fixed; top:10%;    transform: translate(-50%, -50%);left:48%""></img><img src=""media/stimuli/inanimate_010_right.png"" class=""coveredImage test"" style = ""width:100px; height:100px;position:fixed; top:25%;        transform: translate(-50%, -50%);left:38%""></img><img src=""media/stimuli/inanimate_011_left.png"" class=""coveredImage test"" style = ""width:100px; height:100px;position:fixed; top:25%;        transform: translate(-50%, -50%);left:58%""></img><img src=""media/f.png""style = ""width:30px x; height:30px;position:fixed; top:43%;    transform: translate(-50%, -50%);left:40%""></img><img src=""media/j.png""style = ""width:30px; height:30px;position:fixed; top:43%;    transform: translate(-50%, -50%);left:60%""></img>","media/stimuli/inanimate_011_right.png","inanimate","right","single","media/stimuli/inanimate_010_right.png","inanimate","right","single","media/stimuli/inanimate_011_left.png","inanimate","left","single","identity_pose","","","",""
"","","","","","html-keyboard-response","101","397664","0.0-101.0","SS1678233171077","63d69e4d6648b39324fdf0ad","6406d7f26dd5b7fc1e3377bd","6407ce4926c6e8b15a792b7e","1366","649","","1196","","j","","","<img src=""media/stimuli/animate_004_right.png"" class=""coveredImage test"" style = ""width:100px; height:100px; position:fixed; top:10%;    transform: translate(-50%, -50%);left:48%""></img><img src=""media/stimuli/animate_004_left.png"" class=""coveredImage test"" style = ""width:100px; height:100px;position:fixed; top:25%;        transform: translate(-50%, -50%);left:38%""></img><img src=""media/stimuli/animate_004_right.png"" class=""coveredImage test"" style = ""width:100px; height:100px;position:fixed; top:25%;        transform: translate(-50%, -50%);left:54.5%""></img><img src=""media/stimuli/animate_004_right.png"" class=""coveredImage test"" style = ""width:100px; height:100px;position:fixed; top:25%;        transform: translate(-50%, -50%);left:61.5%""></img><img src=""media/f.png""style = ""width:30px x; height:30px;position:fixed; top:43%;    transform: translate(-50%, -50%);left:40%""></img><img src=""media/j.png""style = ""width:30px; height:30px;position:fixed; top:43%;    transform: translate(-50%, -50%);left:60%""></img>","media/stimuli/animate_004_right.png","animate","right","single","media/stimuli/animate_004_left.png","animate","left","single","media/stimuli/animate_004_right.png","animate","right","pair","pose_number","","","",""
"","","","","","html-keyboard-response","102","398909","0.0-102.0","SS1678233171077","63d69e4d6648b39324fdf0ad","6406d7f26dd5b7fc1e3377bd","6407ce4926c6e8b15a792b7e","1366","649","","1225","","f","","","<img src=""media/stimuli/inanimate_008_right.png"" class=""coveredImage test"" style = ""width:100px; height:100px; position:fixed; top:10%;    transform: translate(-50%, -50%);left:48%""></img><img src=""media/stimuli/inanimate_005_right.png"" class=""coveredImage test"" style = ""width:100px; height:100px;position:fixed; top:25%;        transform: translate(-50%, -50%);left:38%""></img><img src=""media/stimuli/inanimate_008_left.png"" class=""coveredImage test"" style = ""width:100px; height:100px;position:fixed; top:25%;        transform: translate(-50%, -50%);left:58%""></img><img src=""media/f.png""style = ""width:30px x; height:30px;position:fixed; top:43%;    transform: translate(-50%, -50%);left:40%""></img><img src=""media/j.png""style = ""width:30px; height:30px;position:fixed; top:43%;    transform: translate(-50%, -50%);left:60%""></img>","media/stimuli/inanimate_008_right.png","inanimate","right","single","media/stimuli/inanimate_005_right.png","inanimate","right","single","media/stimuli/inanimate_008_left.png","inanimate","left","single","identity_pose","","","",""
"","","","","","html-keyboard-response","103","400097","0.0-103.0","SS1678233171077","63d69e4d6648b39324fdf0ad","6406d7f26dd5b7fc1e3377bd","6407ce4926c6e8b15a792b7e","1366","649","","1168","","f","","","<img src=""media/stimuli/animate_004_left.png"" class=""coveredImage test"" style = ""width:100px; height:100px; position:fixed; top:10%;    transform: translate(-50%, -50%);left:48%""></img><img src=""media/stimuli/animate_004_left.png"" class=""coveredImage test"" style = ""width:100px; height:100px;position:fixed; top:25%;        transform: translate(-50%, -50%);left:34.5%""></img><img src=""media/stimuli/animate_004_left.png"" class=""coveredImage test"" style = ""width:100px; height:100px;position:fixed; top:25%;        transform: translate(-50%, -50%);left:41.5%""></img><img src=""media/stimuli/animate_011_left.png"" class=""coveredImage test"" style = ""width:100px; height:100px;position:fixed; top:25%;        transform: translate(-50%, -50%);left:58%""></img><img src=""media/f.png""style = ""width:30px x; height:30px;position:fixed; top:43%;    transform: translate(-50%, -50%);left:40%""></img><img src=""media/j.png""style = ""width:30px; height:30px;position:fixed; top:43%;    transform: translate(-50%, -50%);left:60%""></img>","media/stimuli/animate_004_left.png","animate","left","single","media/stimuli/animate_004_left.png","animate","left","pair","media/stimuli/animate_011_left.png","animate","left","single","number_identity","","","",""
"","","","","","html-keyboard-response","104","401266","0.0-104.0","SS1678233171077","63d69e4d6648b39324fdf0ad","6406d7f26dd5b7fc1e3377bd","6407ce4926c6e8b15a792b7e","1366","649","","1154","","j","","","<img src=""media/stimuli/animate_009_right.png"" class=""coveredImage test"" style = ""width:100px; height:100px; position:fixed; top:10%;    transform: translate(-50%, -50%);left:48%""></img><img src=""media/stimuli/inanimate_012_right.png"" class=""coveredImage test"" style = ""width:100px; height:100px;position:fixed; top:25%;        transform: translate(-50%, -50%);left:38%""></img><img src=""media/stimuli/animate_009_right.png"" class=""coveredImage test"" style = ""width:100px; height:100px;position:fixed; top:25%;        transform: translate(-50%, -50%);left:54.5%""></img><img src=""media/stimuli/animate_009_right.png"" class=""coveredImage test"" style = ""width:100px; height:100px;position:fixed; top:25%;        transform: translate(-50%, -50%);left:61.5%""></img><img src=""media/f.png""style = ""width:30px x; height:30px;position:fixed; top:43%;    transform: translate(-50%, -50%);left:40%""></img><img src=""media/j.png""style = ""width:30px; height:30px;position:fixed; top:43%;    transform: translate(-50%, -50%);left:60%""></img>","media/stimuli/animate_009_right.png","animate","right","single","media/stimuli/inanimate_012_right.png","inanimate","right","single","media/stimuli/animate_009_right.png","animate","right","pair","animacy_number","","","",""
