"success","timeout","failed_images","failed_audio","failed_video","trial_type","trial_index","time_elapsed","internal_node_id","subject","prolific_id","study","session","window_width","window_height","view_history","rt","stimulus_type","response","question_order","rating_type","stimulus","target","target_animacy","target_pose","target_number","left","left_animacy","left_pose","left_number","right","right_animacy","right_pose","right_number","comparison_type","rating_stimulus","rating_animacy","rating_number","rating_pose"
"true","false","[]","[]","[]","preload","0","2577","0.0-0.0","SS1678233315465","5eb02a40b17a8c0868685d32","6406d7f26dd5b7fc1e3377bd","6407ce4e7202a50c26f19b51","1366","625","","","","","","","","","","","","","","","","","","","","","","","",""
"","","","","","instructions","1","4328","0.0-1.0","SS1678233315465","5eb02a40b17a8c0868685d32","6406d7f26dd5b7fc1e3377bd","6407ce4e7202a50c26f19b51","1366","625","[{""page_index"":0,""viewing_time"":1748}]","1749","","","","","","","","","","","","","","","","","","","","","",""
"","","","","","instructions","2","7723","0.0-2.0","SS1678233315465","5eb02a40b17a8c0868685d32","6406d7f26dd5b7fc1e3377bd","6407ce4e7202a50c26f19b51","1366","625","[{""page_index"":0,""viewing_time"":1391}]","1391","instructions","","","","","","","","","","","","","","","","","","","","",""
"","","","","","instructions","3","8577","0.0-3.0","SS1678233315465","5eb02a40b17a8c0868685d32","6406d7f26dd5b7fc1e3377bd","6407ce4e7202a50c26f19b51","1366","625","[{""page_index"":0,""viewing_time"":852}]","853","instructions","","","","","","","","","","","","","","","","","","","","",""
"","","","","","survey-likert","4","11344","0.0-4.0","SS1678233315465","5eb02a40b17a8c0868685d32","6406d7f26dd5b7fc1e3377bd","6407ce4e7202a50c26f19b51","1366","625","","2763","","{""Q0"":5}","[0]","anchoring","","","","","","","","","","","","","","","","","",""
"","","","","","survey-likert","5","13810","0.0-5.0","SS1678233315465","5eb02a40b17a8c0868685d32","6406d7f26dd5b7fc1e3377bd","6407ce4e7202a50c26f19b51","1366","625","","2460","","{""Q0"":0}","[0]","anchoring","","","","","","","","","","","","","","","","","",""
"","","","","","instructions","6","14823","0.0-6.0","SS1678233315465","5eb02a40b17a8c0868685d32","6406d7f26dd5b7fc1e3377bd","6407ce4e7202a50c26f19b51","1366","625","[{""page_index"":0,""viewing_time"":1009}]","1009","instructions","","","","","","","","","","","","","","","","","","","","",""
"true","","","","","fullscreen","7","16698","0.0-7.0","SS1678233315465","5eb02a40b17a8c0868685d32","6406d7f26dd5b7fc1e3377bd","6407ce4e7202a50c26f19b51","1366","625","","","","","","","","","","","","","","","","","","","","","","","",""
"","","","","","html-keyboard-response","8","23019","0.0-8.0","SS1678233315465","5eb02a40b17a8c0868685d32","6406d7f26dd5b7fc1e3377bd","6407ce4e7202a50c26f19b51","1366","625","","6318","","f","","","<img src=""media/stimuli/inanimate_002_right.png"" class=""coveredImage test"" style = ""width:100px; height:100px; position:fixed; top:10%;    transform: translate(-50%, -50%);left:48%""></img><img src=""media/stimuli/inanimate_010_right.png"" class=""coveredImage test"" style = ""width:100px; height:100px;position:fixed; top:25%;        transform: translate(-50%, -50%);left:38%""></img><img src=""media/stimuli/animate_004_right.png"" class=""coveredImage test"" style = ""width:100px; height:100px;position:fixed; top:25%;        transform: translate(-50%, -50%);left:58%""></img><img src=""media/f.png""style = ""width:30px x; height:30px;position:fixed; top:43%;    transform: translate(-50%, -50%);left:40%""></img><img src=""media/j.png""style = ""width:30px; height:30px;position:fixed; top:43%;    transform: translate(-50%, -50%);left:60%""></img>","media/stimuli/inanimate_002_right.png","inanimate","right","single","media/stimuli/inanimate_010_right.png","inanimate","right","single","media/stimuli/animate_004_right.png","animate","right","single","identity_animacy","","","",""
"","","","","","html-keyboard-response","9","24920","0.0-9.0","SS1678233315465","5eb02a40b17a8c0868685d32","6406d7f26dd5b7fc1e3377bd","6407ce4e7202a50c26f19b51","1366","625","","1897","","f","","","<img src=""media/stimuli/inanimate_007_left.png"" class=""coveredImage test"" style = ""width:100px; height:100px; position:fixed; top:10%;    transform: translate(-50%, -50%);left:48%""></img><img src=""media/stimuli/inanimate_007_right.png"" class=""coveredImage test"" style = ""width:100px; height:100px;position:fixed; top:25%;        transform: translate(-50%, -50%);left:38%""></img><img src=""media/stimuli/inanimate_001_left.png"" class=""coveredImage test"" style = ""width:100px; height:100px;position:fixed; top:25%;        transform: translate(-50%, -50%);left:58%""></img><img src=""media/f.png""style = ""width:30px x; height:30px;position:fixed; top:43%;    transform: translate(-50%, -50%);left:40%""></img><img src=""media/j.png""style = ""width:30px; height:30px;position:fixed; top:43%;    transform: translate(-50%, -50%);left:60%""></img>","media/stimuli/inanimate_007_left.png","inanimate","left","single","media/stimuli/inanimate_007_right.png","inanimate","right","single","media/stimuli/inanimate_001_left.png","inanimate","left","single","pose_identity","","","",""
"","","","","","html-keyboard-response","10","26246","0.0-10.0","SS1678233315465","5eb02a40b17a8c0868685d32","6406d7f26dd5b7fc1e3377bd","6407ce4e7202a50c26f19b51","1366","625","","1324","","j","","","<img src=""media/stimuli/inanimate_005_left.png"" class=""coveredImage test"" style = ""width:100px; height:100px; position:fixed; top:10%;    transform: translate(-50%, -50%);left:48%""></img><img src=""media/stimuli/inanimate_009_left.png"" class=""coveredImage test"" style = ""width:100px; height:100px;position:fixed; top:25%;        transform: translate(-50%, -50%);left:38%""></img><img src=""media/stimuli/inanimate_005_right.png"" class=""coveredImage test"" style = ""width:100px; height:100px;position:fixed; top:25%;        transform: translate(-50%, -50%);left:58%""></img><img src=""media/f.png""style = ""width:30px x; height:30px;position:fixed; top:43%;    transform: translate(-50%, -50%);left:40%""></img><img src=""media/j.png""style = ""width:30px; height:30px;position:fixed; top:43%;    transform: translate(-50%, -50%);left:60%""></img>","media/stimuli/inanimate_005_left.png","inanimate","left","single","media/stimuli/inanimate_009_left.png","inanimate","left","single","media/stimuli/inanimate_005_right.png","inanimate","right","single","identity_pose","","","",""
"","","","","","html-keyboard-response","11","27727","0.0-11.0","SS1678233315465","5eb02a40b17a8c0868685d32","6406d7f26dd5b7fc1e3377bd","6407ce4e7202a50c26f19b51","1366","625","","1478","","j","","","<img src=""media/stimuli/inanimate_006_left.png"" class=""coveredImage test"" style = ""width:100px; height:100px; position:fixed; top:10%;    transform: translate(-50%, -50%);left:44.5%""></img><img src=""media/stimuli/inanimate_006_left.png"" class=""coveredImage test"" style = ""width:100px; height:100px; position:fixed; top:10%;    transform: translate(-50%, -50%);left:51.5%""></img><img src=""media/stimuli/inanimate_005_left.png"" class=""coveredImage test"" style = ""width:100px; height:100px;position:fixed; top:25%;        transform: translate(-50%, -50%);left:34.5%""></img><img src=""media/stimuli/inanimate_005_left.png"" class=""coveredImage test"" style = ""width:100px; height:100px;position:fixed; top:25%;        transform: translate(-50%, -50%);left:41.5%""></img><img src=""media/stimuli/inanimate_006_right.png"" class=""coveredImage test"" style = ""width:100px; height:100px;position:fixed; top:25%;        transform: translate(-50%, -50%);left:54.5%""></img><img src=""media/stimuli/inanimate_006_right.png"" class=""coveredImage test"" style = ""width:100px; height:100px;position:fixed; top:25%;        transform: translate(-50%, -50%);left:61.5%""></img><img src=""media/f.png""style = ""width:30px x; height:30px;position:fixed; top:43%;    transform: translate(-50%, -50%);left:40%""></img><img src=""media/j.png""style = ""width:30px; height:30px;position:fixed; top:43%;    transform: translate(-50%, -50%);left:60%""></img>","media/stimuli/inanimate_006_left.png","inanimate","left","pair","media/stimuli/inanimate_005_left.png","inanimate","left","pair","media/stimuli/inanimate_006_right.png","inanimate","right","pair","identity_pose","","","",""
"","","","","","html-keyboard-response","12","28908","0.0-12.0","SS1678233315465","5eb02a40b17a8c0868685d32","6406d7f26dd5b7fc1e3377bd","6407ce4e7202a50c26f19b51","1366","625","","1178","","f","","","<img src=""media/stimuli/animate_001_right.png"" class=""coveredImage test"" style = ""width:100px; height:100px; position:fixed; top:10%;    transform: translate(-50%, -50%);left:48%""></img><img src=""media/stimuli/animate_002_right.png"" class=""coveredImage test"" style = ""width:100px; height:100px;position:fixed; top:25%;        transform: translate(-50%, -50%);left:38%""></img><img src=""media/stimuli/inanimate_004_right.png"" class=""coveredImage test"" style = ""width:100px; height:100px;position:fixed; top:25%;        transform: translate(-50%, -50%);left:58%""></img><img src=""media/f.png""style = ""width:30px x; height:30px;position:fixed; top:43%;    transform: translate(-50%, -50%);left:40%""></img><img src=""media/j.png""style = ""width:30px; height:30px;position:fixed; top:43%;    transform: translate(-50%, -50%);left:60%""></img>","media/stimuli/animate_001_right.png","animate","right","single","media/stimuli/animate_002_right.png","animate","right","single","media/stimuli/inanimate_004_right.png","inanimate","right","single","identity_animacy","","","",""
"","","","","","html-keyboard-response","13","29603","0.0-13.0","SS1678233315465","5eb02a40b17a8c0868685d32","6406d7f26dd5b7fc1e3377bd","6407ce4e7202a50c26f19b51","1366","625","","692","","f","","","<img src=""media/stimuli/animate_009_left.png"" class=""coveredImage test"" style = ""width:100px; height:100px; position:fixed; top:10%;    transform: translate(-50%, -50%);left:48%""></img><img src=""media/stimuli/animate_009_left.png"" class=""coveredImage test"" style = ""width:100px; height:100px;position:fixed; top:25%;        transform: translate(-50%, -50%);left:34.5%""></img><img src=""media/stimuli/animate_009_left.png"" class=""coveredImage test"" style = ""width:100px; height:100px;position:fixed; top:25%;        transform: translate(-50%, -50%);left:41.5%""></img><img src=""media/stimuli/inanimate_009_left.png"" class=""coveredImage test"" style = ""width:100px; height:100px;position:fixed; top:25%;        transform: translate(-50%, -50%);left:58%""></img><img src=""media/f.png""style = ""width:30px x; height:30px;position:fixed; top:43%;    transform: translate(-50%, -50%);left:40%""></img><img src=""media/j.png""style = ""width:30px; height:30px;position:fixed; top:43%;    transform: translate(-50%, -50%);left:60%""></img>","media/stimuli/animate_009_left.png","animate","left","single","media/stimuli/animate_009_left.png","animate","left","pair","media/stimuli/inanimate_009_left.png","inanimate","left","single","number_animacy","","","",""
"","","","","","html-keyboard-response","14","30489","0.0-14.0","SS1678233315465","5eb02a40b17a8c0868685d32","6406d7f26dd5b7fc1e3377bd","6407ce4e7202a50c26f19b51","1366","625","","881","","j","","","<img src=""media/stimuli/inanimate_007_left.png"" class=""coveredImage test"" style = ""width:100px; height:100px; position:fixed; top:10%;    transform: translate(-50%, -50%);left:48%""></img><img src=""media/stimuli/inanimate_008_left.png"" class=""coveredImage test"" style = ""width:100px; height:100px;position:fixed; top:25%;        transform: translate(-50%, -50%);left:38%""></img><img src=""media/stimuli/inanimate_007_right.png"" class=""coveredImage test"" style = ""width:100px; height:100px;position:fixed; top:25%;        transform: translate(-50%, -50%);left:58%""></img><img src=""media/f.png""style = ""width:30px x; height:30px;position:fixed; top:43%;    transform: translate(-50%, -50%);left:40%""></img><img src=""media/j.png""style = ""width:30px; height:30px;position:fixed; top:43%;    transform: translate(-50%, -50%);left:60%""></img>","media/stimuli/inanimate_007_left.png","inanimate","left","single","media/stimuli/inanimate_008_left.png","inanimate","left","single","media/stimuli/inanimate_007_right.png","inanimate","right","single","identity_pose","","","",""
"","","","","","html-keyboard-response","15","31280","0.0-15.0","SS1678233315465","5eb02a40b17a8c0868685d32","6406d7f26dd5b7fc1e3377bd","6407ce4e7202a50c26f19b51","1366","625","","786","","f","","","<img src=""media/stimuli/inanimate_003_left.png"" class=""coveredImage test"" style = ""width:100px; height:100px; position:fixed; top:10%;    transform: translate(-50%, -50%);left:44.5%""></img><img src=""media/stimuli/inanimate_003_left.png"" class=""coveredImage test"" style = ""width:100px; height:100px; position:fixed; top:10%;    transform: translate(-50%, -50%);left:51.5%""></img><img src=""media/stimuli/inanimate_003_left.png"" class=""coveredImage test"" style = ""width:100px; height:100px;position:fixed; top:25%;        transform: translate(-50%, -50%);left:38%""></img><img src=""media/stimuli/inanimate_008_left.png"" class=""coveredImage test"" style = ""width:100px; height:100px;position:fixed; top:25%;        transform: translate(-50%, -50%);left:54.5%""></img><img src=""media/stimuli/inanimate_008_left.png"" class=""coveredImage test"" style = ""width:100px; height:100px;position:fixed; top:25%;        transform: translate(-50%, -50%);left:61.5%""></img><img src=""media/f.png""style = ""width:30px x; height:30px;position:fixed; top:43%;    transform: translate(-50%, -50%);left:40%""></img><img src=""media/j.png""style = ""width:30px; height:30px;position:fixed; top:43%;    transform: translate(-50%, -50%);left:60%""></img>","media/stimuli/inanimate_003_left.png","inanimate","left","pair","media/stimuli/inanimate_003_left.png","inanimate","left","single","media/stimuli/inanimate_008_left.png","inanimate","left","pair","number_identity","","","",""
"","","","","","html-keyboard-response","16","32213","0.0-16.0","SS1678233315465","5eb02a40b17a8c0868685d32","6406d7f26dd5b7fc1e3377bd","6407ce4e7202a50c26f19b51","1366","625","","930","","f","","","<img src=""media/stimuli/animate_006_right.png"" class=""coveredImage test"" style = ""width:100px; height:100px; position:fixed; top:10%;    transform: translate(-50%, -50%);left:48%""></img><img src=""media/stimuli/animate_006_left.png"" class=""coveredImage test"" style = ""width:100px; height:100px;position:fixed; top:25%;        transform: translate(-50%, -50%);left:34.5%""></img><img src=""media/stimuli/animate_006_left.png"" class=""coveredImage test"" style = ""width:100px; height:100px;position:fixed; top:25%;        transform: translate(-50%, -50%);left:41.5%""></img><img src=""media/stimuli/inanimate_009_right.png"" class=""coveredImage test"" style = ""width:100px; height:100px;position:fixed; top:25%;        transform: translate(-50%, -50%);left:54.5%""></img><img src=""media/stimuli/inanimate_009_right.png"" class=""coveredImage test"" style = ""width:100px; height:100px;position:fixed; top:25%;        transform: translate(-50%, -50%);left:61.5%""></img><img src=""media/f.png""style = ""width:30px x; height:30px;position:fixed; top:43%;    transform: translate(-50%, -50%);left:40%""></img><img src=""media/j.png""style = ""width:30px; height:30px;position:fixed; top:43%;    transform: translate(-50%, -50%);left:60%""></img>","media/stimuli/animate_006_right.png","animate","right","single","media/stimuli/animate_006_left.png","animate","left","pair","media/stimuli/inanimate_009_right.png","inanimate","right","pair","pose_animacy","","","",""
"","","","","","html-keyboard-response","17","32998","0.0-17.0","SS1678233315465","5eb02a40b17a8c0868685d32","6406d7f26dd5b7fc1e3377bd","6407ce4e7202a50c26f19b51","1366","625","","781","","j","","","<img src=""media/stimuli/animate_001_right.png"" class=""coveredImage test"" style = ""width:100px; height:100px; position:fixed; top:10%;    transform: translate(-50%, -50%);left:44.5%""></img><img src=""media/stimuli/animate_001_right.png"" class=""coveredImage test"" style = ""width:100px; height:100px; position:fixed; top:10%;    transform: translate(-50%, -50%);left:51.5%""></img><img src=""media/stimuli/animate_006_right.png"" class=""coveredImage test"" style = ""width:100px; height:100px;position:fixed; top:25%;        transform: translate(-50%, -50%);left:34.5%""></img><img src=""media/stimuli/animate_006_right.png"" class=""coveredImage test"" style = ""width:100px; height:100px;position:fixed; top:25%;        transform: translate(-50%, -50%);left:41.5%""></img><img src=""media/stimuli/animate_001_right.png"" class=""coveredImage test"" style = ""width:100px; height:100px;position:fixed; top:25%;        transform: translate(-50%, -50%);left:58%""></img><img src=""media/f.png""style = ""width:30px x; height:30px;position:fixed; top:43%;    transform: translate(-50%, -50%);left:40%""></img><img src=""media/j.png""style = ""width:30px; height:30px;position:fixed; top:43%;    transform: translate(-50%, -50%);left:60%""></img>","media/stimuli/animate_001_right.png","animate","right","pair","media/stimuli/animate_006_right.png","animate","right","pair","media/stimuli/animate_001_right.png","animate","right","single","identity_number","","","",""
"","","","","","html-keyboard-response","18","33815","0.0-18.0","SS1678233315465","5eb02a40b17a8c0868685d32","6406d7f26dd5b7fc1e3377bd","6407ce4e7202a50c26f19b51","1366","625","","814","","f","","","<img src=""media/stimuli/inanimate_003_right.png"" class=""coveredImage test"" style = ""width:100px; height:100px; position:fixed; top:10%;    transform: translate(-50%, -50%);left:48%""></img><img src=""media/stimuli/inanimate_003_left.png"" class=""coveredImage test"" style = ""width:100px; height:100px;position:fixed; top:25%;        transform: translate(-50%, -50%);left:34.5%""></img><img src=""media/stimuli/inanimate_003_left.png"" class=""coveredImage test"" style = ""width:100px; height:100px;position:fixed; top:25%;        transform: translate(-50%, -50%);left:41.5%""></img><img src=""media/stimuli/animate_010_right.png"" class=""coveredImage test"" style = ""width:100px; height:100px;position:fixed; top:25%;        transform: translate(-50%, -50%);left:54.5%""></img><img src=""media/stimuli/animate_010_right.png"" class=""coveredImage test"" style = ""width:100px; height:100px;position:fixed; top:25%;        transform: translate(-50%, -50%);left:61.5%""></img><img src=""media/f.png""style = ""width:30px x; height:30px;position:fixed; top:43%;    transform: translate(-50%, -50%);left:40%""></img><img src=""media/j.png""style = ""width:30px; height:30px;position:fixed; top:43%;    transform: translate(-50%, -50%);left:60%""></img>","media/stimuli/inanimate_003_right.png","inanimate","right","single","media/stimuli/inanimate_003_left.png","inanimate","left","pair","media/stimuli/animate_010_right.png","animate","right","pair","pose_animacy","","","",""
"","","","","","html-keyboard-response","19","35952","0.0-19.0","SS1678233315465","5eb02a40b17a8c0868685d32","6406d7f26dd5b7fc1e3377bd","6407ce4e7202a50c26f19b51","1366","625","","2134","","f","","","<img src=""media/stimuli/animate_011_left.png"" class=""coveredImage test"" style = ""width:100px; height:100px; position:fixed; top:10%;    transform: translate(-50%, -50%);left:44.5%""></img><img src=""media/stimuli/animate_011_left.png"" class=""coveredImage test"" style = ""width:100px; height:100px; position:fixed; top:10%;    transform: translate(-50%, -50%);left:51.5%""></img><img src=""media/stimuli/animate_011_right.png"" class=""coveredImage test"" style = ""width:100px; height:100px;position:fixed; top:25%;        transform: translate(-50%, -50%);left:34.5%""></img><img src=""media/stimuli/animate_011_right.png"" class=""coveredImage test"" style = ""width:100px; height:100px;position:fixed; top:25%;        transform: translate(-50%, -50%);left:41.5%""></img><img src=""media/stimuli/animate_011_left.png"" class=""coveredImage test"" style = ""width:100px; height:100px;position:fixed; top:25%;        transform: translate(-50%, -50%);left:58%""></img><img src=""media/f.png""style = ""width:30px x; height:30px;position:fixed; top:43%;    transform: translate(-50%, -50%);left:40%""></img><img src=""media/j.png""style = ""width:30px; height:30px;position:fixed; top:43%;    transform: translate(-50%, -50%);left:60%""></img>","media/stimuli/animate_011_left.png","animate","left","pair","media/stimuli/animate_011_right.png","animate","right","pair","media/stimuli/animate_011_left.png","animate","left","single","pose_number","","","",""
"","","","","","html-keyboard-response","20","37691","0.0-20.0","SS1678233315465","5eb02a40b17a8c0868685d32","6406d7f26dd5b7fc1e3377bd","6407ce4e7202a50c26f19b51","1366","625","","1737",""," ","","","","","","","","","","","","","","","","","","","",""
"","","","","","survey-likert","21","41471","0.0-21.0","SS1678233315465","5eb02a40b17a8c0868685d32","6406d7f26dd5b7fc1e3377bd","6407ce4e7202a50c26f19b51","1366","625","","3776","","{""Q0"":1}","[0]","complexity","","","","","","","","","","","","","","","media/stimuli/inanimate_002_right.png","inanimate","pair","right"
"","","","","","survey-likert","22","44587","0.0-22.0","SS1678233315465","5eb02a40b17a8c0868685d32","6406d7f26dd5b7fc1e3377bd","6407ce4e7202a50c26f19b51","1366","625","","3107","","{""Q0"":2}","[0]","complexity","","","","","","","","","","","","","","","media/stimuli/animate_011_left.png","animate","pair","left"
"","","","","","survey-likert","23","46927","0.0-23.0","SS1678233315465","5eb02a40b17a8c0868685d32","6406d7f26dd5b7fc1e3377bd","6407ce4e7202a50c26f19b51","1366","625","","2332","","{""Q0"":1}","[0]","complexity","","","","","","","","","","","","","","","media/stimuli/inanimate_009_left.png","inanimate","pair","left"
"","","","","","survey-likert","24","50433","0.0-24.0","SS1678233315465","5eb02a40b17a8c0868685d32","6406d7f26dd5b7fc1e3377bd","6407ce4e7202a50c26f19b51","1366","625","","3497","","{""Q0"":1}","[0]","complexity","","","","","","","","","","","","","","","media/stimuli/animate_005_left.png","animate","single","left"
"","","","","","survey-likert","25","54175","0.0-25.0","SS1678233315465","5eb02a40b17a8c0868685d32","6406d7f26dd5b7fc1e3377bd","6407ce4e7202a50c26f19b51","1366","625","","3731","","{""Q0"":1}","[0]","complexity","","","","","","","","","","","","","","","media/stimuli/inanimate_008_left.png","inanimate","single","left"
"","","","","","survey-likert","26","57022","0.0-26.0","SS1678233315465","5eb02a40b17a8c0868685d32","6406d7f26dd5b7fc1e3377bd","6407ce4e7202a50c26f19b51","1366","625","","2841","","{""Q0"":2}","[0]","complexity","","","","","","","","","","","","","","","media/stimuli/inanimate_006_right.png","inanimate","pair","right"
"","","","","","survey-likert","27","59422","0.0-27.0","SS1678233315465","5eb02a40b17a8c0868685d32","6406d7f26dd5b7fc1e3377bd","6407ce4e7202a50c26f19b51","1366","625","","2394","","{""Q0"":2}","[0]","complexity","","","","","","","","","","","","","","","media/stimuli/animate_002_left.png","animate","pair","left"
"","","","","","survey-likert","28","62310","0.0-28.0","SS1678233315465","5eb02a40b17a8c0868685d32","6406d7f26dd5b7fc1e3377bd","6407ce4e7202a50c26f19b51","1366","625","","2880","","{""Q0"":2}","[0]","complexity","","","","","","","","","","","","","","","media/stimuli/inanimate_008_left.png","inanimate","pair","left"
"","","","","","survey-likert","29","65125","0.0-29.0","SS1678233315465","5eb02a40b17a8c0868685d32","6406d7f26dd5b7fc1e3377bd","6407ce4e7202a50c26f19b51","1366","625","","2808","","{""Q0"":2}","[0]","complexity","","","","","","","","","","","","","","","media/stimuli/animate_008_right.png","animate","pair","right"
"","","","","","survey-likert","30","67040","0.0-30.0","SS1678233315465","5eb02a40b17a8c0868685d32","6406d7f26dd5b7fc1e3377bd","6407ce4e7202a50c26f19b51","1366","625","","1907","","{""Q0"":0}","[0]","complexity","","","","","","","","","","","","","","","media/stimuli/inanimate_001_left.png","inanimate","single","left"
"","","","","","survey-likert","31","70233","0.0-31.0","SS1678233315465","5eb02a40b17a8c0868685d32","6406d7f26dd5b7fc1e3377bd","6407ce4e7202a50c26f19b51","1366","625","","3184","","{""Q0"":2}","[0]","complexity","","","","","","","","","","","","","","","media/stimuli/animate_004_right.png","animate","pair","right"
"","","","","","survey-likert","32","73296","0.0-32.0","SS1678233315465","5eb02a40b17a8c0868685d32","6406d7f26dd5b7fc1e3377bd","6407ce4e7202a50c26f19b51","1366","625","","3057","","{""Q0"":1}","[0]","complexity","","","","","","","","","","","","","","","media/stimuli/animate_008_right.png","animate","single","right"
"","","","","","html-keyboard-response","33","74865","0.0-33.0","SS1678233315465","5eb02a40b17a8c0868685d32","6406d7f26dd5b7fc1e3377bd","6407ce4e7202a50c26f19b51","1366","625","","1561",""," ","","","","","","","","","","","","","","","","","","","",""
"","","","","","html-keyboard-response","34","80259","0.0-34.0","SS1678233315465","5eb02a40b17a8c0868685d32","6406d7f26dd5b7fc1e3377bd","6407ce4e7202a50c26f19b51","1366","625","","5391","","f","","","<img src=""media/stimuli/animate_011_right.png"" class=""coveredImage test"" style = ""width:100px; height:100px; position:fixed; top:10%;    transform: translate(-50%, -50%);left:44.5%""></img><img src=""media/stimuli/animate_011_right.png"" class=""coveredImage test"" style = ""width:100px; height:100px; position:fixed; top:10%;    transform: translate(-50%, -50%);left:51.5%""></img><img src=""media/stimuli/animate_012_right.png"" class=""coveredImage test"" style = ""width:100px; height:100px;position:fixed; top:25%;        transform: translate(-50%, -50%);left:34.5%""></img><img src=""media/stimuli/animate_012_right.png"" class=""coveredImage test"" style = ""width:100px; height:100px;position:fixed; top:25%;        transform: translate(-50%, -50%);left:41.5%""></img><img src=""media/stimuli/inanimate_003_right.png"" class=""coveredImage test"" style = ""width:100px; height:100px;position:fixed; top:25%;        transform: translate(-50%, -50%);left:54.5%""></img><img src=""media/stimuli/inanimate_003_right.png"" class=""coveredImage test"" style = ""width:100px; height:100px;position:fixed; top:25%;        transform: translate(-50%, -50%);left:61.5%""></img><img src=""media/f.png""style = ""width:30px x; height:30px;position:fixed; top:43%;    transform: translate(-50%, -50%);left:40%""></img><img src=""media/j.png""style = ""width:30px; height:30px;position:fixed; top:43%;    transform: translate(-50%, -50%);left:60%""></img>","media/stimuli/animate_011_right.png","animate","right","pair","media/stimuli/animate_012_right.png","animate","right","pair","media/stimuli/inanimate_003_right.png","inanimate","right","pair","identity_animacy","","","",""
"","","","","","html-keyboard-response","35","81266","0.0-35.0","SS1678233315465","5eb02a40b17a8c0868685d32","6406d7f26dd5b7fc1e3377bd","6407ce4e7202a50c26f19b51","1366","625","","1000","","f","","","<img src=""media/stimuli/inanimate_005_left.png"" class=""coveredImage test"" style = ""width:100px; height:100px; position:fixed; top:10%;    transform: translate(-50%, -50%);left:48%""></img><img src=""media/stimuli/inanimate_005_left.png"" class=""coveredImage test"" style = ""width:100px; height:100px;position:fixed; top:25%;        transform: translate(-50%, -50%);left:34.5%""></img><img src=""media/stimuli/inanimate_005_left.png"" class=""coveredImage test"" style = ""width:100px; height:100px;position:fixed; top:25%;        transform: translate(-50%, -50%);left:41.5%""></img><img src=""media/stimuli/inanimate_006_left.png"" class=""coveredImage test"" style = ""width:100px; height:100px;position:fixed; top:25%;        transform: translate(-50%, -50%);left:58%""></img><img src=""media/f.png""style = ""width:30px x; height:30px;position:fixed; top:43%;    transform: translate(-50%, -50%);left:40%""></img><img src=""media/j.png""style = ""width:30px; height:30px;position:fixed; top:43%;    transform: translate(-50%, -50%);left:60%""></img>","media/stimuli/inanimate_005_left.png","inanimate","left","single","media/stimuli/inanimate_005_left.png","inanimate","left","pair","media/stimuli/inanimate_006_left.png","inanimate","left","single","number_identity","","","",""
"","","","","","html-keyboard-response","36","82588","0.0-36.0","SS1678233315465","5eb02a40b17a8c0868685d32","6406d7f26dd5b7fc1e3377bd","6407ce4e7202a50c26f19b51","1366","625","","1318","","f","","","<img src=""media/stimuli/animate_001_right.png"" class=""coveredImage test"" style = ""width:100px; height:100px; position:fixed; top:10%;    transform: translate(-50%, -50%);left:44.5%""></img><img src=""media/stimuli/animate_001_right.png"" class=""coveredImage test"" style = ""width:100px; height:100px; position:fixed; top:10%;    transform: translate(-50%, -50%);left:51.5%""></img><img src=""media/stimuli/animate_001_right.png"" class=""coveredImage test"" style = ""width:100px; height:100px;position:fixed; top:25%;        transform: translate(-50%, -50%);left:38%""></img><img src=""media/stimuli/inanimate_005_left.png"" class=""coveredImage test"" style = ""width:100px; height:100px;position:fixed; top:25%;        transform: translate(-50%, -50%);left:58%""></img><img src=""media/f.png""style = ""width:30px x; height:30px;position:fixed; top:43%;    transform: translate(-50%, -50%);left:40%""></img><img src=""media/j.png""style = ""width:30px; height:30px;position:fixed; top:43%;    transform: translate(-50%, -50%);left:60%""></img>","media/stimuli/animate_001_right.png","animate","right","pair","media/stimuli/animate_001_right.png","animate","right","single","media/stimuli/inanimate_005_left.png","inanimate","left","single","pose_animacy","","","",""
"","","","","","html-keyboard-response","37","85503","0.0-37.0","SS1678233315465","5eb02a40b17a8c0868685d32","6406d7f26dd5b7fc1e3377bd","6407ce4e7202a50c26f19b51","1366","625","","2910","","j","","","<img src=""media/stimuli/inanimate_002_right.png"" class=""coveredImage test"" style = ""width:100px; height:100px; position:fixed; top:10%;    transform: translate(-50%, -50%);left:48%""></img><img src=""media/stimuli/inanimate_002_right.png"" class=""coveredImage test"" style = ""width:100px; height:100px;position:fixed; top:25%;        transform: translate(-50%, -50%);left:34.5%""></img><img src=""media/stimuli/inanimate_002_right.png"" class=""coveredImage test"" style = ""width:100px; height:100px;position:fixed; top:25%;        transform: translate(-50%, -50%);left:41.5%""></img><img src=""media/stimuli/inanimate_001_right.png"" class=""coveredImage test"" style = ""width:100px; height:100px;position:fixed; top:25%;        transform: translate(-50%, -50%);left:58%""></img><img src=""media/f.png""style = ""width:30px x; height:30px;position:fixed; top:43%;    transform: translate(-50%, -50%);left:40%""></img><img src=""media/j.png""style = ""width:30px; height:30px;position:fixed; top:43%;    transform: translate(-50%, -50%);left:60%""></img>","media/stimuli/inanimate_002_right.png","inanimate","right","single","media/stimuli/inanimate_002_right.png","inanimate","right","pair","media/stimuli/inanimate_001_right.png","inanimate","right","single","number_identity","","","",""
"","","","","","html-keyboard-response","38","86394","0.0-38.0","SS1678233315465","5eb02a40b17a8c0868685d32","6406d7f26dd5b7fc1e3377bd","6407ce4e7202a50c26f19b51","1366","625","","884","","f","","","<img src=""media/stimuli/animate_009_right.png"" class=""coveredImage test"" style = ""width:100px; height:100px; position:fixed; top:10%;    transform: translate(-50%, -50%);left:44.5%""></img><img src=""media/stimuli/animate_009_right.png"" class=""coveredImage test"" style = ""width:100px; height:100px; position:fixed; top:10%;    transform: translate(-50%, -50%);left:51.5%""></img><img src=""media/stimuli/animate_009_left.png"" class=""coveredImage test"" style = ""width:100px; height:100px;position:fixed; top:25%;        transform: translate(-50%, -50%);left:34.5%""></img><img src=""media/stimuli/animate_009_left.png"" class=""coveredImage test"" style = ""width:100px; height:100px;position:fixed; top:25%;        transform: translate(-50%, -50%);left:41.5%""></img><img src=""media/stimuli/inanimate_004_right.png"" class=""coveredImage test"" style = ""width:100px; height:100px;position:fixed; top:25%;        transform: translate(-50%, -50%);left:54.5%""></img><img src=""media/stimuli/inanimate_004_right.png"" class=""coveredImage test"" style = ""width:100px; height:100px;position:fixed; top:25%;        transform: translate(-50%, -50%);left:61.5%""></img><img src=""media/f.png""style = ""width:30px x; height:30px;position:fixed; top:43%;    transform: translate(-50%, -50%);left:40%""></img><img src=""media/j.png""style = ""width:30px; height:30px;position:fixed; top:43%;    transform: translate(-50%, -50%);left:60%""></img>","media/stimuli/animate_009_right.png","animate","right","pair","media/stimuli/animate_009_left.png","animate","left","pair","media/stimuli/inanimate_004_right.png","inanimate","right","pair","pose_animacy","","","",""
"","","","","","html-keyboard-response","39","87543","0.0-39.0","SS1678233315465","5eb02a40b17a8c0868685d32","6406d7f26dd5b7fc1e3377bd","6407ce4e7202a50c26f19b51","1366","625","","1145","","j","","","<img src=""media/stimuli/animate_003_right.png"" class=""coveredImage test"" style = ""width:100px; height:100px; position:fixed; top:10%;    transform: translate(-50%, -50%);left:48%""></img><img src=""media/stimuli/animate_010_right.png"" class=""coveredImage test"" style = ""width:100px; height:100px;position:fixed; top:25%;        transform: translate(-50%, -50%);left:38%""></img><img src=""media/stimuli/animate_003_left.png"" class=""coveredImage test"" style = ""width:100px; height:100px;position:fixed; top:25%;        transform: translate(-50%, -50%);left:58%""></img><img src=""media/f.png""style = ""width:30px x; height:30px;position:fixed; top:43%;    transform: translate(-50%, -50%);left:40%""></img><img src=""media/j.png""style = ""width:30px; height:30px;position:fixed; top:43%;    transform: translate(-50%, -50%);left:60%""></img>","media/stimuli/animate_003_right.png","animate","right","single","media/stimuli/animate_010_right.png","animate","right","single","media/stimuli/animate_003_left.png","animate","left","single","identity_pose","","","",""
"","","","","","html-keyboard-response","40","90066","0.0-40.0","SS1678233315465","5eb02a40b17a8c0868685d32","6406d7f26dd5b7fc1e3377bd","6407ce4e7202a50c26f19b51","1366","625","","2520","","f","","","<img src=""media/stimuli/animate_010_right.png"" class=""coveredImage test"" style = ""width:100px; height:100px; position:fixed; top:10%;    transform: translate(-50%, -50%);left:48%""></img><img src=""media/stimuli/animate_010_left.png"" class=""coveredImage test"" style = ""width:100px; height:100px;position:fixed; top:25%;        transform: translate(-50%, -50%);left:38%""></img><img src=""media/stimuli/animate_010_right.png"" class=""coveredImage test"" style = ""width:100px; height:100px;position:fixed; top:25%;        transform: translate(-50%, -50%);left:54.5%""></img><img src=""media/stimuli/animate_010_right.png"" class=""coveredImage test"" style = ""width:100px; height:100px;position:fixed; top:25%;        transform: translate(-50%, -50%);left:61.5%""></img><img src=""media/f.png""style = ""width:30px x; height:30px;position:fixed; top:43%;    transform: translate(-50%, -50%);left:40%""></img><img src=""media/j.png""style = ""width:30px; height:30px;position:fixed; top:43%;    transform: translate(-50%, -50%);left:60%""></img>","media/stimuli/animate_010_right.png","animate","right","single","media/stimuli/animate_010_left.png","animate","left","single","media/stimuli/animate_010_right.png","animate","right","pair","pose_number","","","",""
"","","","","","html-keyboard-response","41","91577","0.0-41.0","SS1678233315465","5eb02a40b17a8c0868685d32","6406d7f26dd5b7fc1e3377bd","6407ce4e7202a50c26f19b51","1366","625","","1507","","f","","","<img src=""media/stimuli/inanimate_008_right.png"" class=""coveredImage test"" style = ""width:100px; height:100px; position:fixed; top:10%;    transform: translate(-50%, -50%);left:44.5%""></img><img src=""media/stimuli/inanimate_008_right.png"" class=""coveredImage test"" style = ""width:100px; height:100px; position:fixed; top:10%;    transform: translate(-50%, -50%);left:51.5%""></img><img src=""media/stimuli/inanimate_008_left.png"" class=""coveredImage test"" style = ""width:100px; height:100px;position:fixed; top:25%;        transform: translate(-50%, -50%);left:34.5%""></img><img src=""media/stimuli/inanimate_008_left.png"" class=""coveredImage test"" style = ""width:100px; height:100px;position:fixed; top:25%;        transform: translate(-50%, -50%);left:41.5%""></img><img src=""media/stimuli/inanimate_001_right.png"" class=""coveredImage test"" style = ""width:100px; height:100px;position:fixed; top:25%;        transform: translate(-50%, -50%);left:54.5%""></img><img src=""media/stimuli/inanimate_001_right.png"" class=""coveredImage test"" style = ""width:100px; height:100px;position:fixed; top:25%;        transform: translate(-50%, -50%);left:61.5%""></img><img src=""media/f.png""style = ""width:30px x; height:30px;position:fixed; top:43%;    transform: translate(-50%, -50%);left:40%""></img><img src=""media/j.png""style = ""width:30px; height:30px;position:fixed; top:43%;    transform: translate(-50%, -50%);left:60%""></img>","media/stimuli/inanimate_008_right.png","inanimate","right","pair","media/stimuli/inanimate_008_left.png","inanimate","left","pair","media/stimuli/inanimate_001_right.png","inanimate","right","pair","pose_identity","","","",""
"","","","","","html-keyboard-response","42","92635","0.0-42.0","SS1678233315465","5eb02a40b17a8c0868685d32","6406d7f26dd5b7fc1e3377bd","6407ce4e7202a50c26f19b51","1366","625","","1054","","j","","","<img src=""media/stimuli/animate_004_left.png"" class=""coveredImage test"" style = ""width:100px; height:100px; position:fixed; top:10%;    transform: translate(-50%, -50%);left:48%""></img><img src=""media/stimuli/animate_009_left.png"" class=""coveredImage test"" style = ""width:100px; height:100px;position:fixed; top:25%;        transform: translate(-50%, -50%);left:38%""></img><img src=""media/stimuli/animate_004_left.png"" class=""coveredImage test"" style = ""width:100px; height:100px;position:fixed; top:25%;        transform: translate(-50%, -50%);left:54.5%""></img><img src=""media/stimuli/animate_004_left.png"" class=""coveredImage test"" style = ""width:100px; height:100px;position:fixed; top:25%;        transform: translate(-50%, -50%);left:61.5%""></img><img src=""media/f.png""style = ""width:30px x; height:30px;position:fixed; top:43%;    transform: translate(-50%, -50%);left:40%""></img><img src=""media/j.png""style = ""width:30px; height:30px;position:fixed; top:43%;    transform: translate(-50%, -50%);left:60%""></img>","media/stimuli/animate_004_left.png","animate","left","single","media/stimuli/animate_009_left.png","animate","left","single","media/stimuli/animate_004_left.png","animate","left","pair","identity_number","","","",""
"","","","","","html-keyboard-response","43","93396","0.0-43.0","SS1678233315465","5eb02a40b17a8c0868685d32","6406d7f26dd5b7fc1e3377bd","6407ce4e7202a50c26f19b51","1366","625","","757","","f","","","<img src=""media/stimuli/inanimate_002_right.png"" class=""coveredImage test"" style = ""width:100px; height:100px; position:fixed; top:10%;    transform: translate(-50%, -50%);left:44.5%""></img><img src=""media/stimuli/inanimate_002_right.png"" class=""coveredImage test"" style = ""width:100px; height:100px; position:fixed; top:10%;    transform: translate(-50%, -50%);left:51.5%""></img><img src=""media/stimuli/inanimate_002_right.png"" class=""coveredImage test"" style = ""width:100px; height:100px;position:fixed; top:25%;        transform: translate(-50%, -50%);left:38%""></img><img src=""media/stimuli/animate_012_right.png"" class=""coveredImage test"" style = ""width:100px; height:100px;position:fixed; top:25%;        transform: translate(-50%, -50%);left:54.5%""></img><img src=""media/stimuli/animate_012_right.png"" class=""coveredImage test"" style = ""width:100px; height:100px;position:fixed; top:25%;        transform: translate(-50%, -50%);left:61.5%""></img><img src=""media/f.png""style = ""width:30px x; height:30px;position:fixed; top:43%;    transform: translate(-50%, -50%);left:40%""></img><img src=""media/j.png""style = ""width:30px; height:30px;position:fixed; top:43%;    transform: translate(-50%, -50%);left:60%""></img>","media/stimuli/inanimate_002_right.png","inanimate","right","pair","media/stimuli/inanimate_002_right.png","inanimate","right","single","media/stimuli/animate_012_right.png","animate","right","pair","number_animacy","","","",""
"","","","","","html-keyboard-response","44","94106","0.0-44.0","SS1678233315465","5eb02a40b17a8c0868685d32","6406d7f26dd5b7fc1e3377bd","6407ce4e7202a50c26f19b51","1366","625","","705","","j","","","<img src=""media/stimuli/animate_004_left.png"" class=""coveredImage test"" style = ""width:100px; height:100px; position:fixed; top:10%;    transform: translate(-50%, -50%);left:48%""></img><img src=""media/stimuli/inanimate_007_left.png"" class=""coveredImage test"" style = ""width:100px; height:100px;position:fixed; top:25%;        transform: translate(-50%, -50%);left:38%""></img><img src=""media/stimuli/animate_004_left.png"" class=""coveredImage test"" style = ""width:100px; height:100px;position:fixed; top:25%;        transform: translate(-50%, -50%);left:54.5%""></img><img src=""media/stimuli/animate_004_left.png"" class=""coveredImage test"" style = ""width:100px; height:100px;position:fixed; top:25%;        transform: translate(-50%, -50%);left:61.5%""></img><img src=""media/f.png""style = ""width:30px x; height:30px;position:fixed; top:43%;    transform: translate(-50%, -50%);left:40%""></img><img src=""media/j.png""style = ""width:30px; height:30px;position:fixed; top:43%;    transform: translate(-50%, -50%);left:60%""></img>","media/stimuli/animate_004_left.png","animate","left","single","media/stimuli/inanimate_007_left.png","inanimate","left","single","media/stimuli/animate_004_left.png","animate","left","pair","animacy_number","","","",""
"","","","","","html-keyboard-response","45","94894","0.0-45.0","SS1678233315465","5eb02a40b17a8c0868685d32","6406d7f26dd5b7fc1e3377bd","6407ce4e7202a50c26f19b51","1366","625","","783","","f","","","<img src=""media/stimuli/inanimate_007_left.png"" class=""coveredImage test"" style = ""width:100px; height:100px; position:fixed; top:10%;    transform: translate(-50%, -50%);left:44.5%""></img><img src=""media/stimuli/inanimate_007_left.png"" class=""coveredImage test"" style = ""width:100px; height:100px; position:fixed; top:10%;    transform: translate(-50%, -50%);left:51.5%""></img><img src=""media/stimuli/inanimate_007_left.png"" class=""coveredImage test"" style = ""width:100px; height:100px;position:fixed; top:25%;        transform: translate(-50%, -50%);left:34.5%""></img><img src=""media/stimuli/inanimate_007_left.png"" class=""coveredImage test"" style = ""width:100px; height:100px;position:fixed; top:25%;        transform: translate(-50%, -50%);left:41.5%""></img><img src=""media/stimuli/animate_002_left.png"" class=""coveredImage test"" style = ""width:100px; height:100px;position:fixed; top:25%;        transform: translate(-50%, -50%);left:54.5%""></img><img src=""media/stimuli/animate_002_left.png"" class=""coveredImage test"" style = ""width:100px; height:100px;position:fixed; top:25%;        transform: translate(-50%, -50%);left:61.5%""></img><img src=""media/f.png""style = ""width:30px x; height:30px;position:fixed; top:43%;    transform: translate(-50%, -50%);left:40%""></img><img src=""media/j.png""style = ""width:30px; height:30px;position:fixed; top:43%;    transform: translate(-50%, -50%);left:60%""></img>","media/stimuli/inanimate_007_left.png","inanimate","left","pair","media/stimuli/inanimate_007_left.png","inanimate","left","pair","media/stimuli/animate_002_left.png","animate","left","pair","filler_animacy","","","",""
"","","","","","html-keyboard-response","46","95812","0.0-46.0","SS1678233315465","5eb02a40b17a8c0868685d32","6406d7f26dd5b7fc1e3377bd","6407ce4e7202a50c26f19b51","1366","625","","913",""," ","","","","","","","","","","","","","","","","","","","",""
"","","","","","survey-likert","47","99152","0.0-47.0","SS1678233315465","5eb02a40b17a8c0868685d32","6406d7f26dd5b7fc1e3377bd","6407ce4e7202a50c26f19b51","1366","625","","3336","","{""Q0"":1}","[0]","complexity","","","","","","","","","","","","","","","media/stimuli/inanimate_010_left.png","inanimate","single","left"
"","","","","","survey-likert","48","102534","0.0-48.0","SS1678233315465","5eb02a40b17a8c0868685d32","6406d7f26dd5b7fc1e3377bd","6407ce4e7202a50c26f19b51","1366","625","","3373","","{""Q0"":1}","[0]","complexity","","","","","","","","","","","","","","","media/stimuli/inanimate_005_right.png","inanimate","single","right"
"","","","","","survey-likert","49","104450","0.0-49.0","SS1678233315465","5eb02a40b17a8c0868685d32","6406d7f26dd5b7fc1e3377bd","6407ce4e7202a50c26f19b51","1366","625","","1906","","{""Q0"":1}","[0]","complexity","","","","","","","","","","","","","","","media/stimuli/inanimate_009_left.png","inanimate","single","left"
"","","","","","survey-likert","50","107417","0.0-50.0","SS1678233315465","5eb02a40b17a8c0868685d32","6406d7f26dd5b7fc1e3377bd","6407ce4e7202a50c26f19b51","1366","625","","2958","","{""Q0"":2}","[0]","complexity","","","","","","","","","","","","","","","media/stimuli/animate_007_left.png","animate","pair","left"
"","","","","","survey-likert","51","108832","0.0-51.0","SS1678233315465","5eb02a40b17a8c0868685d32","6406d7f26dd5b7fc1e3377bd","6407ce4e7202a50c26f19b51","1366","625","","1405","","{""Q0"":2}","[0]","complexity","","","","","","","","","","","","","","","media/stimuli/inanimate_006_left.png","inanimate","pair","left"
"","","","","","survey-likert","52","111676","0.0-52.0","SS1678233315465","5eb02a40b17a8c0868685d32","6406d7f26dd5b7fc1e3377bd","6407ce4e7202a50c26f19b51","1366","625","","2833","","{""Q0"":1}","[0]","complexity","","","","","","","","","","","","","","","media/stimuli/animate_003_right.png","animate","single","right"
"","","","","","survey-likert","53","113832","0.0-53.0","SS1678233315465","5eb02a40b17a8c0868685d32","6406d7f26dd5b7fc1e3377bd","6407ce4e7202a50c26f19b51","1366","625","","2148","","{""Q0"":1}","[0]","complexity","","","","","","","","","","","","","","","media/stimuli/inanimate_012_left.png","inanimate","single","left"
"","","","","","survey-likert","54","115998","0.0-54.0","SS1678233315465","5eb02a40b17a8c0868685d32","6406d7f26dd5b7fc1e3377bd","6407ce4e7202a50c26f19b51","1366","625","","2158","","{""Q0"":1}","[0]","complexity","","","","","","","","","","","","","","","media/stimuli/animate_006_right.png","animate","single","right"
"","","","","","survey-likert","55","117632","0.0-55.0","SS1678233315465","5eb02a40b17a8c0868685d32","6406d7f26dd5b7fc1e3377bd","6407ce4e7202a50c26f19b51","1366","625","","1626","","{""Q0"":2}","[0]","complexity","","","","","","","","","","","","","","","media/stimuli/animate_009_right.png","animate","pair","right"
"","","","","","survey-likert","56","120020","0.0-56.0","SS1678233315465","5eb02a40b17a8c0868685d32","6406d7f26dd5b7fc1e3377bd","6407ce4e7202a50c26f19b51","1366","625","","2379","","{""Q0"":1}","[0]","complexity","","","","","","","","","","","","","","","media/stimuli/inanimate_001_left.png","inanimate","pair","left"
"","","","","","survey-likert","57","123194","0.0-57.0","SS1678233315465","5eb02a40b17a8c0868685d32","6406d7f26dd5b7fc1e3377bd","6407ce4e7202a50c26f19b51","1366","625","","3167","","{""Q0"":2}","[0]","complexity","","","","","","","","","","","","","","","media/stimuli/animate_009_left.png","animate","pair","left"
"","","","","","survey-likert","58","125572","0.0-58.0","SS1678233315465","5eb02a40b17a8c0868685d32","6406d7f26dd5b7fc1e3377bd","6407ce4e7202a50c26f19b51","1366","625","","2368","","{""Q0"":2}","[0]","complexity","","","","","","","","","","","","","","","media/stimuli/animate_002_right.png","animate","pair","right"
"","","","","","html-keyboard-response","59","127071","0.0-59.0","SS1678233315465","5eb02a40b17a8c0868685d32","6406d7f26dd5b7fc1e3377bd","6407ce4e7202a50c26f19b51","1366","625","","1491",""," ","","","","","","","","","","","","","","","","","","","",""
"","","","","","html-keyboard-response","60","130033","0.0-60.0","SS1678233315465","5eb02a40b17a8c0868685d32","6406d7f26dd5b7fc1e3377bd","6407ce4e7202a50c26f19b51","1366","625","","2955","","f","","","<img src=""media/stimuli/animate_010_left.png"" class=""coveredImage test"" style = ""width:100px; height:100px; position:fixed; top:10%;    transform: translate(-50%, -50%);left:44.5%""></img><img src=""media/stimuli/animate_010_left.png"" class=""coveredImage test"" style = ""width:100px; height:100px; position:fixed; top:10%;    transform: translate(-50%, -50%);left:51.5%""></img><img src=""media/stimuli/animate_010_left.png"" class=""coveredImage test"" style = ""width:100px; height:100px;position:fixed; top:25%;        transform: translate(-50%, -50%);left:34.5%""></img><img src=""media/stimuli/animate_010_left.png"" class=""coveredImage test"" style = ""width:100px; height:100px;position:fixed; top:25%;        transform: translate(-50%, -50%);left:41.5%""></img><img src=""media/stimuli/inanimate_002_right.png"" class=""coveredImage test"" style = ""width:100px; height:100px;position:fixed; top:25%;        transform: translate(-50%, -50%);left:54.5%""></img><img src=""media/stimuli/inanimate_002_right.png"" class=""coveredImage test"" style = ""width:100px; height:100px;position:fixed; top:25%;        transform: translate(-50%, -50%);left:61.5%""></img><img src=""media/f.png""style = ""width:30px x; height:30px;position:fixed; top:43%;    transform: translate(-50%, -50%);left:40%""></img><img src=""media/j.png""style = ""width:30px; height:30px;position:fixed; top:43%;    transform: translate(-50%, -50%);left:60%""></img>","media/stimuli/animate_010_left.png","animate","left","pair","media/stimuli/animate_010_left.png","animate","left","pair","media/stimuli/inanimate_002_right.png","inanimate","right","pair","pose_animacy","","","",""
"","","","","","html-keyboard-response","61","131724","0.0-61.0","SS1678233315465","5eb02a40b17a8c0868685d32","6406d7f26dd5b7fc1e3377bd","6407ce4e7202a50c26f19b51","1366","625","","1686","","f","","","<img src=""media/stimuli/inanimate_010_right.png"" class=""coveredImage test"" style = ""width:100px; height:100px; position:fixed; top:10%;    transform: translate(-50%, -50%);left:44.5%""></img><img src=""media/stimuli/inanimate_010_right.png"" class=""coveredImage test"" style = ""width:100px; height:100px; position:fixed; top:10%;    transform: translate(-50%, -50%);left:51.5%""></img><img src=""media/stimuli/inanimate_010_right.png"" class=""coveredImage test"" style = ""width:100px; height:100px;position:fixed; top:25%;        transform: translate(-50%, -50%);left:38%""></img><img src=""media/stimuli/inanimate_012_right.png"" class=""coveredImage test"" style = ""width:100px; height:100px;position:fixed; top:25%;        transform: translate(-50%, -50%);left:54.5%""></img><img src=""media/stimuli/inanimate_012_right.png"" class=""coveredImage test"" style = ""width:100px; height:100px;position:fixed; top:25%;        transform: translate(-50%, -50%);left:61.5%""></img><img src=""media/f.png""style = ""width:30px x; height:30px;position:fixed; top:43%;    transform: translate(-50%, -50%);left:40%""></img><img src=""media/j.png""style = ""width:30px; height:30px;position:fixed; top:43%;    transform: translate(-50%, -50%);left:60%""></img>","media/stimuli/inanimate_010_right.png","inanimate","right","pair","media/stimuli/inanimate_010_right.png","inanimate","right","single","media/stimuli/inanimate_012_right.png","inanimate","right","pair","number_identity","","","",""
"","","","","","html-keyboard-response","62","132943","0.0-62.0","SS1678233315465","5eb02a40b17a8c0868685d32","6406d7f26dd5b7fc1e3377bd","6407ce4e7202a50c26f19b51","1366","625","","1214","","f","","","<img src=""media/stimuli/inanimate_007_left.png"" class=""coveredImage test"" style = ""width:100px; height:100px; position:fixed; top:10%;    transform: translate(-50%, -50%);left:48%""></img><img src=""media/stimuli/inanimate_007_right.png"" class=""coveredImage test"" style = ""width:100px; height:100px;position:fixed; top:25%;        transform: translate(-50%, -50%);left:38%""></img><img src=""media/stimuli/inanimate_007_left.png"" class=""coveredImage test"" style = ""width:100px; height:100px;position:fixed; top:25%;        transform: translate(-50%, -50%);left:54.5%""></img><img src=""media/stimuli/inanimate_007_left.png"" class=""coveredImage test"" style = ""width:100px; height:100px;position:fixed; top:25%;        transform: translate(-50%, -50%);left:61.5%""></img><img src=""media/f.png""style = ""width:30px x; height:30px;position:fixed; top:43%;    transform: translate(-50%, -50%);left:40%""></img><img src=""media/j.png""style = ""width:30px; height:30px;position:fixed; top:43%;    transform: translate(-50%, -50%);left:60%""></img>","media/stimuli/inanimate_007_left.png","inanimate","left","single","media/stimuli/inanimate_007_right.png","inanimate","right","single","media/stimuli/inanimate_007_left.png","inanimate","left","pair","pose_number","","","",""
"","","","","","html-keyboard-response","63","134025","0.0-63.0","SS1678233315465","5eb02a40b17a8c0868685d32","6406d7f26dd5b7fc1e3377bd","6407ce4e7202a50c26f19b51","1366","625","","1077","","f","","","<img src=""media/stimuli/inanimate_001_left.png"" class=""coveredImage test"" style = ""width:100px; height:100px; position:fixed; top:10%;    transform: translate(-50%, -50%);left:48%""></img><img src=""media/stimuli/inanimate_001_left.png"" class=""coveredImage test"" style = ""width:100px; height:100px;position:fixed; top:25%;        transform: translate(-50%, -50%);left:34.5%""></img><img src=""media/stimuli/inanimate_001_left.png"" class=""coveredImage test"" style = ""width:100px; height:100px;position:fixed; top:25%;        transform: translate(-50%, -50%);left:41.5%""></img><img src=""media/stimuli/animate_004_right.png"" class=""coveredImage test"" style = ""width:100px; height:100px;position:fixed; top:25%;        transform: translate(-50%, -50%);left:54.5%""></img><img src=""media/stimuli/animate_004_right.png"" class=""coveredImage test"" style = ""width:100px; height:100px;position:fixed; top:25%;        transform: translate(-50%, -50%);left:61.5%""></img><img src=""media/f.png""style = ""width:30px x; height:30px;position:fixed; top:43%;    transform: translate(-50%, -50%);left:40%""></img><img src=""media/j.png""style = ""width:30px; height:30px;position:fixed; top:43%;    transform: translate(-50%, -50%);left:60%""></img>","media/stimuli/inanimate_001_left.png","inanimate","left","single","media/stimuli/inanimate_001_left.png","inanimate","left","pair","media/stimuli/animate_004_right.png","animate","right","pair","pose_animacy","","","",""
"","","","","","html-keyboard-response","64","134659","0.0-64.0","SS1678233315465","5eb02a40b17a8c0868685d32","6406d7f26dd5b7fc1e3377bd","6407ce4e7202a50c26f19b51","1366","625","","629","","j","","","<img src=""media/stimuli/animate_008_left.png"" class=""coveredImage test"" style = ""width:100px; height:100px; position:fixed; top:10%;    transform: translate(-50%, -50%);left:48%""></img><img src=""media/stimuli/inanimate_002_left.png"" class=""coveredImage test"" style = ""width:100px; height:100px;position:fixed; top:25%;        transform: translate(-50%, -50%);left:38%""></img><img src=""media/stimuli/animate_008_left.png"" class=""coveredImage test"" style = ""width:100px; height:100px;position:fixed; top:25%;        transform: translate(-50%, -50%);left:54.5%""></img><img src=""media/stimuli/animate_008_left.png"" class=""coveredImage test"" style = ""width:100px; height:100px;position:fixed; top:25%;        transform: translate(-50%, -50%);left:61.5%""></img><img src=""media/f.png""style = ""width:30px x; height:30px;position:fixed; top:43%;    transform: translate(-50%, -50%);left:40%""></img><img src=""media/j.png""style = ""width:30px; height:30px;position:fixed; top:43%;    transform: translate(-50%, -50%);left:60%""></img>","media/stimuli/animate_008_left.png","animate","left","single","media/stimuli/inanimate_002_left.png","inanimate","left","single","media/stimuli/animate_008_left.png","animate","left","pair","animacy_number","","","",""
"","","","","","html-keyboard-response","65","135327","0.0-65.0","SS1678233315465","5eb02a40b17a8c0868685d32","6406d7f26dd5b7fc1e3377bd","6407ce4e7202a50c26f19b51","1366","625","","663","","j","","","<img src=""media/stimuli/inanimate_007_right.png"" class=""coveredImage test"" style = ""width:100px; height:100px; position:fixed; top:10%;    transform: translate(-50%, -50%);left:48%""></img><img src=""media/stimuli/animate_010_right.png"" class=""coveredImage test"" style = ""width:100px; height:100px;position:fixed; top:25%;        transform: translate(-50%, -50%);left:38%""></img><img src=""media/stimuli/inanimate_007_right.png"" class=""coveredImage test"" style = ""width:100px; height:100px;position:fixed; top:25%;        transform: translate(-50%, -50%);left:54.5%""></img><img src=""media/stimuli/inanimate_007_right.png"" class=""coveredImage test"" style = ""width:100px; height:100px;position:fixed; top:25%;        transform: translate(-50%, -50%);left:61.5%""></img><img src=""media/f.png""style = ""width:30px x; height:30px;position:fixed; top:43%;    transform: translate(-50%, -50%);left:40%""></img><img src=""media/j.png""style = ""width:30px; height:30px;position:fixed; top:43%;    transform: translate(-50%, -50%);left:60%""></img>","media/stimuli/inanimate_007_right.png","inanimate","right","single","media/stimuli/animate_010_right.png","animate","right","single","media/stimuli/inanimate_007_right.png","inanimate","right","pair","animacy_number","","","",""
"","","","","","html-keyboard-response","66","136357","0.0-66.0","SS1678233315465","5eb02a40b17a8c0868685d32","6406d7f26dd5b7fc1e3377bd","6407ce4e7202a50c26f19b51","1366","625","","1025","","f","","","<img src=""media/stimuli/inanimate_007_left.png"" class=""coveredImage test"" style = ""width:100px; height:100px; position:fixed; top:10%;    transform: translate(-50%, -50%);left:48%""></img><img src=""media/stimuli/inanimate_007_left.png"" class=""coveredImage test"" style = ""width:100px; height:100px;position:fixed; top:25%;        transform: translate(-50%, -50%);left:38%""></img><img src=""media/stimuli/animate_006_right.png"" class=""coveredImage test"" style = ""width:100px; height:100px;position:fixed; top:25%;        transform: translate(-50%, -50%);left:58%""></img><img src=""media/f.png""style = ""width:30px x; height:30px;position:fixed; top:43%;    transform: translate(-50%, -50%);left:40%""></img><img src=""media/j.png""style = ""width:30px; height:30px;position:fixed; top:43%;    transform: translate(-50%, -50%);left:60%""></img>","media/stimuli/inanimate_007_left.png","inanimate","left","single","media/stimuli/inanimate_007_left.png","inanimate","left","single","media/stimuli/animate_006_right.png","animate","right","single","pose_animacy","","","",""
"","","","","","html-keyboard-response","67","137606","0.0-67.0","SS1678233315465","5eb02a40b17a8c0868685d32","6406d7f26dd5b7fc1e3377bd","6407ce4e7202a50c26f19b51","1366","625","","1244","","j","","","<img src=""media/stimuli/animate_008_left.png"" class=""coveredImage test"" style = ""width:100px; height:100px; position:fixed; top:10%;    transform: translate(-50%, -50%);left:48%""></img><img src=""media/stimuli/inanimate_002_left.png"" class=""coveredImage test"" style = ""width:100px; height:100px;position:fixed; top:25%;        transform: translate(-50%, -50%);left:38%""></img><img src=""media/stimuli/animate_007_left.png"" class=""coveredImage test"" style = ""width:100px; height:100px;position:fixed; top:25%;        transform: translate(-50%, -50%);left:58%""></img><img src=""media/f.png""style = ""width:30px x; height:30px;position:fixed; top:43%;    transform: translate(-50%, -50%);left:40%""></img><img src=""media/j.png""style = ""width:30px; height:30px;position:fixed; top:43%;    transform: translate(-50%, -50%);left:60%""></img>","media/stimuli/animate_008_left.png","animate","left","single","media/stimuli/inanimate_002_left.png","inanimate","left","single","media/stimuli/animate_007_left.png","animate","left","single","animacy_identity","","","",""
"","","","","","html-keyboard-response","68","138314","0.0-68.0","SS1678233315465","5eb02a40b17a8c0868685d32","6406d7f26dd5b7fc1e3377bd","6407ce4e7202a50c26f19b51","1366","625","","703","","j","","","<img src=""media/stimuli/inanimate_011_left.png"" class=""coveredImage test"" style = ""width:100px; height:100px; position:fixed; top:10%;    transform: translate(-50%, -50%);left:48%""></img><img src=""media/stimuli/inanimate_004_left.png"" class=""coveredImage test"" style = ""width:100px; height:100px;position:fixed; top:25%;        transform: translate(-50%, -50%);left:38%""></img><img src=""media/stimuli/inanimate_011_left.png"" class=""coveredImage test"" style = ""width:100px; height:100px;position:fixed; top:25%;        transform: translate(-50%, -50%);left:54.5%""></img><img src=""media/stimuli/inanimate_011_left.png"" class=""coveredImage test"" style = ""width:100px; height:100px;position:fixed; top:25%;        transform: translate(-50%, -50%);left:61.5%""></img><img src=""media/f.png""style = ""width:30px x; height:30px;position:fixed; top:43%;    transform: translate(-50%, -50%);left:40%""></img><img src=""media/j.png""style = ""width:30px; height:30px;position:fixed; top:43%;    transform: translate(-50%, -50%);left:60%""></img>","media/stimuli/inanimate_011_left.png","inanimate","left","single","media/stimuli/inanimate_004_left.png","inanimate","left","single","media/stimuli/inanimate_011_left.png","inanimate","left","pair","identity_number","","","",""
"","","","","","html-keyboard-response","69","139500","0.0-69.0","SS1678233315465","5eb02a40b17a8c0868685d32","6406d7f26dd5b7fc1e3377bd","6407ce4e7202a50c26f19b51","1366","625","","1181","","f","","","<img src=""media/stimuli/animate_008_left.png"" class=""coveredImage test"" style = ""width:100px; height:100px; position:fixed; top:10%;    transform: translate(-50%, -50%);left:48%""></img><img src=""media/stimuli/animate_008_right.png"" class=""coveredImage test"" style = ""width:100px; height:100px;position:fixed; top:25%;        transform: translate(-50%, -50%);left:38%""></img><img src=""media/stimuli/animate_008_left.png"" class=""coveredImage test"" style = ""width:100px; height:100px;position:fixed; top:25%;        transform: translate(-50%, -50%);left:54.5%""></img><img src=""media/stimuli/animate_008_left.png"" class=""coveredImage test"" style = ""width:100px; height:100px;position:fixed; top:25%;        transform: translate(-50%, -50%);left:61.5%""></img><img src=""media/f.png""style = ""width:30px x; height:30px;position:fixed; top:43%;    transform: translate(-50%, -50%);left:40%""></img><img src=""media/j.png""style = ""width:30px; height:30px;position:fixed; top:43%;    transform: translate(-50%, -50%);left:60%""></img>","media/stimuli/animate_008_left.png","animate","left","single","media/stimuli/animate_008_right.png","animate","right","single","media/stimuli/animate_008_left.png","animate","left","pair","pose_number","","","",""
"","","","","","html-keyboard-response","70","140337","0.0-70.0","SS1678233315465","5eb02a40b17a8c0868685d32","6406d7f26dd5b7fc1e3377bd","6407ce4e7202a50c26f19b51","1366","625","","831","","j","","","<img src=""media/stimuli/animate_007_right.png"" class=""coveredImage test"" style = ""width:100px; height:100px; position:fixed; top:10%;    transform: translate(-50%, -50%);left:44.5%""></img><img src=""media/stimuli/animate_007_right.png"" class=""coveredImage test"" style = ""width:100px; height:100px; position:fixed; top:10%;    transform: translate(-50%, -50%);left:51.5%""></img><img src=""media/stimuli/inanimate_012_right.png"" class=""coveredImage test"" style = ""width:100px; height:100px;position:fixed; top:25%;        transform: translate(-50%, -50%);left:34.5%""></img><img src=""media/stimuli/inanimate_012_right.png"" class=""coveredImage test"" style = ""width:100px; height:100px;position:fixed; top:25%;        transform: translate(-50%, -50%);left:41.5%""></img><img src=""media/stimuli/animate_007_right.png"" class=""coveredImage test"" style = ""width:100px; height:100px;position:fixed; top:25%;        transform: translate(-50%, -50%);left:58%""></img><img src=""media/f.png""style = ""width:30px x; height:30px;position:fixed; top:43%;    transform: translate(-50%, -50%);left:40%""></img><img src=""media/j.png""style = ""width:30px; height:30px;position:fixed; top:43%;    transform: translate(-50%, -50%);left:60%""></img>","media/stimuli/animate_007_right.png","animate","right","pair","media/stimuli/inanimate_012_right.png","inanimate","right","pair","media/stimuli/animate_007_right.png","animate","right","single","animacy_number","","","",""
"","","","","","html-keyboard-response","71","141445","0.0-71.0","SS1678233315465","5eb02a40b17a8c0868685d32","6406d7f26dd5b7fc1e3377bd","6407ce4e7202a50c26f19b51","1366","625","","1103","","f","","","<img src=""media/stimuli/inanimate_006_right.png"" class=""coveredImage test"" style = ""width:100px; height:100px; position:fixed; top:10%;    transform: translate(-50%, -50%);left:48%""></img><img src=""media/stimuli/inanimate_006_right.png"" class=""coveredImage test"" style = ""width:100px; height:100px;position:fixed; top:25%;        transform: translate(-50%, -50%);left:34.5%""></img><img src=""media/stimuli/inanimate_006_right.png"" class=""coveredImage test"" style = ""width:100px; height:100px;position:fixed; top:25%;        transform: translate(-50%, -50%);left:41.5%""></img><img src=""media/stimuli/animate_002_right.png"" class=""coveredImage test"" style = ""width:100px; height:100px;position:fixed; top:25%;        transform: translate(-50%, -50%);left:58%""></img><img src=""media/f.png""style = ""width:30px x; height:30px;position:fixed; top:43%;    transform: translate(-50%, -50%);left:40%""></img><img src=""media/j.png""style = ""width:30px; height:30px;position:fixed; top:43%;    transform: translate(-50%, -50%);left:60%""></img>","media/stimuli/inanimate_006_right.png","inanimate","right","single","media/stimuli/inanimate_006_right.png","inanimate","right","pair","media/stimuli/animate_002_right.png","animate","right","single","number_animacy","","","",""
"","","","","","html-keyboard-response","72","142348","0.0-72.0","SS1678233315465","5eb02a40b17a8c0868685d32","6406d7f26dd5b7fc1e3377bd","6407ce4e7202a50c26f19b51","1366","625","","897",""," ","","","","","","","","","","","","","","","","","","","",""
"","","","","","survey-likert","73","146263","0.0-73.0","SS1678233315465","5eb02a40b17a8c0868685d32","6406d7f26dd5b7fc1e3377bd","6407ce4e7202a50c26f19b51","1366","625","","3911","","{""Q0"":2}","[0]","complexity","","","","","","","","","","","","","","","media/stimuli/animate_011_right.png","animate","single","right"
"","","","","","survey-likert","74","148349","0.0-74.0","SS1678233315465","5eb02a40b17a8c0868685d32","6406d7f26dd5b7fc1e3377bd","6407ce4e7202a50c26f19b51","1366","625","","2077","","{""Q0"":2}","[0]","complexity","","","","","","","","","","","","","","","media/stimuli/inanimate_011_left.png","inanimate","pair","left"
"","","","","","survey-likert","75","150753","0.0-75.0","SS1678233315465","5eb02a40b17a8c0868685d32","6406d7f26dd5b7fc1e3377bd","6407ce4e7202a50c26f19b51","1366","625","","2395","","{""Q0"":1}","[0]","complexity","","","","","","","","","","","","","","","media/stimuli/inanimate_011_left.png","inanimate","single","left"
"","","","","","survey-likert","76","152610","0.0-76.0","SS1678233315465","5eb02a40b17a8c0868685d32","6406d7f26dd5b7fc1e3377bd","6407ce4e7202a50c26f19b51","1366","625","","1846","","{""Q0"":1}","[0]","complexity","","","","","","","","","","","","","","","media/stimuli/inanimate_011_right.png","inanimate","single","right"
"","","","","","survey-likert","77","154384","0.0-77.0","SS1678233315465","5eb02a40b17a8c0868685d32","6406d7f26dd5b7fc1e3377bd","6407ce4e7202a50c26f19b51","1366","625","","1763","","{""Q0"":2}","[0]","complexity","","","","","","","","","","","","","","","media/stimuli/inanimate_010_right.png","inanimate","pair","right"
"","","","","","survey-likert","78","156459","0.0-78.0","SS1678233315465","5eb02a40b17a8c0868685d32","6406d7f26dd5b7fc1e3377bd","6407ce4e7202a50c26f19b51","1366","625","","2068","","{""Q0"":1}","[0]","complexity","","","","","","","","","","","","","","","media/stimuli/inanimate_012_right.png","inanimate","single","right"
"","","","","","survey-likert","79","158543","0.0-79.0","SS1678233315465","5eb02a40b17a8c0868685d32","6406d7f26dd5b7fc1e3377bd","6407ce4e7202a50c26f19b51","1366","625","","2074","","{""Q0"":2}","[0]","complexity","","","","","","","","","","","","","","","media/stimuli/animate_003_right.png","animate","pair","right"
"","","","","","survey-likert","80","160225","0.0-80.0","SS1678233315465","5eb02a40b17a8c0868685d32","6406d7f26dd5b7fc1e3377bd","6407ce4e7202a50c26f19b51","1366","625","","1671","","{""Q0"":1}","[0]","complexity","","","","","","","","","","","","","","","media/stimuli/animate_012_left.png","animate","single","left"
"","","","","","survey-likert","81","162765","0.0-81.0","SS1678233315465","5eb02a40b17a8c0868685d32","6406d7f26dd5b7fc1e3377bd","6407ce4e7202a50c26f19b51","1366","625","","2531","","{""Q0"":2}","[0]","complexity","","","","","","","","","","","","","","","media/stimuli/inanimate_009_right.png","inanimate","pair","right"
"","","","","","survey-likert","82","164723","0.0-82.0","SS1678233315465","5eb02a40b17a8c0868685d32","6406d7f26dd5b7fc1e3377bd","6407ce4e7202a50c26f19b51","1366","625","","1948","","{""Q0"":1}","[0]","complexity","","","","","","","","","","","","","","","media/stimuli/inanimate_002_left.png","inanimate","pair","left"
"","","","","","survey-likert","83","166143","0.0-83.0","SS1678233315465","5eb02a40b17a8c0868685d32","6406d7f26dd5b7fc1e3377bd","6407ce4e7202a50c26f19b51","1366","625","","1410","","{""Q0"":2}","[0]","complexity","","","","","","","","","","","","","","","media/stimuli/animate_005_left.png","animate","pair","left"
"","","","","","survey-likert","84","167833","0.0-84.0","SS1678233315465","5eb02a40b17a8c0868685d32","6406d7f26dd5b7fc1e3377bd","6407ce4e7202a50c26f19b51","1366","625","","1679","","{""Q0"":1}","[0]","complexity","","","","","","","","","","","","","","","media/stimuli/inanimate_003_left.png","inanimate","pair","left"
"","","","","","html-keyboard-response","85","169190","0.0-85.0","SS1678233315465","5eb02a40b17a8c0868685d32","6406d7f26dd5b7fc1e3377bd","6407ce4e7202a50c26f19b51","1366","625","","1350",""," ","","","","","","","","","","","","","","","","","","","",""
"","","","","","survey-likert","86","173041","0.0-86.0","SS1678233315465","5eb02a40b17a8c0868685d32","6406d7f26dd5b7fc1e3377bd","6407ce4e7202a50c26f19b51","1366","625","","3846","","{""Q0"":1}","[0]","complexity","","","","","","","","","","","","","","","media/stimuli/inanimate_008_right.png","inanimate","single","right"
"","","","","","survey-likert","87","174799","0.0-87.0","SS1678233315465","5eb02a40b17a8c0868685d32","6406d7f26dd5b7fc1e3377bd","6407ce4e7202a50c26f19b51","1366","625","","1747","","{""Q0"":2}","[0]","complexity","","","","","","","","","","","","","","","media/stimuli/animate_011_right.png","animate","pair","right"
"","","","","","survey-likert","88","176681","0.0-88.0","SS1678233315465","5eb02a40b17a8c0868685d32","6406d7f26dd5b7fc1e3377bd","6407ce4e7202a50c26f19b51","1366","625","","1869","","{""Q0"":1}","[0]","complexity","","","","","","","","","","","","","","","media/stimuli/animate_006_left.png","animate","single","left"
"","","","","","survey-likert","89","178370","0.0-89.0","SS1678233315465","5eb02a40b17a8c0868685d32","6406d7f26dd5b7fc1e3377bd","6407ce4e7202a50c26f19b51","1366","625","","1679","","{""Q0"":1}","[0]","complexity","","","","","","","","","","","","","","","media/stimuli/animate_001_right.png","animate","single","right"
"","","","","","survey-likert","90","180000","0.0-90.0","SS1678233315465","5eb02a40b17a8c0868685d32","6406d7f26dd5b7fc1e3377bd","6407ce4e7202a50c26f19b51","1366","625","","1623","","{""Q0"":1}","[0]","complexity","","","","","","","","","","","","","","","media/stimuli/animate_002_left.png","animate","single","left"
"","","","","","survey-likert","91","182099","0.0-91.0","SS1678233315465","5eb02a40b17a8c0868685d32","6406d7f26dd5b7fc1e3377bd","6407ce4e7202a50c26f19b51","1366","625","","2089","","{""Q0"":1}","[0]","complexity","","","","","","","","","","","","","","","media/stimuli/animate_009_right.png","animate","single","right"
"","","","","","survey-likert","92","183725","0.0-92.0","SS1678233315465","5eb02a40b17a8c0868685d32","6406d7f26dd5b7fc1e3377bd","6407ce4e7202a50c26f19b51","1366","625","","1615","","{""Q0"":1}","[0]","complexity","","","","","","","","","","","","","","","media/stimuli/inanimate_007_left.png","inanimate","single","left"
"","","","","","survey-likert","93","186687","0.0-93.0","SS1678233315465","5eb02a40b17a8c0868685d32","6406d7f26dd5b7fc1e3377bd","6407ce4e7202a50c26f19b51","1366","625","","2953","","{""Q0"":1}","[0]","complexity","","","","","","","","","","","","","","","media/stimuli/animate_010_right.png","animate","single","right"
"","","","","","survey-likert","94","188583","0.0-94.0","SS1678233315465","5eb02a40b17a8c0868685d32","6406d7f26dd5b7fc1e3377bd","6407ce4e7202a50c26f19b51","1366","625","","1887","","{""Q0"":1}","[0]","complexity","","","","","","","","","","","","","","","media/stimuli/animate_004_left.png","animate","single","left"
"","","","","","survey-likert","95","190646","0.0-95.0","SS1678233315465","5eb02a40b17a8c0868685d32","6406d7f26dd5b7fc1e3377bd","6407ce4e7202a50c26f19b51","1366","625","","2052","","{""Q0"":2}","[0]","complexity","","","","","","","","","","","","","","","media/stimuli/animate_006_right.png","animate","pair","right"
"","","","","","survey-likert","96","192731","0.0-96.0","SS1678233315465","5eb02a40b17a8c0868685d32","6406d7f26dd5b7fc1e3377bd","6407ce4e7202a50c26f19b51","1366","625","","2074","","{""Q0"":2}","[0]","complexity","","","","","","","","","","","","","","","media/stimuli/animate_008_left.png","animate","pair","left"
"","","","","","survey-likert","97","196231","0.0-97.0","SS1678233315465","5eb02a40b17a8c0868685d32","6406d7f26dd5b7fc1e3377bd","6407ce4e7202a50c26f19b51","1366","625","","3487","","{""Q0"":1}","[0]","complexity","","","","","","","","","","","","","","","media/stimuli/animate_007_right.png","animate","single","right"
"","","","","","html-keyboard-response","98","197054","0.0-98.0","SS1678233315465","5eb02a40b17a8c0868685d32","6406d7f26dd5b7fc1e3377bd","6407ce4e7202a50c26f19b51","1366","625","","812",""," ","","","","","","","","","","","","","","","","","","","",""
"","","","","","html-keyboard-response","99","199110","0.0-99.0","SS1678233315465","5eb02a40b17a8c0868685d32","6406d7f26dd5b7fc1e3377bd","6407ce4e7202a50c26f19b51","1366","625","","2051","","f","","","<img src=""media/stimuli/inanimate_002_right.png"" class=""coveredImage test"" style = ""width:100px; height:100px; position:fixed; top:10%;    transform: translate(-50%, -50%);left:48%""></img><img src=""media/stimuli/inanimate_010_right.png"" class=""coveredImage test"" style = ""width:100px; height:100px;position:fixed; top:25%;        transform: translate(-50%, -50%);left:38%""></img><img src=""media/stimuli/animate_011_right.png"" class=""coveredImage test"" style = ""width:100px; height:100px;position:fixed; top:25%;        transform: translate(-50%, -50%);left:58%""></img><img src=""media/f.png""style = ""width:30px x; height:30px;position:fixed; top:43%;    transform: translate(-50%, -50%);left:40%""></img><img src=""media/j.png""style = ""width:30px; height:30px;position:fixed; top:43%;    transform: translate(-50%, -50%);left:60%""></img>","media/stimuli/inanimate_002_right.png","inanimate","right","single","media/stimuli/inanimate_010_right.png","inanimate","right","single","media/stimuli/animate_011_right.png","animate","right","single","identity_animacy","","","",""
"","","","","","html-keyboard-response","100","199827","0.0-100.0","SS1678233315465","5eb02a40b17a8c0868685d32","6406d7f26dd5b7fc1e3377bd","6407ce4e7202a50c26f19b51","1366","625","","709","","j","","","<img src=""media/stimuli/inanimate_011_left.png"" class=""coveredImage test"" style = ""width:100px; height:100px; position:fixed; top:10%;    transform: translate(-50%, -50%);left:48%""></img><img src=""media/stimuli/inanimate_001_left.png"" class=""coveredImage test"" style = ""width:100px; height:100px;position:fixed; top:25%;        transform: translate(-50%, -50%);left:38%""></img><img src=""media/stimuli/inanimate_011_left.png"" class=""coveredImage test"" style = ""width:100px; height:100px;position:fixed; top:25%;        transform: translate(-50%, -50%);left:54.5%""></img><img src=""media/stimuli/inanimate_011_left.png"" class=""coveredImage test"" style = ""width:100px; height:100px;position:fixed; top:25%;        transform: translate(-50%, -50%);left:61.5%""></img><img src=""media/f.png""style = ""width:30px x; height:30px;position:fixed; top:43%;    transform: translate(-50%, -50%);left:40%""></img><img src=""media/j.png""style = ""width:30px; height:30px;position:fixed; top:43%;    transform: translate(-50%, -50%);left:60%""></img>","media/stimuli/inanimate_011_left.png","inanimate","left","single","media/stimuli/inanimate_001_left.png","inanimate","left","single","media/stimuli/inanimate_011_left.png","inanimate","left","pair","identity_number","","","",""
"","","","","","html-keyboard-response","101","200472","0.0-101.0","SS1678233315465","5eb02a40b17a8c0868685d32","6406d7f26dd5b7fc1e3377bd","6407ce4e7202a50c26f19b51","1366","625","","638","","j","","","<img src=""media/stimuli/animate_007_right.png"" class=""coveredImage test"" style = ""width:100px; height:100px; position:fixed; top:10%;    transform: translate(-50%, -50%);left:48%""></img><img src=""media/stimuli/animate_004_right.png"" class=""coveredImage test"" style = ""width:100px; height:100px;position:fixed; top:25%;        transform: translate(-50%, -50%);left:38%""></img><img src=""media/stimuli/animate_007_right.png"" class=""coveredImage test"" style = ""width:100px; height:100px;position:fixed; top:25%;        transform: translate(-50%, -50%);left:58%""></img><img src=""media/f.png""style = ""width:30px x; height:30px;position:fixed; top:43%;    transform: translate(-50%, -50%);left:40%""></img><img src=""media/j.png""style = ""width:30px; height:30px;position:fixed; top:43%;    transform: translate(-50%, -50%);left:60%""></img>","media/stimuli/animate_007_right.png","animate","right","single","media/stimuli/animate_004_right.png","animate","right","single","media/stimuli/animate_007_right.png","animate","right","single","identity_filler","","","",""
"","","","","","html-keyboard-response","102","201121","0.0-102.0","SS1678233315465","5eb02a40b17a8c0868685d32","6406d7f26dd5b7fc1e3377bd","6407ce4e7202a50c26f19b51","1366","625","","643","","f","","","<img src=""media/stimuli/inanimate_007_left.png"" class=""coveredImage test"" style = ""width:100px; height:100px; position:fixed; top:10%;    transform: translate(-50%, -50%);left:48%""></img><img src=""media/stimuli/inanimate_007_right.png"" class=""coveredImage test"" style = ""width:100px; height:100px;position:fixed; top:25%;        transform: translate(-50%, -50%);left:38%""></img><img src=""media/stimuli/inanimate_012_left.png"" class=""coveredImage test"" style = ""width:100px; height:100px;position:fixed; top:25%;        transform: translate(-50%, -50%);left:58%""></img><img src=""media/f.png""style = ""width:30px x; height:30px;position:fixed; top:43%;    transform: translate(-50%, -50%);left:40%""></img><img src=""media/j.png""style = ""width:30px; height:30px;position:fixed; top:43%;    transform: translate(-50%, -50%);left:60%""></img>","media/stimuli/inanimate_007_left.png","inanimate","left","single","media/stimuli/inanimate_007_right.png","inanimate","right","single","media/stimuli/inanimate_012_left.png","inanimate","left","single","pose_identity","","","",""
"","","","","","html-keyboard-response","103","202115","0.0-103.0","SS1678233315465","5eb02a40b17a8c0868685d32","6406d7f26dd5b7fc1e3377bd","6407ce4e7202a50c26f19b51","1366","625","","988","","f","","","<img src=""media/stimuli/inanimate_002_right.png"" class=""coveredImage test"" style = ""width:100px; height:100px; position:fixed; top:10%;    transform: translate(-50%, -50%);left:48%""></img><img src=""media/stimuli/inanimate_002_right.png"" class=""coveredImage test"" style = ""width:100px; height:100px;position:fixed; top:25%;        transform: translate(-50%, -50%);left:34.5%""></img><img src=""media/stimuli/inanimate_002_right.png"" class=""coveredImage test"" style = ""width:100px; height:100px;position:fixed; top:25%;        transform: translate(-50%, -50%);left:41.5%""></img><img src=""media/stimuli/inanimate_012_right.png"" class=""coveredImage test"" style = ""width:100px; height:100px;position:fixed; top:25%;        transform: translate(-50%, -50%);left:58%""></img><img src=""media/f.png""style = ""width:30px x; height:30px;position:fixed; top:43%;    transform: translate(-50%, -50%);left:40%""></img><img src=""media/j.png""style = ""width:30px; height:30px;position:fixed; top:43%;    transform: translate(-50%, -50%);left:60%""></img>","media/stimuli/inanimate_002_right.png","inanimate","right","single","media/stimuli/inanimate_002_right.png","inanimate","right","pair","media/stimuli/inanimate_012_right.png","inanimate","right","single","number_identity","","","",""
"","","","","","html-keyboard-response","104","202685","0.0-104.0","SS1678233315465","5eb02a40b17a8c0868685d32","6406d7f26dd5b7fc1e3377bd","6407ce4e7202a50c26f19b51","1366","625","","564","","j","","","<img src=""media/stimuli/animate_005_left.png"" class=""coveredImage test"" style = ""width:100px; height:100px; position:fixed; top:10%;    transform: translate(-50%, -50%);left:48%""></img><img src=""media/stimuli/inanimate_009_left.png"" class=""coveredImage test"" style = ""width:100px; height:100px;position:fixed; top:25%;        transform: translate(-50%, -50%);left:38%""></img><img src=""media/stimuli/animate_005_left.png"" class=""coveredImage test"" style = ""width:100px; height:100px;position:fixed; top:25%;        transform: translate(-50%, -50%);left:54.5%""></img><img src=""media/stimuli/animate_005_left.png"" class=""coveredImage test"" style = ""width:100px; height:100px;position:fixed; top:25%;        transform: translate(-50%, -50%);left:61.5%""></img><img src=""media/f.png""style = ""width:30px x; height:30px;position:fixed; top:43%;    transform: translate(-50%, -50%);left:40%""></img><img src=""media/j.png""style = ""width:30px; height:30px;position:fixed; top:43%;    transform: translate(-50%, -50%);left:60%""></img>","media/stimuli/animate_005_left.png","animate","left","single","media/stimuli/inanimate_009_left.png","inanimate","left","single","media/stimuli/animate_005_left.png","animate","left","pair","animacy_number","","","",""
"","","","","","html-keyboard-response","105","204288","0.0-105.0","SS1678233315465","5eb02a40b17a8c0868685d32","6406d7f26dd5b7fc1e3377bd","6407ce4e7202a50c26f19b51","1366","625","","1596","","j","","","<img src=""media/stimuli/animate_011_right.png"" class=""coveredImage test"" style = ""width:100px; height:100px; position:fixed; top:10%;    transform: translate(-50%, -50%);left:44.5%""></img><img src=""media/stimuli/animate_011_right.png"" class=""coveredImage test"" style = ""width:100px; height:100px; position:fixed; top:10%;    transform: translate(-50%, -50%);left:51.5%""></img><img src=""media/stimuli/animate_007_right.png"" class=""coveredImage test"" style = ""width:100px; height:100px;position:fixed; top:25%;        transform: translate(-50%, -50%);left:34.5%""></img><img src=""media/stimuli/animate_007_right.png"" class=""coveredImage test"" style = ""width:100px; height:100px;position:fixed; top:25%;        transform: translate(-50%, -50%);left:41.5%""></img><img src=""media/stimuli/inanimate_005_right.png"" class=""coveredImage test"" style = ""width:100px; height:100px;position:fixed; top:25%;        transform: translate(-50%, -50%);left:54.5%""></img><img src=""media/stimuli/inanimate_005_right.png"" class=""coveredImage test"" style = ""width:100px; height:100px;position:fixed; top:25%;        transform: translate(-50%, -50%);left:61.5%""></img><img src=""media/f.png""style = ""width:30px x; height:30px;position:fixed; top:43%;    transform: translate(-50%, -50%);left:40%""></img><img src=""media/j.png""style = ""width:30px; height:30px;position:fixed; top:43%;    transform: translate(-50%, -50%);left:60%""></img>","media/stimuli/animate_011_right.png","animate","right","pair","media/stimuli/animate_007_right.png","animate","right","pair","media/stimuli/inanimate_005_right.png","inanimate","right","pair","identity_animacy","","","",""
"","","","","","html-keyboard-response","106","205529","0.0-106.0","SS1678233315465","5eb02a40b17a8c0868685d32","6406d7f26dd5b7fc1e3377bd","6407ce4e7202a50c26f19b51","1366","625","","1234","","j","","","<img src=""media/stimuli/inanimate_009_left.png"" class=""coveredImage test"" style = ""width:100px; height:100px; position:fixed; top:10%;    transform: translate(-50%, -50%);left:44.5%""></img><img src=""media/stimuli/inanimate_009_left.png"" class=""coveredImage test"" style = ""width:100px; height:100px; position:fixed; top:10%;    transform: translate(-50%, -50%);left:51.5%""></img><img src=""media/stimuli/inanimate_009_left.png"" class=""coveredImage test"" style = ""width:100px; height:100px;position:fixed; top:25%;        transform: translate(-50%, -50%);left:38%""></img><img src=""media/stimuli/inanimate_009_right.png"" class=""coveredImage test"" style = ""width:100px; height:100px;position:fixed; top:25%;        transform: translate(-50%, -50%);left:54.5%""></img><img src=""media/stimuli/inanimate_009_right.png"" class=""coveredImage test"" style = ""width:100px; height:100px;position:fixed; top:25%;        transform: translate(-50%, -50%);left:61.5%""></img><img src=""media/f.png""style = ""width:30px x; height:30px;position:fixed; top:43%;    transform: translate(-50%, -50%);left:40%""></img><img src=""media/j.png""style = ""width:30px; height:30px;position:fixed; top:43%;    transform: translate(-50%, -50%);left:60%""></img>","media/stimuli/inanimate_009_left.png","inanimate","left","pair","media/stimuli/inanimate_009_left.png","inanimate","left","single","media/stimuli/inanimate_009_right.png","inanimate","right","pair","number_pose","","","",""
"","","","","","html-keyboard-response","107","206282","0.0-107.0","SS1678233315465","5eb02a40b17a8c0868685d32","6406d7f26dd5b7fc1e3377bd","6407ce4e7202a50c26f19b51","1366","625","","747","","j","","","<img src=""media/stimuli/animate_001_right.png"" class=""coveredImage test"" style = ""width:100px; height:100px; position:fixed; top:10%;    transform: translate(-50%, -50%);left:48%""></img><img src=""media/stimuli/inanimate_001_right.png"" class=""coveredImage test"" style = ""width:100px; height:100px;position:fixed; top:25%;        transform: translate(-50%, -50%);left:38%""></img><img src=""media/stimuli/animate_003_right.png"" class=""coveredImage test"" style = ""width:100px; height:100px;position:fixed; top:25%;        transform: translate(-50%, -50%);left:58%""></img><img src=""media/f.png""style = ""width:30px x; height:30px;position:fixed; top:43%;    transform: translate(-50%, -50%);left:40%""></img><img src=""media/j.png""style = ""width:30px; height:30px;position:fixed; top:43%;    transform: translate(-50%, -50%);left:60%""></img>","media/stimuli/animate_001_right.png","animate","right","single","media/stimuli/inanimate_001_right.png","inanimate","right","single","media/stimuli/animate_003_right.png","animate","right","single","animacy_identity","","","",""
"","","","","","html-keyboard-response","108","207133","0.0-108.0","SS1678233315465","5eb02a40b17a8c0868685d32","6406d7f26dd5b7fc1e3377bd","6407ce4e7202a50c26f19b51","1366","625","","844","","f","","","<img src=""media/stimuli/animate_002_left.png"" class=""coveredImage test"" style = ""width:100px; height:100px; position:fixed; top:10%;    transform: translate(-50%, -50%);left:48%""></img><img src=""media/stimuli/animate_009_left.png"" class=""coveredImage test"" style = ""width:100px; height:100px;position:fixed; top:25%;        transform: translate(-50%, -50%);left:38%""></img><img src=""media/stimuli/inanimate_012_left.png"" class=""coveredImage test"" style = ""width:100px; height:100px;position:fixed; top:25%;        transform: translate(-50%, -50%);left:58%""></img><img src=""media/f.png""style = ""width:30px x; height:30px;position:fixed; top:43%;    transform: translate(-50%, -50%);left:40%""></img><img src=""media/j.png""style = ""width:30px; height:30px;position:fixed; top:43%;    transform: translate(-50%, -50%);left:60%""></img>","media/stimuli/animate_002_left.png","animate","left","single","media/stimuli/animate_009_left.png","animate","left","single","media/stimuli/inanimate_012_left.png","inanimate","left","single","identity_animacy","","","",""
"","","","","","html-keyboard-response","109","207915","0.0-109.0","SS1678233315465","5eb02a40b17a8c0868685d32","6406d7f26dd5b7fc1e3377bd","6407ce4e7202a50c26f19b51","1366","625","","776","","j","","","<img src=""media/stimuli/animate_011_right.png"" class=""coveredImage test"" style = ""width:100px; height:100px; position:fixed; top:10%;    transform: translate(-50%, -50%);left:48%""></img><img src=""media/stimuli/animate_008_right.png"" class=""coveredImage test"" style = ""width:100px; height:100px;position:fixed; top:25%;        transform: translate(-50%, -50%);left:38%""></img><img src=""media/stimuli/animate_011_right.png"" class=""coveredImage test"" style = ""width:100px; height:100px;position:fixed; top:25%;        transform: translate(-50%, -50%);left:54.5%""></img><img src=""media/stimuli/animate_011_right.png"" class=""coveredImage test"" style = ""width:100px; height:100px;position:fixed; top:25%;        transform: translate(-50%, -50%);left:61.5%""></img><img src=""media/f.png""style = ""width:30px x; height:30px;position:fixed; top:43%;    transform: translate(-50%, -50%);left:40%""></img><img src=""media/j.png""style = ""width:30px; height:30px;position:fixed; top:43%;    transform: translate(-50%, -50%);left:60%""></img>","media/stimuli/animate_011_right.png","animate","right","single","media/stimuli/animate_008_right.png","animate","right","single","media/stimuli/animate_011_right.png","animate","right","pair","identity_number","","","",""
"","","","","","html-keyboard-response","110","209403","0.0-110.0","SS1678233315465","5eb02a40b17a8c0868685d32","6406d7f26dd5b7fc1e3377bd","6407ce4e7202a50c26f19b51","1366","625","","1482","","f","","","<img src=""media/stimuli/inanimate_001_right.png"" class=""coveredImage test"" style = ""width:100px; height:100px; position:fixed; top:10%;    transform: translate(-50%, -50%);left:48%""></img><img src=""media/stimuli/inanimate_001_left.png"" class=""coveredImage test"" style = ""width:100px; height:100px;position:fixed; top:25%;        transform: translate(-50%, -50%);left:38%""></img><img src=""media/stimuli/inanimate_004_right.png"" class=""coveredImage test"" style = ""width:100px; height:100px;position:fixed; top:25%;        transform: translate(-50%, -50%);left:58%""></img><img src=""media/f.png""style = ""width:30px x; height:30px;position:fixed; top:43%;    transform: translate(-50%, -50%);left:40%""></img><img src=""media/j.png""style = ""width:30px; height:30px;position:fixed; top:43%;    transform: translate(-50%, -50%);left:60%""></img>","media/stimuli/inanimate_001_right.png","inanimate","right","single","media/stimuli/inanimate_001_left.png","inanimate","left","single","media/stimuli/inanimate_004_right.png","inanimate","right","single","pose_identity","","","",""
"","","","","","html-keyboard-response","111","210252","0.0-111.0","SS1678233315465","5eb02a40b17a8c0868685d32","6406d7f26dd5b7fc1e3377bd","6407ce4e7202a50c26f19b51","1366","625","","843",""," ","","","","","","","","","","","","","","","","","","","",""
"","","","","","html-keyboard-response","112","212227","0.0-112.0","SS1678233315465","5eb02a40b17a8c0868685d32","6406d7f26dd5b7fc1e3377bd","6407ce4e7202a50c26f19b51","1366","625","","1968","","j","","","<img src=""media/stimuli/inanimate_001_left.png"" class=""coveredImage test"" style = ""width:100px; height:100px; position:fixed; top:10%;    transform: translate(-50%, -50%);left:48%""></img><img src=""media/stimuli/animate_009_left.png"" class=""coveredImage test"" style = ""width:100px; height:100px;position:fixed; top:25%;        transform: translate(-50%, -50%);left:38%""></img><img src=""media/stimuli/inanimate_001_left.png"" class=""coveredImage test"" style = ""width:100px; height:100px;position:fixed; top:25%;        transform: translate(-50%, -50%);left:54.5%""></img><img src=""media/stimuli/inanimate_001_left.png"" class=""coveredImage test"" style = ""width:100px; height:100px;position:fixed; top:25%;        transform: translate(-50%, -50%);left:61.5%""></img><img src=""media/f.png""style = ""width:30px x; height:30px;position:fixed; top:43%;    transform: translate(-50%, -50%);left:40%""></img><img src=""media/j.png""style = ""width:30px; height:30px;position:fixed; top:43%;    transform: translate(-50%, -50%);left:60%""></img>","media/stimuli/inanimate_001_left.png","inanimate","left","single","media/stimuli/animate_009_left.png","animate","left","single","media/stimuli/inanimate_001_left.png","inanimate","left","pair","animacy_number","","","",""
"","","","","","html-keyboard-response","113","213058","0.0-113.0","SS1678233315465","5eb02a40b17a8c0868685d32","6406d7f26dd5b7fc1e3377bd","6407ce4e7202a50c26f19b51","1366","625","","823","","j","","","<img src=""media/stimuli/animate_012_right.png"" class=""coveredImage test"" style = ""width:100px; height:100px; position:fixed; top:10%;    transform: translate(-50%, -50%);left:48%""></img><img src=""media/stimuli/inanimate_003_left.png"" class=""coveredImage test"" style = ""width:100px; height:100px;position:fixed; top:25%;        transform: translate(-50%, -50%);left:38%""></img><img src=""media/stimuli/animate_012_right.png"" class=""coveredImage test"" style = ""width:100px; height:100px;position:fixed; top:25%;        transform: translate(-50%, -50%);left:58%""></img><img src=""media/f.png""style = ""width:30px x; height:30px;position:fixed; top:43%;    transform: translate(-50%, -50%);left:40%""></img><img src=""media/j.png""style = ""width:30px; height:30px;position:fixed; top:43%;    transform: translate(-50%, -50%);left:60%""></img>","media/stimuli/animate_012_right.png","animate","right","single","media/stimuli/inanimate_003_left.png","inanimate","left","single","media/stimuli/animate_012_right.png","animate","right","single","animacy_pose","","","",""
"","","","","","html-keyboard-response","114","214154","0.0-114.0","SS1678233315465","5eb02a40b17a8c0868685d32","6406d7f26dd5b7fc1e3377bd","6407ce4e7202a50c26f19b51","1366","625","","1089","","f","","","<img src=""media/stimuli/animate_010_left.png"" class=""coveredImage test"" style = ""width:100px; height:100px; position:fixed; top:10%;    transform: translate(-50%, -50%);left:44.5%""></img><img src=""media/stimuli/animate_010_left.png"" class=""coveredImage test"" style = ""width:100px; height:100px; position:fixed; top:10%;    transform: translate(-50%, -50%);left:51.5%""></img><img src=""media/stimuli/animate_010_left.png"" class=""coveredImage test"" style = ""width:100px; height:100px;position:fixed; top:25%;        transform: translate(-50%, -50%);left:38%""></img><img src=""media/stimuli/animate_012_left.png"" class=""coveredImage test"" style = ""width:100px; height:100px;position:fixed; top:25%;        transform: translate(-50%, -50%);left:54.5%""></img><img src=""media/stimuli/animate_012_left.png"" class=""coveredImage test"" style = ""width:100px; height:100px;position:fixed; top:25%;        transform: translate(-50%, -50%);left:61.5%""></img><img src=""media/f.png""style = ""width:30px x; height:30px;position:fixed; top:43%;    transform: translate(-50%, -50%);left:40%""></img><img src=""media/j.png""style = ""width:30px; height:30px;position:fixed; top:43%;    transform: translate(-50%, -50%);left:60%""></img>","media/stimuli/animate_010_left.png","animate","left","pair","media/stimuli/animate_010_left.png","animate","left","single","media/stimuli/animate_012_left.png","animate","left","pair","number_identity","","","",""
"","","","","","html-keyboard-response","115","214841","0.0-115.0","SS1678233315465","5eb02a40b17a8c0868685d32","6406d7f26dd5b7fc1e3377bd","6407ce4e7202a50c26f19b51","1366","625","","678","","f","","","<img src=""media/stimuli/animate_002_right.png"" class=""coveredImage test"" style = ""width:100px; height:100px; position:fixed; top:10%;    transform: translate(-50%, -50%);left:48%""></img><img src=""media/stimuli/animate_002_left.png"" class=""coveredImage test"" style = ""width:100px; height:100px;position:fixed; top:25%;        transform: translate(-50%, -50%);left:34.5%""></img><img src=""media/stimuli/animate_002_left.png"" class=""coveredImage test"" style = ""width:100px; height:100px;position:fixed; top:25%;        transform: translate(-50%, -50%);left:41.5%""></img><img src=""media/stimuli/inanimate_005_right.png"" class=""coveredImage test"" style = ""width:100px; height:100px;position:fixed; top:25%;        transform: translate(-50%, -50%);left:54.5%""></img><img src=""media/stimuli/inanimate_005_right.png"" class=""coveredImage test"" style = ""width:100px; height:100px;position:fixed; top:25%;        transform: translate(-50%, -50%);left:61.5%""></img><img src=""media/f.png""style = ""width:30px x; height:30px;position:fixed; top:43%;    transform: translate(-50%, -50%);left:40%""></img><img src=""media/j.png""style = ""width:30px; height:30px;position:fixed; top:43%;    transform: translate(-50%, -50%);left:60%""></img>","media/stimuli/animate_002_right.png","animate","right","single","media/stimuli/animate_002_left.png","animate","left","pair","media/stimuli/inanimate_005_right.png","inanimate","right","pair","pose_animacy","","","",""
