"success","timeout","failed_images","failed_audio","failed_video","trial_type","trial_index","time_elapsed","internal_node_id","subject","prolific_id","study","session","window_width","window_height","view_history","rt","stimulus_type","response","question_order","rating_type","rating_stimulus","rating_animacy","rating_number","rating_pose","stimulus","target","target_animacy","target_pose","target_number","left","left_animacy","left_pose","left_number","right","right_animacy","right_pose","right_number","comparison_type"
"true","false","[]","[]","[]","preload","0","2896","0.0-0.0","SS1678233175240","62bdc30224534809032cf056","6406d7f26dd5b7fc1e3377bd","6407ce532e2694c0e6a115c8","2560","1297","","","","","","","","","","","","","","","","","","","","","","","",""
"","","","","","instructions","1","5909","0.0-1.0","SS1678233175240","62bdc30224534809032cf056","6406d7f26dd5b7fc1e3377bd","6407ce532e2694c0e6a115c8","2560","1297","[{""page_index"":0,""viewing_time"":3011}]","3011","","","","","","","","","","","","","","","","","","","","","",""
"","","","","","instructions","2","50729","0.0-2.0","SS1678233175240","62bdc30224534809032cf056","6406d7f26dd5b7fc1e3377bd","6407ce532e2694c0e6a115c8","2560","1297","[{""page_index"":0,""viewing_time"":42803}]","42803","instructions","","","","","","","","","","","","","","","","","","","","",""
"","","","","","instructions","3","54083","0.0-3.0","SS1678233175240","62bdc30224534809032cf056","6406d7f26dd5b7fc1e3377bd","6407ce532e2694c0e6a115c8","2560","1297","[{""page_index"":0,""viewing_time"":3353}]","3353","instructions","","","","","","","","","","","","","","","","","","","","",""
"","","","","","survey-likert","4","65549","0.0-4.0","SS1678233175240","62bdc30224534809032cf056","6406d7f26dd5b7fc1e3377bd","6407ce532e2694c0e6a115c8","2560","1297","","11465","","{""Q0"":5}","[0]","anchoring","","","","","","","","","","","","","","","","","",""
"","","","","","survey-likert","5","69271","0.0-5.0","SS1678233175240","62bdc30224534809032cf056","6406d7f26dd5b7fc1e3377bd","6407ce532e2694c0e6a115c8","2560","1297","","3720","","{""Q0"":1}","[0]","anchoring","","","","","","","","","","","","","","","","","",""
"","","","","","instructions","6","70907","0.0-6.0","SS1678233175240","62bdc30224534809032cf056","6406d7f26dd5b7fc1e3377bd","6407ce532e2694c0e6a115c8","2560","1297","[{""page_index"":0,""viewing_time"":1634}]","1634","instructions","","","","","","","","","","","","","","","","","","","","",""
"true","","","","","fullscreen","7","72728","0.0-7.0","SS1678233175240","62bdc30224534809032cf056","6406d7f26dd5b7fc1e3377bd","6407ce532e2694c0e6a115c8","2560","1297","","","","","","","","","","","","","","","","","","","","","","","",""
"","","","","","survey-likert","8","78169","0.0-8.0","SS1678233175240","62bdc30224534809032cf056","6406d7f26dd5b7fc1e3377bd","6407ce532e2694c0e6a115c8","2560","1297","","5440","","{""Q0"":2}","[0]","complexity","media/stimuli/inanimate_003_right.png","inanimate","pair","right","","","","","","","","","","","","","",""
"","","","","","survey-likert","9","82971","0.0-9.0","SS1678233175240","62bdc30224534809032cf056","6406d7f26dd5b7fc1e3377bd","6407ce532e2694c0e6a115c8","2560","1297","","4800","","{""Q0"":5}","[0]","complexity","media/stimuli/animate_009_left.png","animate","pair","left","","","","","","","","","","","","","",""
"","","","","","survey-likert","10","88211","0.0-10.0","SS1678233175240","62bdc30224534809032cf056","6406d7f26dd5b7fc1e3377bd","6407ce532e2694c0e6a115c8","2560","1297","","5238","","{""Q0"":2}","[0]","complexity","media/stimuli/inanimate_002_right.png","inanimate","pair","right","","","","","","","","","","","","","",""
"","","","","","survey-likert","11","93725","0.0-11.0","SS1678233175240","62bdc30224534809032cf056","6406d7f26dd5b7fc1e3377bd","6407ce532e2694c0e6a115c8","2560","1297","","5512","","{""Q0"":5}","[0]","complexity","media/stimuli/inanimate_010_right.png","inanimate","single","right","","","","","","","","","","","","","",""
"","","","","","survey-likert","12","98335","0.0-12.0","SS1678233175240","62bdc30224534809032cf056","6406d7f26dd5b7fc1e3377bd","6407ce532e2694c0e6a115c8","2560","1297","","4608","","{""Q0"":5}","[0]","complexity","media/stimuli/animate_010_left.png","animate","pair","left","","","","","","","","","","","","","",""
"","","","","","survey-likert","13","104047","0.0-13.0","SS1678233175240","62bdc30224534809032cf056","6406d7f26dd5b7fc1e3377bd","6407ce532e2694c0e6a115c8","2560","1297","","5710","","{""Q0"":2}","[0]","complexity","media/stimuli/animate_002_right.png","animate","single","right","","","","","","","","","","","","","",""
"","","","","","survey-likert","14","109191","0.0-14.0","SS1678233175240","62bdc30224534809032cf056","6406d7f26dd5b7fc1e3377bd","6407ce532e2694c0e6a115c8","2560","1297","","5141","","{""Q0"":2}","[0]","complexity","media/stimuli/animate_012_right.png","animate","single","right","","","","","","","","","","","","","",""
"","","","","","survey-likert","15","114025","0.0-15.0","SS1678233175240","62bdc30224534809032cf056","6406d7f26dd5b7fc1e3377bd","6407ce532e2694c0e6a115c8","2560","1297","","4832","","{""Q0"":1}","[0]","complexity","media/stimuli/inanimate_012_left.png","inanimate","pair","left","","","","","","","","","","","","","",""
"","","","","","survey-likert","16","122641","0.0-16.0","SS1678233175240","62bdc30224534809032cf056","6406d7f26dd5b7fc1e3377bd","6407ce532e2694c0e6a115c8","2560","1297","","8614","","{""Q0"":2}","[0]","complexity","media/stimuli/inanimate_007_left.png","inanimate","pair","left","","","","","","","","","","","","","",""
"","","","","","survey-likert","17","127210","0.0-17.0","SS1678233175240","62bdc30224534809032cf056","6406d7f26dd5b7fc1e3377bd","6407ce532e2694c0e6a115c8","2560","1297","","4566","","{""Q0"":4}","[0]","complexity","media/stimuli/animate_011_left.png","animate","single","left","","","","","","","","","","","","","",""
"","","","","","survey-likert","18","131468","0.0-18.0","SS1678233175240","62bdc30224534809032cf056","6406d7f26dd5b7fc1e3377bd","6407ce532e2694c0e6a115c8","2560","1297","","4256","","{""Q0"":4}","[0]","complexity","media/stimuli/animate_008_left.png","animate","single","left","","","","","","","","","","","","","",""
"","","","","","survey-likert","19","135018","0.0-19.0","SS1678233175240","62bdc30224534809032cf056","6406d7f26dd5b7fc1e3377bd","6407ce532e2694c0e6a115c8","2560","1297","","3548","","{""Q0"":5}","[0]","complexity","media/stimuli/animate_012_right.png","animate","pair","right","","","","","","","","","","","","","",""
"","","","","","html-keyboard-response","20","137174","0.0-20.0","SS1678233175240","62bdc30224534809032cf056","6406d7f26dd5b7fc1e3377bd","6407ce532e2694c0e6a115c8","2560","1297","","2154","","d","","","","","","","","","","","","","","","","","","","",""
"","","","","","survey-likert","21","143366","0.0-21.0","SS1678233175240","62bdc30224534809032cf056","6406d7f26dd5b7fc1e3377bd","6407ce532e2694c0e6a115c8","2560","1297","","6191","","{""Q0"":2}","[0]","complexity","media/stimuli/animate_008_right.png","animate","single","right","","","","","","","","","","","","","",""
"","","","","","survey-likert","22","147710","0.0-22.0","SS1678233175240","62bdc30224534809032cf056","6406d7f26dd5b7fc1e3377bd","6407ce532e2694c0e6a115c8","2560","1297","","4342","","{""Q0"":4}","[0]","complexity","media/stimuli/animate_004_left.png","animate","pair","left","","","","","","","","","","","","","",""
"","","","","","survey-likert","23","152274","0.0-23.0","SS1678233175240","62bdc30224534809032cf056","6406d7f26dd5b7fc1e3377bd","6407ce532e2694c0e6a115c8","2560","1297","","4561","","{""Q0"":5}","[0]","complexity","media/stimuli/animate_002_right.png","animate","pair","right","","","","","","","","","","","","","",""
"","","","","","survey-likert","24","155530","0.0-24.0","SS1678233175240","62bdc30224534809032cf056","6406d7f26dd5b7fc1e3377bd","6407ce532e2694c0e6a115c8","2560","1297","","3254","","{""Q0"":1}","[0]","complexity","media/stimuli/inanimate_006_left.png","inanimate","single","left","","","","","","","","","","","","","",""
"","","","","","survey-likert","25","159220","0.0-25.0","SS1678233175240","62bdc30224534809032cf056","6406d7f26dd5b7fc1e3377bd","6407ce532e2694c0e6a115c8","2560","1297","","3688","","{""Q0"":2}","[0]","complexity","media/stimuli/animate_001_right.png","animate","single","right","","","","","","","","","","","","","",""
"","","","","","survey-likert","26","163916","0.0-26.0","SS1678233175240","62bdc30224534809032cf056","6406d7f26dd5b7fc1e3377bd","6407ce532e2694c0e6a115c8","2560","1297","","4694","","{""Q0"":4}","[0]","complexity","media/stimuli/animate_007_right.png","animate","pair","right","","","","","","","","","","","","","",""
"","","","","","survey-likert","27","169274","0.0-27.0","SS1678233175240","62bdc30224534809032cf056","6406d7f26dd5b7fc1e3377bd","6407ce532e2694c0e6a115c8","2560","1297","","5356","","{""Q0"":4}","[0]","complexity","media/stimuli/animate_001_left.png","animate","pair","left","","","","","","","","","","","","","",""
"","","","","","survey-likert","28","172424","0.0-28.0","SS1678233175240","62bdc30224534809032cf056","6406d7f26dd5b7fc1e3377bd","6407ce532e2694c0e6a115c8","2560","1297","","3148","","{""Q0"":1}","[0]","complexity","media/stimuli/inanimate_005_right.png","inanimate","pair","right","","","","","","","","","","","","","",""
"","","","","","survey-likert","29","175380","0.0-29.0","SS1678233175240","62bdc30224534809032cf056","6406d7f26dd5b7fc1e3377bd","6407ce532e2694c0e6a115c8","2560","1297","","2954","","{""Q0"":0}","[0]","complexity","media/stimuli/inanimate_002_right.png","inanimate","single","right","","","","","","","","","","","","","",""
"","","","","","survey-likert","30","177910","0.0-30.0","SS1678233175240","62bdc30224534809032cf056","6406d7f26dd5b7fc1e3377bd","6407ce532e2694c0e6a115c8","2560","1297","","2528","","{""Q0"":0}","[0]","complexity","media/stimuli/inanimate_007_right.png","inanimate","single","right","","","","","","","","","","","","","",""
"","","","","","survey-likert","31","181392","0.0-31.0","SS1678233175240","62bdc30224534809032cf056","6406d7f26dd5b7fc1e3377bd","6407ce532e2694c0e6a115c8","2560","1297","","3480","","{""Q0"":1}","[0]","complexity","media/stimuli/inanimate_004_left.png","inanimate","single","left","","","","","","","","","","","","","",""
"","","","","","survey-likert","32","185972","0.0-32.0","SS1678233175240","62bdc30224534809032cf056","6406d7f26dd5b7fc1e3377bd","6407ce532e2694c0e6a115c8","2560","1297","","4578","","{""Q0"":2}","[0]","complexity","media/stimuli/animate_007_left.png","animate","pair","left","","","","","","","","","","","","","",""
"","","","","","html-keyboard-response","33","187213","0.0-33.0","SS1678233175240","62bdc30224534809032cf056","6406d7f26dd5b7fc1e3377bd","6407ce532e2694c0e6a115c8","2560","1297","","1239","","d","","","","","","","","","","","","","","","","","","","",""
"","","","","","html-keyboard-response","34","190677","0.0-34.0","SS1678233175240","62bdc30224534809032cf056","6406d7f26dd5b7fc1e3377bd","6407ce532e2694c0e6a115c8","2560","1297","","3463","","j","","","","","","","<img src=""media/stimuli/inanimate_012_left.png"" class=""coveredImage test"" style = ""width:100px; height:100px; position:fixed; top:10%;    transform: translate(-50%, -50%);left:48%""></img><img src=""media/stimuli/inanimate_011_left.png"" class=""coveredImage test"" style = ""width:100px; height:100px;position:fixed; top:25%;        transform: translate(-50%, -50%);left:38%""></img><img src=""media/stimuli/inanimate_012_right.png"" class=""coveredImage test"" style = ""width:100px; height:100px;position:fixed; top:25%;        transform: translate(-50%, -50%);left:58%""></img><img src=""media/f.png""style = ""width:30px x; height:30px;position:fixed; top:43%;    transform: translate(-50%, -50%);left:40%""></img><img src=""media/j.png""style = ""width:30px; height:30px;position:fixed; top:43%;    transform: translate(-50%, -50%);left:60%""></img>","media/stimuli/inanimate_012_left.png","inanimate","left","single","media/stimuli/inanimate_011_left.png","inanimate","left","single","media/stimuli/inanimate_012_right.png","inanimate","right","single","identity_pose"
"","","","","","html-keyboard-response","35","192373","0.0-35.0","SS1678233175240","62bdc30224534809032cf056","6406d7f26dd5b7fc1e3377bd","6407ce532e2694c0e6a115c8","2560","1297","","1694","","f","","","","","","","<img src=""media/stimuli/animate_004_right.png"" class=""coveredImage test"" style = ""width:100px; height:100px; position:fixed; top:10%;    transform: translate(-50%, -50%);left:44.5%""></img><img src=""media/stimuli/animate_004_right.png"" class=""coveredImage test"" style = ""width:100px; height:100px; position:fixed; top:10%;    transform: translate(-50%, -50%);left:51.5%""></img><img src=""media/stimuli/animate_004_left.png"" class=""coveredImage test"" style = ""width:100px; height:100px;position:fixed; top:25%;        transform: translate(-50%, -50%);left:34.5%""></img><img src=""media/stimuli/animate_004_left.png"" class=""coveredImage test"" style = ""width:100px; height:100px;position:fixed; top:25%;        transform: translate(-50%, -50%);left:41.5%""></img><img src=""media/stimuli/animate_007_right.png"" class=""coveredImage test"" style = ""width:100px; height:100px;position:fixed; top:25%;        transform: translate(-50%, -50%);left:54.5%""></img><img src=""media/stimuli/animate_007_right.png"" class=""coveredImage test"" style = ""width:100px; height:100px;position:fixed; top:25%;        transform: translate(-50%, -50%);left:61.5%""></img><img src=""media/f.png""style = ""width:30px x; height:30px;position:fixed; top:43%;    transform: translate(-50%, -50%);left:40%""></img><img src=""media/j.png""style = ""width:30px; height:30px;position:fixed; top:43%;    transform: translate(-50%, -50%);left:60%""></img>","media/stimuli/animate_004_right.png","animate","right","pair","media/stimuli/animate_004_left.png","animate","left","pair","media/stimuli/animate_007_right.png","animate","right","pair","pose_identity"
"","","","","","html-keyboard-response","36","197261","0.0-36.0","SS1678233175240","62bdc30224534809032cf056","6406d7f26dd5b7fc1e3377bd","6407ce532e2694c0e6a115c8","2560","1297","","4887","","j","","","","","","","<img src=""media/stimuli/inanimate_011_left.png"" class=""coveredImage test"" style = ""width:100px; height:100px; position:fixed; top:10%;    transform: translate(-50%, -50%);left:48%""></img><img src=""media/stimuli/inanimate_011_right.png"" class=""coveredImage test"" style = ""width:100px; height:100px;position:fixed; top:25%;        transform: translate(-50%, -50%);left:38%""></img><img src=""media/stimuli/inanimate_011_left.png"" class=""coveredImage test"" style = ""width:100px; height:100px;position:fixed; top:25%;        transform: translate(-50%, -50%);left:54.5%""></img><img src=""media/stimuli/inanimate_011_left.png"" class=""coveredImage test"" style = ""width:100px; height:100px;position:fixed; top:25%;        transform: translate(-50%, -50%);left:61.5%""></img><img src=""media/f.png""style = ""width:30px x; height:30px;position:fixed; top:43%;    transform: translate(-50%, -50%);left:40%""></img><img src=""media/j.png""style = ""width:30px; height:30px;position:fixed; top:43%;    transform: translate(-50%, -50%);left:60%""></img>","media/stimuli/inanimate_011_left.png","inanimate","left","single","media/stimuli/inanimate_011_right.png","inanimate","right","single","media/stimuli/inanimate_011_left.png","inanimate","left","pair","pose_number"
"","","","","","html-keyboard-response","37","202662","0.0-37.0","SS1678233175240","62bdc30224534809032cf056","6406d7f26dd5b7fc1e3377bd","6407ce532e2694c0e6a115c8","2560","1297","","5399","","f","","","","","","","<img src=""media/stimuli/animate_008_right.png"" class=""coveredImage test"" style = ""width:100px; height:100px; position:fixed; top:10%;    transform: translate(-50%, -50%);left:44.5%""></img><img src=""media/stimuli/animate_008_right.png"" class=""coveredImage test"" style = ""width:100px; height:100px; position:fixed; top:10%;    transform: translate(-50%, -50%);left:51.5%""></img><img src=""media/stimuli/animate_008_right.png"" class=""coveredImage test"" style = ""width:100px; height:100px;position:fixed; top:25%;        transform: translate(-50%, -50%);left:38%""></img><img src=""media/stimuli/animate_008_left.png"" class=""coveredImage test"" style = ""width:100px; height:100px;position:fixed; top:25%;        transform: translate(-50%, -50%);left:54.5%""></img><img src=""media/stimuli/animate_008_left.png"" class=""coveredImage test"" style = ""width:100px; height:100px;position:fixed; top:25%;        transform: translate(-50%, -50%);left:61.5%""></img><img src=""media/f.png""style = ""width:30px x; height:30px;position:fixed; top:43%;    transform: translate(-50%, -50%);left:40%""></img><img src=""media/j.png""style = ""width:30px; height:30px;position:fixed; top:43%;    transform: translate(-50%, -50%);left:60%""></img>","media/stimuli/animate_008_right.png","animate","right","pair","media/stimuli/animate_008_right.png","animate","right","single","media/stimuli/animate_008_left.png","animate","left","pair","number_pose"
"","","","","","html-keyboard-response","38","205829","0.0-38.0","SS1678233175240","62bdc30224534809032cf056","6406d7f26dd5b7fc1e3377bd","6407ce532e2694c0e6a115c8","2560","1297","","3166","","j","","","","","","","<img src=""media/stimuli/animate_003_right.png"" class=""coveredImage test"" style = ""width:100px; height:100px; position:fixed; top:10%;    transform: translate(-50%, -50%);left:44.5%""></img><img src=""media/stimuli/animate_003_right.png"" class=""coveredImage test"" style = ""width:100px; height:100px; position:fixed; top:10%;    transform: translate(-50%, -50%);left:51.5%""></img><img src=""media/stimuli/inanimate_005_left.png"" class=""coveredImage test"" style = ""width:100px; height:100px;position:fixed; top:25%;        transform: translate(-50%, -50%);left:38%""></img><img src=""media/stimuli/animate_003_right.png"" class=""coveredImage test"" style = ""width:100px; height:100px;position:fixed; top:25%;        transform: translate(-50%, -50%);left:58%""></img><img src=""media/f.png""style = ""width:30px x; height:30px;position:fixed; top:43%;    transform: translate(-50%, -50%);left:40%""></img><img src=""media/j.png""style = ""width:30px; height:30px;position:fixed; top:43%;    transform: translate(-50%, -50%);left:60%""></img>","media/stimuli/animate_003_right.png","animate","right","pair","media/stimuli/inanimate_005_left.png","inanimate","left","single","media/stimuli/animate_003_right.png","animate","right","single","animacy_pose"
"","","","","","html-keyboard-response","39","207253","0.0-39.0","SS1678233175240","62bdc30224534809032cf056","6406d7f26dd5b7fc1e3377bd","6407ce532e2694c0e6a115c8","2560","1297","","1423","","f","","","","","","","<img src=""media/stimuli/animate_012_right.png"" class=""coveredImage test"" style = ""width:100px; height:100px; position:fixed; top:10%;    transform: translate(-50%, -50%);left:48%""></img><img src=""media/stimuli/animate_012_right.png"" class=""coveredImage test"" style = ""width:100px; height:100px;position:fixed; top:25%;        transform: translate(-50%, -50%);left:34.5%""></img><img src=""media/stimuli/animate_012_right.png"" class=""coveredImage test"" style = ""width:100px; height:100px;position:fixed; top:25%;        transform: translate(-50%, -50%);left:41.5%""></img><img src=""media/stimuli/inanimate_005_right.png"" class=""coveredImage test"" style = ""width:100px; height:100px;position:fixed; top:25%;        transform: translate(-50%, -50%);left:58%""></img><img src=""media/f.png""style = ""width:30px x; height:30px;position:fixed; top:43%;    transform: translate(-50%, -50%);left:40%""></img><img src=""media/j.png""style = ""width:30px; height:30px;position:fixed; top:43%;    transform: translate(-50%, -50%);left:60%""></img>","media/stimuli/animate_012_right.png","animate","right","single","media/stimuli/animate_012_right.png","animate","right","pair","media/stimuli/inanimate_005_right.png","inanimate","right","single","number_animacy"
"","","","","","html-keyboard-response","40","211125","0.0-40.0","SS1678233175240","62bdc30224534809032cf056","6406d7f26dd5b7fc1e3377bd","6407ce532e2694c0e6a115c8","2560","1297","","3871","","j","","","","","","","<img src=""media/stimuli/animate_006_right.png"" class=""coveredImage test"" style = ""width:100px; height:100px; position:fixed; top:10%;    transform: translate(-50%, -50%);left:48%""></img><img src=""media/stimuli/animate_006_left.png"" class=""coveredImage test"" style = ""width:100px; height:100px;position:fixed; top:25%;        transform: translate(-50%, -50%);left:38%""></img><img src=""media/stimuli/animate_006_right.png"" class=""coveredImage test"" style = ""width:100px; height:100px;position:fixed; top:25%;        transform: translate(-50%, -50%);left:54.5%""></img><img src=""media/stimuli/animate_006_right.png"" class=""coveredImage test"" style = ""width:100px; height:100px;position:fixed; top:25%;        transform: translate(-50%, -50%);left:61.5%""></img><img src=""media/f.png""style = ""width:30px x; height:30px;position:fixed; top:43%;    transform: translate(-50%, -50%);left:40%""></img><img src=""media/j.png""style = ""width:30px; height:30px;position:fixed; top:43%;    transform: translate(-50%, -50%);left:60%""></img>","media/stimuli/animate_006_right.png","animate","right","single","media/stimuli/animate_006_left.png","animate","left","single","media/stimuli/animate_006_right.png","animate","right","pair","pose_number"
"","","","","","html-keyboard-response","41","214774","0.0-41.0","SS1678233175240","62bdc30224534809032cf056","6406d7f26dd5b7fc1e3377bd","6407ce532e2694c0e6a115c8","2560","1297","","3647","","j","","","","","","","<img src=""media/stimuli/animate_011_left.png"" class=""coveredImage test"" style = ""width:100px; height:100px; position:fixed; top:10%;    transform: translate(-50%, -50%);left:48%""></img><img src=""media/stimuli/inanimate_006_left.png"" class=""coveredImage test"" style = ""width:100px; height:100px;position:fixed; top:25%;        transform: translate(-50%, -50%);left:38%""></img><img src=""media/stimuli/animate_002_left.png"" class=""coveredImage test"" style = ""width:100px; height:100px;position:fixed; top:25%;        transform: translate(-50%, -50%);left:58%""></img><img src=""media/f.png""style = ""width:30px x; height:30px;position:fixed; top:43%;    transform: translate(-50%, -50%);left:40%""></img><img src=""media/j.png""style = ""width:30px; height:30px;position:fixed; top:43%;    transform: translate(-50%, -50%);left:60%""></img>","media/stimuli/animate_011_left.png","animate","left","single","media/stimuli/inanimate_006_left.png","inanimate","left","single","media/stimuli/animate_002_left.png","animate","left","single","animacy_identity"
"","","","","","html-keyboard-response","42","217869","0.0-42.0","SS1678233175240","62bdc30224534809032cf056","6406d7f26dd5b7fc1e3377bd","6407ce532e2694c0e6a115c8","2560","1297","","3094","","j","","","","","","","<img src=""media/stimuli/animate_007_right.png"" class=""coveredImage test"" style = ""width:100px; height:100px; position:fixed; top:10%;    transform: translate(-50%, -50%);left:44.5%""></img><img src=""media/stimuli/animate_007_right.png"" class=""coveredImage test"" style = ""width:100px; height:100px; position:fixed; top:10%;    transform: translate(-50%, -50%);left:51.5%""></img><img src=""media/stimuli/animate_007_left.png"" class=""coveredImage test"" style = ""width:100px; height:100px;position:fixed; top:25%;        transform: translate(-50%, -50%);left:34.5%""></img><img src=""media/stimuli/animate_007_left.png"" class=""coveredImage test"" style = ""width:100px; height:100px;position:fixed; top:25%;        transform: translate(-50%, -50%);left:41.5%""></img><img src=""media/stimuli/animate_007_right.png"" class=""coveredImage test"" style = ""width:100px; height:100px;position:fixed; top:25%;        transform: translate(-50%, -50%);left:58%""></img><img src=""media/f.png""style = ""width:30px x; height:30px;position:fixed; top:43%;    transform: translate(-50%, -50%);left:40%""></img><img src=""media/j.png""style = ""width:30px; height:30px;position:fixed; top:43%;    transform: translate(-50%, -50%);left:60%""></img>","media/stimuli/animate_007_right.png","animate","right","pair","media/stimuli/animate_007_left.png","animate","left","pair","media/stimuli/animate_007_right.png","animate","right","single","pose_number"
"","","","","","html-keyboard-response","43","219629","0.0-43.0","SS1678233175240","62bdc30224534809032cf056","6406d7f26dd5b7fc1e3377bd","6407ce532e2694c0e6a115c8","2560","1297","","1759","","j","","","","","","","<img src=""media/stimuli/animate_002_left.png"" class=""coveredImage test"" style = ""width:100px; height:100px; position:fixed; top:10%;    transform: translate(-50%, -50%);left:44.5%""></img><img src=""media/stimuli/animate_002_left.png"" class=""coveredImage test"" style = ""width:100px; height:100px; position:fixed; top:10%;    transform: translate(-50%, -50%);left:51.5%""></img><img src=""media/stimuli/inanimate_005_left.png"" class=""coveredImage test"" style = ""width:100px; height:100px;position:fixed; top:25%;        transform: translate(-50%, -50%);left:34.5%""></img><img src=""media/stimuli/inanimate_005_left.png"" class=""coveredImage test"" style = ""width:100px; height:100px;position:fixed; top:25%;        transform: translate(-50%, -50%);left:41.5%""></img><img src=""media/stimuli/animate_002_left.png"" class=""coveredImage test"" style = ""width:100px; height:100px;position:fixed; top:25%;        transform: translate(-50%, -50%);left:58%""></img><img src=""media/f.png""style = ""width:30px x; height:30px;position:fixed; top:43%;    transform: translate(-50%, -50%);left:40%""></img><img src=""media/j.png""style = ""width:30px; height:30px;position:fixed; top:43%;    transform: translate(-50%, -50%);left:60%""></img>","media/stimuli/animate_002_left.png","animate","left","pair","media/stimuli/inanimate_005_left.png","inanimate","left","pair","media/stimuli/animate_002_left.png","animate","left","single","animacy_number"
"","","","","","html-keyboard-response","44","221357","0.0-44.0","SS1678233175240","62bdc30224534809032cf056","6406d7f26dd5b7fc1e3377bd","6407ce532e2694c0e6a115c8","2560","1297","","1726","","j","","","","","","","<img src=""media/stimuli/animate_011_left.png"" class=""coveredImage test"" style = ""width:100px; height:100px; position:fixed; top:10%;    transform: translate(-50%, -50%);left:48%""></img><img src=""media/stimuli/animate_001_left.png"" class=""coveredImage test"" style = ""width:100px; height:100px;position:fixed; top:25%;        transform: translate(-50%, -50%);left:38%""></img><img src=""media/stimuli/animate_011_left.png"" class=""coveredImage test"" style = ""width:100px; height:100px;position:fixed; top:25%;        transform: translate(-50%, -50%);left:54.5%""></img><img src=""media/stimuli/animate_011_left.png"" class=""coveredImage test"" style = ""width:100px; height:100px;position:fixed; top:25%;        transform: translate(-50%, -50%);left:61.5%""></img><img src=""media/f.png""style = ""width:30px x; height:30px;position:fixed; top:43%;    transform: translate(-50%, -50%);left:40%""></img><img src=""media/j.png""style = ""width:30px; height:30px;position:fixed; top:43%;    transform: translate(-50%, -50%);left:60%""></img>","media/stimuli/animate_011_left.png","animate","left","single","media/stimuli/animate_001_left.png","animate","left","single","media/stimuli/animate_011_left.png","animate","left","pair","identity_number"
"","","","","","html-keyboard-response","45","222605","0.0-45.0","SS1678233175240","62bdc30224534809032cf056","6406d7f26dd5b7fc1e3377bd","6407ce532e2694c0e6a115c8","2560","1297","","1247","","j","","","","","","","<img src=""media/stimuli/animate_002_left.png"" class=""coveredImage test"" style = ""width:100px; height:100px; position:fixed; top:10%;    transform: translate(-50%, -50%);left:48%""></img><img src=""media/stimuli/animate_007_left.png"" class=""coveredImage test"" style = ""width:100px; height:100px;position:fixed; top:25%;        transform: translate(-50%, -50%);left:38%""></img><img src=""media/stimuli/animate_002_left.png"" class=""coveredImage test"" style = ""width:100px; height:100px;position:fixed; top:25%;        transform: translate(-50%, -50%);left:54.5%""></img><img src=""media/stimuli/animate_002_left.png"" class=""coveredImage test"" style = ""width:100px; height:100px;position:fixed; top:25%;        transform: translate(-50%, -50%);left:61.5%""></img><img src=""media/f.png""style = ""width:30px x; height:30px;position:fixed; top:43%;    transform: translate(-50%, -50%);left:40%""></img><img src=""media/j.png""style = ""width:30px; height:30px;position:fixed; top:43%;    transform: translate(-50%, -50%);left:60%""></img>","media/stimuli/animate_002_left.png","animate","left","single","media/stimuli/animate_007_left.png","animate","left","single","media/stimuli/animate_002_left.png","animate","left","pair","identity_number"
"","","","","","html-keyboard-response","46","223389","0.0-46.0","SS1678233175240","62bdc30224534809032cf056","6406d7f26dd5b7fc1e3377bd","6407ce532e2694c0e6a115c8","2560","1297","","783","","j","","","","","","","","","","","","","","","","","","","",""
"","","","","","html-keyboard-response","47","228814","0.0-47.0","SS1678233175240","62bdc30224534809032cf056","6406d7f26dd5b7fc1e3377bd","6407ce532e2694c0e6a115c8","2560","1297","","5423","","f","","","","","","","<img src=""media/stimuli/animate_001_left.png"" class=""coveredImage test"" style = ""width:100px; height:100px; position:fixed; top:10%;    transform: translate(-50%, -50%);left:44.5%""></img><img src=""media/stimuli/animate_001_left.png"" class=""coveredImage test"" style = ""width:100px; height:100px; position:fixed; top:10%;    transform: translate(-50%, -50%);left:51.5%""></img><img src=""media/stimuli/inanimate_006_left.png"" class=""coveredImage test"" style = ""width:100px; height:100px;position:fixed; top:25%;        transform: translate(-50%, -50%);left:34.5%""></img><img src=""media/stimuli/inanimate_006_left.png"" class=""coveredImage test"" style = ""width:100px; height:100px;position:fixed; top:25%;        transform: translate(-50%, -50%);left:41.5%""></img><img src=""media/stimuli/animate_001_right.png"" class=""coveredImage test"" style = ""width:100px; height:100px;position:fixed; top:25%;        transform: translate(-50%, -50%);left:54.5%""></img><img src=""media/stimuli/animate_001_right.png"" class=""coveredImage test"" style = ""width:100px; height:100px;position:fixed; top:25%;        transform: translate(-50%, -50%);left:61.5%""></img><img src=""media/f.png""style = ""width:30px x; height:30px;position:fixed; top:43%;    transform: translate(-50%, -50%);left:40%""></img><img src=""media/j.png""style = ""width:30px; height:30px;position:fixed; top:43%;    transform: translate(-50%, -50%);left:60%""></img>","media/stimuli/animate_001_left.png","animate","left","pair","media/stimuli/inanimate_006_left.png","inanimate","left","pair","media/stimuli/animate_001_right.png","animate","right","pair","animacy_pose"
"","","","","","html-keyboard-response","48","236781","0.0-48.0","SS1678233175240","62bdc30224534809032cf056","6406d7f26dd5b7fc1e3377bd","6407ce532e2694c0e6a115c8","2560","1297","","7966","","j","","","","","","","<img src=""media/stimuli/inanimate_005_left.png"" class=""coveredImage test"" style = ""width:100px; height:100px; position:fixed; top:10%;    transform: translate(-50%, -50%);left:44.5%""></img><img src=""media/stimuli/inanimate_005_left.png"" class=""coveredImage test"" style = ""width:100px; height:100px; position:fixed; top:10%;    transform: translate(-50%, -50%);left:51.5%""></img><img src=""media/stimuli/inanimate_012_left.png"" class=""coveredImage test"" style = ""width:100px; height:100px;position:fixed; top:25%;        transform: translate(-50%, -50%);left:34.5%""></img><img src=""media/stimuli/inanimate_012_left.png"" class=""coveredImage test"" style = ""width:100px; height:100px;position:fixed; top:25%;        transform: translate(-50%, -50%);left:41.5%""></img><img src=""media/stimuli/inanimate_005_left.png"" class=""coveredImage test"" style = ""width:100px; height:100px;position:fixed; top:25%;        transform: translate(-50%, -50%);left:58%""></img><img src=""media/f.png""style = ""width:30px x; height:30px;position:fixed; top:43%;    transform: translate(-50%, -50%);left:40%""></img><img src=""media/j.png""style = ""width:30px; height:30px;position:fixed; top:43%;    transform: translate(-50%, -50%);left:60%""></img>","media/stimuli/inanimate_005_left.png","inanimate","left","pair","media/stimuli/inanimate_012_left.png","inanimate","left","pair","media/stimuli/inanimate_005_left.png","inanimate","left","single","identity_number"
"","","","","","html-keyboard-response","49","238693","0.0-49.0","SS1678233175240","62bdc30224534809032cf056","6406d7f26dd5b7fc1e3377bd","6407ce532e2694c0e6a115c8","2560","1297","","1911","","f","","","","","","","<img src=""media/stimuli/inanimate_009_left.png"" class=""coveredImage test"" style = ""width:100px; height:100px; position:fixed; top:10%;    transform: translate(-50%, -50%);left:48%""></img><img src=""media/stimuli/inanimate_009_left.png"" class=""coveredImage test"" style = ""width:100px; height:100px;position:fixed; top:25%;        transform: translate(-50%, -50%);left:38%""></img><img src=""media/stimuli/inanimate_009_right.png"" class=""coveredImage test"" style = ""width:100px; height:100px;position:fixed; top:25%;        transform: translate(-50%, -50%);left:58%""></img><img src=""media/f.png""style = ""width:30px x; height:30px;position:fixed; top:43%;    transform: translate(-50%, -50%);left:40%""></img><img src=""media/j.png""style = ""width:30px; height:30px;position:fixed; top:43%;    transform: translate(-50%, -50%);left:60%""></img>","media/stimuli/inanimate_009_left.png","inanimate","left","single","media/stimuli/inanimate_009_left.png","inanimate","left","single","media/stimuli/inanimate_009_right.png","inanimate","right","single","filler_pose"
"","","","","","html-keyboard-response","50","254037","0.0-50.0","SS1678233175240","62bdc30224534809032cf056","6406d7f26dd5b7fc1e3377bd","6407ce532e2694c0e6a115c8","2560","1297","","15343","","j","","","","","","","<img src=""media/stimuli/inanimate_002_right.png"" class=""coveredImage test"" style = ""width:100px; height:100px; position:fixed; top:10%;    transform: translate(-50%, -50%);left:48%""></img><img src=""media/stimuli/animate_011_right.png"" class=""coveredImage test"" style = ""width:100px; height:100px;position:fixed; top:25%;        transform: translate(-50%, -50%);left:38%""></img><img src=""media/stimuli/inanimate_006_right.png"" class=""coveredImage test"" style = ""width:100px; height:100px;position:fixed; top:25%;        transform: translate(-50%, -50%);left:58%""></img><img src=""media/f.png""style = ""width:30px x; height:30px;position:fixed; top:43%;    transform: translate(-50%, -50%);left:40%""></img><img src=""media/j.png""style = ""width:30px; height:30px;position:fixed; top:43%;    transform: translate(-50%, -50%);left:60%""></img>","media/stimuli/inanimate_002_right.png","inanimate","right","single","media/stimuli/animate_011_right.png","animate","right","single","media/stimuli/inanimate_006_right.png","inanimate","right","single","animacy_identity"
"","","","","","html-keyboard-response","51","271101","0.0-51.0","SS1678233175240","62bdc30224534809032cf056","6406d7f26dd5b7fc1e3377bd","6407ce532e2694c0e6a115c8","2560","1297","","17062","","f","","","","","","","<img src=""media/stimuli/animate_005_right.png"" class=""coveredImage test"" style = ""width:100px; height:100px; position:fixed; top:10%;    transform: translate(-50%, -50%);left:48%""></img><img src=""media/stimuli/animate_005_left.png"" class=""coveredImage test"" style = ""width:100px; height:100px;position:fixed; top:25%;        transform: translate(-50%, -50%);left:38%""></img><img src=""media/stimuli/inanimate_004_right.png"" class=""coveredImage test"" style = ""width:100px; height:100px;position:fixed; top:25%;        transform: translate(-50%, -50%);left:58%""></img><img src=""media/f.png""style = ""width:30px x; height:30px;position:fixed; top:43%;    transform: translate(-50%, -50%);left:40%""></img><img src=""media/j.png""style = ""width:30px; height:30px;position:fixed; top:43%;    transform: translate(-50%, -50%);left:60%""></img>","media/stimuli/animate_005_right.png","animate","right","single","media/stimuli/animate_005_left.png","animate","left","single","media/stimuli/inanimate_004_right.png","inanimate","right","single","pose_animacy"
"","","","","","html-keyboard-response","52","274445","0.0-52.0","SS1678233175240","62bdc30224534809032cf056","6406d7f26dd5b7fc1e3377bd","6407ce532e2694c0e6a115c8","2560","1297","","3342","","j","","","","","","","<img src=""media/stimuli/animate_012_left.png"" class=""coveredImage test"" style = ""width:100px; height:100px; position:fixed; top:10%;    transform: translate(-50%, -50%);left:44.5%""></img><img src=""media/stimuli/animate_012_left.png"" class=""coveredImage test"" style = ""width:100px; height:100px; position:fixed; top:10%;    transform: translate(-50%, -50%);left:51.5%""></img><img src=""media/stimuli/animate_012_right.png"" class=""coveredImage test"" style = ""width:100px; height:100px;position:fixed; top:25%;        transform: translate(-50%, -50%);left:38%""></img><img src=""media/stimuli/inanimate_010_left.png"" class=""coveredImage test"" style = ""width:100px; height:100px;position:fixed; top:25%;        transform: translate(-50%, -50%);left:58%""></img><img src=""media/f.png""style = ""width:30px x; height:30px;position:fixed; top:43%;    transform: translate(-50%, -50%);left:40%""></img><img src=""media/j.png""style = ""width:30px; height:30px;position:fixed; top:43%;    transform: translate(-50%, -50%);left:60%""></img>","media/stimuli/animate_012_left.png","animate","left","pair","media/stimuli/animate_012_right.png","animate","right","single","media/stimuli/inanimate_010_left.png","inanimate","left","single","pose_animacy"
"","","","","","html-keyboard-response","53","279053","0.0-53.0","SS1678233175240","62bdc30224534809032cf056","6406d7f26dd5b7fc1e3377bd","6407ce532e2694c0e6a115c8","2560","1297","","4606","","j","","","","","","","<img src=""media/stimuli/animate_002_right.png"" class=""coveredImage test"" style = ""width:100px; height:100px; position:fixed; top:10%;    transform: translate(-50%, -50%);left:44.5%""></img><img src=""media/stimuli/animate_002_right.png"" class=""coveredImage test"" style = ""width:100px; height:100px; position:fixed; top:10%;    transform: translate(-50%, -50%);left:51.5%""></img><img src=""media/stimuli/animate_002_left.png"" class=""coveredImage test"" style = ""width:100px; height:100px;position:fixed; top:25%;        transform: translate(-50%, -50%);left:34.5%""></img><img src=""media/stimuli/animate_002_left.png"" class=""coveredImage test"" style = ""width:100px; height:100px;position:fixed; top:25%;        transform: translate(-50%, -50%);left:41.5%""></img><img src=""media/stimuli/animate_002_right.png"" class=""coveredImage test"" style = ""width:100px; height:100px;position:fixed; top:25%;        transform: translate(-50%, -50%);left:58%""></img><img src=""media/f.png""style = ""width:30px x; height:30px;position:fixed; top:43%;    transform: translate(-50%, -50%);left:40%""></img><img src=""media/j.png""style = ""width:30px; height:30px;position:fixed; top:43%;    transform: translate(-50%, -50%);left:60%""></img>","media/stimuli/animate_002_right.png","animate","right","pair","media/stimuli/animate_002_left.png","animate","left","pair","media/stimuli/animate_002_right.png","animate","right","single","pose_number"
"","","","","","html-keyboard-response","54","282925","0.0-54.0","SS1678233175240","62bdc30224534809032cf056","6406d7f26dd5b7fc1e3377bd","6407ce532e2694c0e6a115c8","2560","1297","","3870","","j","","","","","","","<img src=""media/stimuli/inanimate_001_left.png"" class=""coveredImage test"" style = ""width:100px; height:100px; position:fixed; top:10%;    transform: translate(-50%, -50%);left:44.5%""></img><img src=""media/stimuli/inanimate_001_left.png"" class=""coveredImage test"" style = ""width:100px; height:100px; position:fixed; top:10%;    transform: translate(-50%, -50%);left:51.5%""></img><img src=""media/stimuli/inanimate_001_left.png"" class=""coveredImage test"" style = ""width:100px; height:100px;position:fixed; top:25%;        transform: translate(-50%, -50%);left:38%""></img><img src=""media/stimuli/inanimate_001_right.png"" class=""coveredImage test"" style = ""width:100px; height:100px;position:fixed; top:25%;        transform: translate(-50%, -50%);left:54.5%""></img><img src=""media/stimuli/inanimate_001_right.png"" class=""coveredImage test"" style = ""width:100px; height:100px;position:fixed; top:25%;        transform: translate(-50%, -50%);left:61.5%""></img><img src=""media/f.png""style = ""width:30px x; height:30px;position:fixed; top:43%;    transform: translate(-50%, -50%);left:40%""></img><img src=""media/j.png""style = ""width:30px; height:30px;position:fixed; top:43%;    transform: translate(-50%, -50%);left:60%""></img>","media/stimuli/inanimate_001_left.png","inanimate","left","pair","media/stimuli/inanimate_001_left.png","inanimate","left","single","media/stimuli/inanimate_001_right.png","inanimate","right","pair","number_pose"
"","","","","","html-keyboard-response","55","286317","0.0-55.0","SS1678233175240","62bdc30224534809032cf056","6406d7f26dd5b7fc1e3377bd","6407ce532e2694c0e6a115c8","2560","1297","","3390","","f","","","","","","","<img src=""media/stimuli/inanimate_002_right.png"" class=""coveredImage test"" style = ""width:100px; height:100px; position:fixed; top:10%;    transform: translate(-50%, -50%);left:44.5%""></img><img src=""media/stimuli/inanimate_002_right.png"" class=""coveredImage test"" style = ""width:100px; height:100px; position:fixed; top:10%;    transform: translate(-50%, -50%);left:51.5%""></img><img src=""media/stimuli/inanimate_002_right.png"" class=""coveredImage test"" style = ""width:100px; height:100px;position:fixed; top:25%;        transform: translate(-50%, -50%);left:38%""></img><img src=""media/stimuli/animate_004_left.png"" class=""coveredImage test"" style = ""width:100px; height:100px;position:fixed; top:25%;        transform: translate(-50%, -50%);left:58%""></img><img src=""media/f.png""style = ""width:30px x; height:30px;position:fixed; top:43%;    transform: translate(-50%, -50%);left:40%""></img><img src=""media/j.png""style = ""width:30px; height:30px;position:fixed; top:43%;    transform: translate(-50%, -50%);left:60%""></img>","media/stimuli/inanimate_002_right.png","inanimate","right","pair","media/stimuli/inanimate_002_right.png","inanimate","right","single","media/stimuli/animate_004_left.png","animate","left","single","pose_animacy"
"","","","","","html-keyboard-response","56","290237","0.0-56.0","SS1678233175240","62bdc30224534809032cf056","6406d7f26dd5b7fc1e3377bd","6407ce532e2694c0e6a115c8","2560","1297","","3918","","f","","","","","","","<img src=""media/stimuli/inanimate_003_left.png"" class=""coveredImage test"" style = ""width:100px; height:100px; position:fixed; top:10%;    transform: translate(-50%, -50%);left:44.5%""></img><img src=""media/stimuli/inanimate_003_left.png"" class=""coveredImage test"" style = ""width:100px; height:100px; position:fixed; top:10%;    transform: translate(-50%, -50%);left:51.5%""></img><img src=""media/stimuli/inanimate_010_left.png"" class=""coveredImage test"" style = ""width:100px; height:100px;position:fixed; top:25%;        transform: translate(-50%, -50%);left:34.5%""></img><img src=""media/stimuli/inanimate_010_left.png"" class=""coveredImage test"" style = ""width:100px; height:100px;position:fixed; top:25%;        transform: translate(-50%, -50%);left:41.5%""></img><img src=""media/stimuli/inanimate_003_right.png"" class=""coveredImage test"" style = ""width:100px; height:100px;position:fixed; top:25%;        transform: translate(-50%, -50%);left:54.5%""></img><img src=""media/stimuli/inanimate_003_right.png"" class=""coveredImage test"" style = ""width:100px; height:100px;position:fixed; top:25%;        transform: translate(-50%, -50%);left:61.5%""></img><img src=""media/f.png""style = ""width:30px x; height:30px;position:fixed; top:43%;    transform: translate(-50%, -50%);left:40%""></img><img src=""media/j.png""style = ""width:30px; height:30px;position:fixed; top:43%;    transform: translate(-50%, -50%);left:60%""></img>","media/stimuli/inanimate_003_left.png","inanimate","left","pair","media/stimuli/inanimate_010_left.png","inanimate","left","pair","media/stimuli/inanimate_003_right.png","inanimate","right","pair","identity_pose"
"","","","","","html-keyboard-response","57","293654","0.0-57.0","SS1678233175240","62bdc30224534809032cf056","6406d7f26dd5b7fc1e3377bd","6407ce532e2694c0e6a115c8","2560","1297","","3415","","j","","","","","","","<img src=""media/stimuli/inanimate_007_left.png"" class=""coveredImage test"" style = ""width:100px; height:100px; position:fixed; top:10%;    transform: translate(-50%, -50%);left:48%""></img><img src=""media/stimuli/animate_001_left.png"" class=""coveredImage test"" style = ""width:100px; height:100px;position:fixed; top:25%;        transform: translate(-50%, -50%);left:34.5%""></img><img src=""media/stimuli/animate_001_left.png"" class=""coveredImage test"" style = ""width:100px; height:100px;position:fixed; top:25%;        transform: translate(-50%, -50%);left:41.5%""></img><img src=""media/stimuli/inanimate_007_right.png"" class=""coveredImage test"" style = ""width:100px; height:100px;position:fixed; top:25%;        transform: translate(-50%, -50%);left:54.5%""></img><img src=""media/stimuli/inanimate_007_right.png"" class=""coveredImage test"" style = ""width:100px; height:100px;position:fixed; top:25%;        transform: translate(-50%, -50%);left:61.5%""></img><img src=""media/f.png""style = ""width:30px x; height:30px;position:fixed; top:43%;    transform: translate(-50%, -50%);left:40%""></img><img src=""media/j.png""style = ""width:30px; height:30px;position:fixed; top:43%;    transform: translate(-50%, -50%);left:60%""></img>","media/stimuli/inanimate_007_left.png","inanimate","left","single","media/stimuli/animate_001_left.png","animate","left","pair","media/stimuli/inanimate_007_right.png","inanimate","right","pair","animacy_pose"
"","","","","","html-keyboard-response","58","295229","0.0-58.0","SS1678233175240","62bdc30224534809032cf056","6406d7f26dd5b7fc1e3377bd","6407ce532e2694c0e6a115c8","2560","1297","","1574","","j","","","","","","","<img src=""media/stimuli/animate_011_left.png"" class=""coveredImage test"" style = ""width:100px; height:100px; position:fixed; top:10%;    transform: translate(-50%, -50%);left:48%""></img><img src=""media/stimuli/animate_006_left.png"" class=""coveredImage test"" style = ""width:100px; height:100px;position:fixed; top:25%;        transform: translate(-50%, -50%);left:38%""></img><img src=""media/stimuli/animate_011_left.png"" class=""coveredImage test"" style = ""width:100px; height:100px;position:fixed; top:25%;        transform: translate(-50%, -50%);left:54.5%""></img><img src=""media/stimuli/animate_011_left.png"" class=""coveredImage test"" style = ""width:100px; height:100px;position:fixed; top:25%;        transform: translate(-50%, -50%);left:61.5%""></img><img src=""media/f.png""style = ""width:30px x; height:30px;position:fixed; top:43%;    transform: translate(-50%, -50%);left:40%""></img><img src=""media/j.png""style = ""width:30px; height:30px;position:fixed; top:43%;    transform: translate(-50%, -50%);left:60%""></img>","media/stimuli/animate_011_left.png","animate","left","single","media/stimuli/animate_006_left.png","animate","left","single","media/stimuli/animate_011_left.png","animate","left","pair","identity_number"
"","","","","","html-keyboard-response","59","296093","0.0-59.0","SS1678233175240","62bdc30224534809032cf056","6406d7f26dd5b7fc1e3377bd","6407ce532e2694c0e6a115c8","2560","1297","","863","","j","","","","","","","","","","","","","","","","","","","",""
"","","","","","survey-likert","60","300232","0.0-60.0","SS1678233175240","62bdc30224534809032cf056","6406d7f26dd5b7fc1e3377bd","6407ce532e2694c0e6a115c8","2560","1297","","4137","","{""Q0"":4}","[0]","complexity","media/stimuli/inanimate_008_left.png","inanimate","pair","left","","","","","","","","","","","","","",""
"","","","","","survey-likert","61","304702","0.0-61.0","SS1678233175240","62bdc30224534809032cf056","6406d7f26dd5b7fc1e3377bd","6407ce532e2694c0e6a115c8","2560","1297","","4467","","{""Q0"":2}","[0]","complexity","media/stimuli/animate_007_left.png","animate","single","left","","","","","","","","","","","","","",""
"","","","","","survey-likert","62","309928","0.0-62.0","SS1678233175240","62bdc30224534809032cf056","6406d7f26dd5b7fc1e3377bd","6407ce532e2694c0e6a115c8","2560","1297","","5222","","{""Q0"":4}","[0]","complexity","media/stimuli/animate_001_right.png","animate","pair","right","","","","","","","","","","","","","",""
"","","","","","survey-likert","63","312808","0.0-63.0","SS1678233175240","62bdc30224534809032cf056","6406d7f26dd5b7fc1e3377bd","6407ce532e2694c0e6a115c8","2560","1297","","2877","","{""Q0"":2}","[0]","complexity","media/stimuli/animate_009_right.png","animate","single","right","","","","","","","","","","","","","",""
"","","","","","survey-likert","64","315825","0.0-64.0","SS1678233175240","62bdc30224534809032cf056","6406d7f26dd5b7fc1e3377bd","6407ce532e2694c0e6a115c8","2560","1297","","3013","","{""Q0"":1}","[0]","complexity","media/stimuli/inanimate_005_left.png","inanimate","pair","left","","","","","","","","","","","","","",""
"","","","","","survey-likert","65","318298","0.0-65.0","SS1678233175240","62bdc30224534809032cf056","6406d7f26dd5b7fc1e3377bd","6407ce532e2694c0e6a115c8","2560","1297","","2471","","{""Q0"":4}","[0]","complexity","media/stimuli/inanimate_002_left.png","inanimate","pair","left","","","","","","","","","","","","","",""
"","","","","","survey-likert","66","325242","0.0-66.0","SS1678233175240","62bdc30224534809032cf056","6406d7f26dd5b7fc1e3377bd","6407ce532e2694c0e6a115c8","2560","1297","","6941","","{""Q0"":2}","[0]","complexity","media/stimuli/animate_005_right.png","animate","pair","right","","","","","","","","","","","","","",""
"","","","","","survey-likert","67","328820","0.0-67.0","SS1678233175240","62bdc30224534809032cf056","6406d7f26dd5b7fc1e3377bd","6407ce532e2694c0e6a115c8","2560","1297","","3575","","{""Q0"":0}","[0]","complexity","media/stimuli/inanimate_003_right.png","inanimate","single","right","","","","","","","","","","","","","",""
"","","","","","survey-likert","68","331519","0.0-68.0","SS1678233175240","62bdc30224534809032cf056","6406d7f26dd5b7fc1e3377bd","6407ce532e2694c0e6a115c8","2560","1297","","2695","","{""Q0"":1}","[0]","complexity","media/stimuli/inanimate_012_right.png","inanimate","pair","right","","","","","","","","","","","","","",""
"","","","","","survey-likert","69","335149","0.0-69.0","SS1678233175240","62bdc30224534809032cf056","6406d7f26dd5b7fc1e3377bd","6407ce532e2694c0e6a115c8","2560","1297","","3626","","{""Q0"":4}","[0]","complexity","media/stimuli/inanimate_008_left.png","inanimate","single","left","","","","","","","","","","","","","",""
"","","","","","survey-likert","70","337755","0.0-70.0","SS1678233175240","62bdc30224534809032cf056","6406d7f26dd5b7fc1e3377bd","6407ce532e2694c0e6a115c8","2560","1297","","2602","","{""Q0"":2}","[0]","complexity","media/stimuli/animate_005_right.png","animate","single","right","","","","","","","","","","","","","",""
"","","","","","survey-likert","71","340547","0.0-71.0","SS1678233175240","62bdc30224534809032cf056","6406d7f26dd5b7fc1e3377bd","6407ce532e2694c0e6a115c8","2560","1297","","2789","","{""Q0"":1}","[0]","complexity","media/stimuli/inanimate_003_left.png","inanimate","single","left","","","","","","","","","","","","","",""
"","","","","","html-keyboard-response","72","341317","0.0-72.0","SS1678233175240","62bdc30224534809032cf056","6406d7f26dd5b7fc1e3377bd","6407ce532e2694c0e6a115c8","2560","1297","","768","","f","","","","","","","","","","","","","","","","","","","",""
"","","","","","html-keyboard-response","73","350758","0.0-73.0","SS1678233175240","62bdc30224534809032cf056","6406d7f26dd5b7fc1e3377bd","6407ce532e2694c0e6a115c8","2560","1297","","9439","","f","","","","","","","<img src=""media/stimuli/animate_012_right.png"" class=""coveredImage test"" style = ""width:100px; height:100px; position:fixed; top:10%;    transform: translate(-50%, -50%);left:44.5%""></img><img src=""media/stimuli/animate_012_right.png"" class=""coveredImage test"" style = ""width:100px; height:100px; position:fixed; top:10%;    transform: translate(-50%, -50%);left:51.5%""></img><img src=""media/stimuli/animate_004_right.png"" class=""coveredImage test"" style = ""width:100px; height:100px;position:fixed; top:25%;        transform: translate(-50%, -50%);left:34.5%""></img><img src=""media/stimuli/animate_004_right.png"" class=""coveredImage test"" style = ""width:100px; height:100px;position:fixed; top:25%;        transform: translate(-50%, -50%);left:41.5%""></img><img src=""media/stimuli/inanimate_004_right.png"" class=""coveredImage test"" style = ""width:100px; height:100px;position:fixed; top:25%;        transform: translate(-50%, -50%);left:54.5%""></img><img src=""media/stimuli/inanimate_004_right.png"" class=""coveredImage test"" style = ""width:100px; height:100px;position:fixed; top:25%;        transform: translate(-50%, -50%);left:61.5%""></img><img src=""media/f.png""style = ""width:30px x; height:30px;position:fixed; top:43%;    transform: translate(-50%, -50%);left:40%""></img><img src=""media/j.png""style = ""width:30px; height:30px;position:fixed; top:43%;    transform: translate(-50%, -50%);left:60%""></img>","media/stimuli/animate_012_right.png","animate","right","pair","media/stimuli/animate_004_right.png","animate","right","pair","media/stimuli/inanimate_004_right.png","inanimate","right","pair","identity_animacy"
"","","","","","html-keyboard-response","74","354309","0.0-74.0","SS1678233175240","62bdc30224534809032cf056","6406d7f26dd5b7fc1e3377bd","6407ce532e2694c0e6a115c8","2560","1297","","3549","","j","","","","","","","<img src=""media/stimuli/animate_004_right.png"" class=""coveredImage test"" style = ""width:100px; height:100px; position:fixed; top:10%;    transform: translate(-50%, -50%);left:44.5%""></img><img src=""media/stimuli/animate_004_right.png"" class=""coveredImage test"" style = ""width:100px; height:100px; position:fixed; top:10%;    transform: translate(-50%, -50%);left:51.5%""></img><img src=""media/stimuli/inanimate_002_right.png"" class=""coveredImage test"" style = ""width:100px; height:100px;position:fixed; top:25%;        transform: translate(-50%, -50%);left:34.5%""></img><img src=""media/stimuli/inanimate_002_right.png"" class=""coveredImage test"" style = ""width:100px; height:100px;position:fixed; top:25%;        transform: translate(-50%, -50%);left:41.5%""></img><img src=""media/stimuli/animate_004_right.png"" class=""coveredImage test"" style = ""width:100px; height:100px;position:fixed; top:25%;        transform: translate(-50%, -50%);left:54.5%""></img><img src=""media/stimuli/animate_004_right.png"" class=""coveredImage test"" style = ""width:100px; height:100px;position:fixed; top:25%;        transform: translate(-50%, -50%);left:61.5%""></img><img src=""media/f.png""style = ""width:30px x; height:30px;position:fixed; top:43%;    transform: translate(-50%, -50%);left:40%""></img><img src=""media/j.png""style = ""width:30px; height:30px;position:fixed; top:43%;    transform: translate(-50%, -50%);left:60%""></img>","media/stimuli/animate_004_right.png","animate","right","pair","media/stimuli/inanimate_002_right.png","inanimate","right","pair","media/stimuli/animate_004_right.png","animate","right","pair","animacy_filler"
"","","","","","html-keyboard-response","75","357445","0.0-75.0","SS1678233175240","62bdc30224534809032cf056","6406d7f26dd5b7fc1e3377bd","6407ce532e2694c0e6a115c8","2560","1297","","3134","","j","","","","","","","<img src=""media/stimuli/inanimate_002_right.png"" class=""coveredImage test"" style = ""width:100px; height:100px; position:fixed; top:10%;    transform: translate(-50%, -50%);left:44.5%""></img><img src=""media/stimuli/inanimate_002_right.png"" class=""coveredImage test"" style = ""width:100px; height:100px; position:fixed; top:10%;    transform: translate(-50%, -50%);left:51.5%""></img><img src=""media/stimuli/animate_005_left.png"" class=""coveredImage test"" style = ""width:100px; height:100px;position:fixed; top:25%;        transform: translate(-50%, -50%);left:38%""></img><img src=""media/stimuli/inanimate_002_right.png"" class=""coveredImage test"" style = ""width:100px; height:100px;position:fixed; top:25%;        transform: translate(-50%, -50%);left:58%""></img><img src=""media/f.png""style = ""width:30px x; height:30px;position:fixed; top:43%;    transform: translate(-50%, -50%);left:40%""></img><img src=""media/j.png""style = ""width:30px; height:30px;position:fixed; top:43%;    transform: translate(-50%, -50%);left:60%""></img>","media/stimuli/inanimate_002_right.png","inanimate","right","pair","media/stimuli/animate_005_left.png","animate","left","single","media/stimuli/inanimate_002_right.png","inanimate","right","single","animacy_pose"
"","","","","","html-keyboard-response","76","362750","0.0-76.0","SS1678233175240","62bdc30224534809032cf056","6406d7f26dd5b7fc1e3377bd","6407ce532e2694c0e6a115c8","2560","1297","","5302","","f","","","","","","","<img src=""media/stimuli/inanimate_006_left.png"" class=""coveredImage test"" style = ""width:100px; height:100px; position:fixed; top:10%;    transform: translate(-50%, -50%);left:44.5%""></img><img src=""media/stimuli/inanimate_006_left.png"" class=""coveredImage test"" style = ""width:100px; height:100px; position:fixed; top:10%;    transform: translate(-50%, -50%);left:51.5%""></img><img src=""media/stimuli/inanimate_003_left.png"" class=""coveredImage test"" style = ""width:100px; height:100px;position:fixed; top:25%;        transform: translate(-50%, -50%);left:34.5%""></img><img src=""media/stimuli/inanimate_003_left.png"" class=""coveredImage test"" style = ""width:100px; height:100px;position:fixed; top:25%;        transform: translate(-50%, -50%);left:41.5%""></img><img src=""media/stimuli/inanimate_006_right.png"" class=""coveredImage test"" style = ""width:100px; height:100px;position:fixed; top:25%;        transform: translate(-50%, -50%);left:54.5%""></img><img src=""media/stimuli/inanimate_006_right.png"" class=""coveredImage test"" style = ""width:100px; height:100px;position:fixed; top:25%;        transform: translate(-50%, -50%);left:61.5%""></img><img src=""media/f.png""style = ""width:30px x; height:30px;position:fixed; top:43%;    transform: translate(-50%, -50%);left:40%""></img><img src=""media/j.png""style = ""width:30px; height:30px;position:fixed; top:43%;    transform: translate(-50%, -50%);left:60%""></img>","media/stimuli/inanimate_006_left.png","inanimate","left","pair","media/stimuli/inanimate_003_left.png","inanimate","left","pair","media/stimuli/inanimate_006_right.png","inanimate","right","pair","identity_pose"
"","","","","","html-keyboard-response","77","367965","0.0-77.0","SS1678233175240","62bdc30224534809032cf056","6406d7f26dd5b7fc1e3377bd","6407ce532e2694c0e6a115c8","2560","1297","","5213","","j","","","","","","","<img src=""media/stimuli/animate_002_left.png"" class=""coveredImage test"" style = ""width:100px; height:100px; position:fixed; top:10%;    transform: translate(-50%, -50%);left:44.5%""></img><img src=""media/stimuli/animate_002_left.png"" class=""coveredImage test"" style = ""width:100px; height:100px; position:fixed; top:10%;    transform: translate(-50%, -50%);left:51.5%""></img><img src=""media/stimuli/animate_002_right.png"" class=""coveredImage test"" style = ""width:100px; height:100px;position:fixed; top:25%;        transform: translate(-50%, -50%);left:34.5%""></img><img src=""media/stimuli/animate_002_right.png"" class=""coveredImage test"" style = ""width:100px; height:100px;position:fixed; top:25%;        transform: translate(-50%, -50%);left:41.5%""></img><img src=""media/stimuli/animate_006_left.png"" class=""coveredImage test"" style = ""width:100px; height:100px;position:fixed; top:25%;        transform: translate(-50%, -50%);left:54.5%""></img><img src=""media/stimuli/animate_006_left.png"" class=""coveredImage test"" style = ""width:100px; height:100px;position:fixed; top:25%;        transform: translate(-50%, -50%);left:61.5%""></img><img src=""media/f.png""style = ""width:30px x; height:30px;position:fixed; top:43%;    transform: translate(-50%, -50%);left:40%""></img><img src=""media/j.png""style = ""width:30px; height:30px;position:fixed; top:43%;    transform: translate(-50%, -50%);left:60%""></img>","media/stimuli/animate_002_left.png","animate","left","pair","media/stimuli/animate_002_right.png","animate","right","pair","media/stimuli/animate_006_left.png","animate","left","pair","pose_identity"
"","","","","","html-keyboard-response","78","370861","0.0-78.0","SS1678233175240","62bdc30224534809032cf056","6406d7f26dd5b7fc1e3377bd","6407ce532e2694c0e6a115c8","2560","1297","","2894","","f","","","","","","","<img src=""media/stimuli/animate_010_left.png"" class=""coveredImage test"" style = ""width:100px; height:100px; position:fixed; top:10%;    transform: translate(-50%, -50%);left:48%""></img><img src=""media/stimuli/animate_010_left.png"" class=""coveredImage test"" style = ""width:100px; height:100px;position:fixed; top:25%;        transform: translate(-50%, -50%);left:34.5%""></img><img src=""media/stimuli/animate_010_left.png"" class=""coveredImage test"" style = ""width:100px; height:100px;position:fixed; top:25%;        transform: translate(-50%, -50%);left:41.5%""></img><img src=""media/stimuli/animate_010_right.png"" class=""coveredImage test"" style = ""width:100px; height:100px;position:fixed; top:25%;        transform: translate(-50%, -50%);left:58%""></img><img src=""media/f.png""style = ""width:30px x; height:30px;position:fixed; top:43%;    transform: translate(-50%, -50%);left:40%""></img><img src=""media/j.png""style = ""width:30px; height:30px;position:fixed; top:43%;    transform: translate(-50%, -50%);left:60%""></img>","media/stimuli/animate_010_left.png","animate","left","single","media/stimuli/animate_010_left.png","animate","left","pair","media/stimuli/animate_010_right.png","animate","right","single","number_pose"
"","","","","","html-keyboard-response","79","372533","0.0-79.0","SS1678233175240","62bdc30224534809032cf056","6406d7f26dd5b7fc1e3377bd","6407ce532e2694c0e6a115c8","2560","1297","","1670","","j","","","","","","","<img src=""media/stimuli/inanimate_008_left.png"" class=""coveredImage test"" style = ""width:100px; height:100px; position:fixed; top:10%;    transform: translate(-50%, -50%);left:48%""></img><img src=""media/stimuli/inanimate_004_left.png"" class=""coveredImage test"" style = ""width:100px; height:100px;position:fixed; top:25%;        transform: translate(-50%, -50%);left:38%""></img><img src=""media/stimuli/inanimate_008_left.png"" class=""coveredImage test"" style = ""width:100px; height:100px;position:fixed; top:25%;        transform: translate(-50%, -50%);left:54.5%""></img><img src=""media/stimuli/inanimate_008_left.png"" class=""coveredImage test"" style = ""width:100px; height:100px;position:fixed; top:25%;        transform: translate(-50%, -50%);left:61.5%""></img><img src=""media/f.png""style = ""width:30px x; height:30px;position:fixed; top:43%;    transform: translate(-50%, -50%);left:40%""></img><img src=""media/j.png""style = ""width:30px; height:30px;position:fixed; top:43%;    transform: translate(-50%, -50%);left:60%""></img>","media/stimuli/inanimate_008_left.png","inanimate","left","single","media/stimuli/inanimate_004_left.png","inanimate","left","single","media/stimuli/inanimate_008_left.png","inanimate","left","pair","identity_number"
"","","","","","html-keyboard-response","80","376022","0.0-80.0","SS1678233175240","62bdc30224534809032cf056","6406d7f26dd5b7fc1e3377bd","6407ce532e2694c0e6a115c8","2560","1297","","3486","","f","","","","","","","<img src=""media/stimuli/animate_011_right.png"" class=""coveredImage test"" style = ""width:100px; height:100px; position:fixed; top:10%;    transform: translate(-50%, -50%);left:48%""></img><img src=""media/stimuli/animate_012_right.png"" class=""coveredImage test"" style = ""width:100px; height:100px;position:fixed; top:25%;        transform: translate(-50%, -50%);left:38%""></img><img src=""media/stimuli/animate_011_left.png"" class=""coveredImage test"" style = ""width:100px; height:100px;position:fixed; top:25%;        transform: translate(-50%, -50%);left:58%""></img><img src=""media/f.png""style = ""width:30px x; height:30px;position:fixed; top:43%;    transform: translate(-50%, -50%);left:40%""></img><img src=""media/j.png""style = ""width:30px; height:30px;position:fixed; top:43%;    transform: translate(-50%, -50%);left:60%""></img>","media/stimuli/animate_011_right.png","animate","right","single","media/stimuli/animate_012_right.png","animate","right","single","media/stimuli/animate_011_left.png","animate","left","single","identity_pose"
"","","","","","html-keyboard-response","81","377581","0.0-81.0","SS1678233175240","62bdc30224534809032cf056","6406d7f26dd5b7fc1e3377bd","6407ce532e2694c0e6a115c8","2560","1297","","1557","","f","","","","","","","<img src=""media/stimuli/inanimate_009_left.png"" class=""coveredImage test"" style = ""width:100px; height:100px; position:fixed; top:10%;    transform: translate(-50%, -50%);left:48%""></img><img src=""media/stimuli/inanimate_009_left.png"" class=""coveredImage test"" style = ""width:100px; height:100px;position:fixed; top:25%;        transform: translate(-50%, -50%);left:34.5%""></img><img src=""media/stimuli/inanimate_009_left.png"" class=""coveredImage test"" style = ""width:100px; height:100px;position:fixed; top:25%;        transform: translate(-50%, -50%);left:41.5%""></img><img src=""media/stimuli/inanimate_009_right.png"" class=""coveredImage test"" style = ""width:100px; height:100px;position:fixed; top:25%;        transform: translate(-50%, -50%);left:58%""></img><img src=""media/f.png""style = ""width:30px x; height:30px;position:fixed; top:43%;    transform: translate(-50%, -50%);left:40%""></img><img src=""media/j.png""style = ""width:30px; height:30px;position:fixed; top:43%;    transform: translate(-50%, -50%);left:60%""></img>","media/stimuli/inanimate_009_left.png","inanimate","left","single","media/stimuli/inanimate_009_left.png","inanimate","left","pair","media/stimuli/inanimate_009_right.png","inanimate","right","single","number_pose"
"","","","","","html-keyboard-response","82","379693","0.0-82.0","SS1678233175240","62bdc30224534809032cf056","6406d7f26dd5b7fc1e3377bd","6407ce532e2694c0e6a115c8","2560","1297","","2110","","f","","","","","","","<img src=""media/stimuli/inanimate_005_left.png"" class=""coveredImage test"" style = ""width:100px; height:100px; position:fixed; top:10%;    transform: translate(-50%, -50%);left:48%""></img><img src=""media/stimuli/inanimate_006_left.png"" class=""coveredImage test"" style = ""width:100px; height:100px;position:fixed; top:25%;        transform: translate(-50%, -50%);left:38%""></img><img src=""media/stimuli/inanimate_005_right.png"" class=""coveredImage test"" style = ""width:100px; height:100px;position:fixed; top:25%;        transform: translate(-50%, -50%);left:58%""></img><img src=""media/f.png""style = ""width:30px x; height:30px;position:fixed; top:43%;    transform: translate(-50%, -50%);left:40%""></img><img src=""media/j.png""style = ""width:30px; height:30px;position:fixed; top:43%;    transform: translate(-50%, -50%);left:60%""></img>","media/stimuli/inanimate_005_left.png","inanimate","left","single","media/stimuli/inanimate_006_left.png","inanimate","left","single","media/stimuli/inanimate_005_right.png","inanimate","right","single","identity_pose"
"","","","","","html-keyboard-response","83","381157","0.0-83.0","SS1678233175240","62bdc30224534809032cf056","6406d7f26dd5b7fc1e3377bd","6407ce532e2694c0e6a115c8","2560","1297","","1462","","f","","","","","","","<img src=""media/stimuli/inanimate_004_left.png"" class=""coveredImage test"" style = ""width:100px; height:100px; position:fixed; top:10%;    transform: translate(-50%, -50%);left:48%""></img><img src=""media/stimuli/inanimate_004_left.png"" class=""coveredImage test"" style = ""width:100px; height:100px;position:fixed; top:25%;        transform: translate(-50%, -50%);left:34.5%""></img><img src=""media/stimuli/inanimate_004_left.png"" class=""coveredImage test"" style = ""width:100px; height:100px;position:fixed; top:25%;        transform: translate(-50%, -50%);left:41.5%""></img><img src=""media/stimuli/inanimate_005_left.png"" class=""coveredImage test"" style = ""width:100px; height:100px;position:fixed; top:25%;        transform: translate(-50%, -50%);left:58%""></img><img src=""media/f.png""style = ""width:30px x; height:30px;position:fixed; top:43%;    transform: translate(-50%, -50%);left:40%""></img><img src=""media/j.png""style = ""width:30px; height:30px;position:fixed; top:43%;    transform: translate(-50%, -50%);left:60%""></img>","media/stimuli/inanimate_004_left.png","inanimate","left","single","media/stimuli/inanimate_004_left.png","inanimate","left","pair","media/stimuli/inanimate_005_left.png","inanimate","left","single","number_identity"
"","","","","","html-keyboard-response","84","383029","0.0-84.0","SS1678233175240","62bdc30224534809032cf056","6406d7f26dd5b7fc1e3377bd","6407ce532e2694c0e6a115c8","2560","1297","","1870","","f","","","","","","","<img src=""media/stimuli/animate_007_right.png"" class=""coveredImage test"" style = ""width:100px; height:100px; position:fixed; top:10%;    transform: translate(-50%, -50%);left:44.5%""></img><img src=""media/stimuli/animate_007_right.png"" class=""coveredImage test"" style = ""width:100px; height:100px; position:fixed; top:10%;    transform: translate(-50%, -50%);left:51.5%""></img><img src=""media/stimuli/animate_007_right.png"" class=""coveredImage test"" style = ""width:100px; height:100px;position:fixed; top:25%;        transform: translate(-50%, -50%);left:38%""></img><img src=""media/stimuli/animate_004_right.png"" class=""coveredImage test"" style = ""width:100px; height:100px;position:fixed; top:25%;        transform: translate(-50%, -50%);left:54.5%""></img><img src=""media/stimuli/animate_004_right.png"" class=""coveredImage test"" style = ""width:100px; height:100px;position:fixed; top:25%;        transform: translate(-50%, -50%);left:61.5%""></img><img src=""media/f.png""style = ""width:30px x; height:30px;position:fixed; top:43%;    transform: translate(-50%, -50%);left:40%""></img><img src=""media/j.png""style = ""width:30px; height:30px;position:fixed; top:43%;    transform: translate(-50%, -50%);left:60%""></img>","media/stimuli/animate_007_right.png","animate","right","pair","media/stimuli/animate_007_right.png","animate","right","single","media/stimuli/animate_004_right.png","animate","right","pair","number_identity"
"","","","","","html-keyboard-response","85","384269","0.0-85.0","SS1678233175240","62bdc30224534809032cf056","6406d7f26dd5b7fc1e3377bd","6407ce532e2694c0e6a115c8","2560","1297","","1238","","f","","","","","","","<img src=""media/stimuli/inanimate_006_left.png"" class=""coveredImage test"" style = ""width:100px; height:100px; position:fixed; top:10%;    transform: translate(-50%, -50%);left:44.5%""></img><img src=""media/stimuli/inanimate_006_left.png"" class=""coveredImage test"" style = ""width:100px; height:100px; position:fixed; top:10%;    transform: translate(-50%, -50%);left:51.5%""></img><img src=""media/stimuli/inanimate_006_left.png"" class=""coveredImage test"" style = ""width:100px; height:100px;position:fixed; top:25%;        transform: translate(-50%, -50%);left:38%""></img><img src=""media/stimuli/animate_001_left.png"" class=""coveredImage test"" style = ""width:100px; height:100px;position:fixed; top:25%;        transform: translate(-50%, -50%);left:54.5%""></img><img src=""media/stimuli/animate_001_left.png"" class=""coveredImage test"" style = ""width:100px; height:100px;position:fixed; top:25%;        transform: translate(-50%, -50%);left:61.5%""></img><img src=""media/f.png""style = ""width:30px x; height:30px;position:fixed; top:43%;    transform: translate(-50%, -50%);left:40%""></img><img src=""media/j.png""style = ""width:30px; height:30px;position:fixed; top:43%;    transform: translate(-50%, -50%);left:60%""></img>","media/stimuli/inanimate_006_left.png","inanimate","left","pair","media/stimuli/inanimate_006_left.png","inanimate","left","single","media/stimuli/animate_001_left.png","animate","left","pair","number_animacy"
"","","","","","html-keyboard-response","86","386406","0.0-86.0","SS1678233175240","62bdc30224534809032cf056","6406d7f26dd5b7fc1e3377bd","6407ce532e2694c0e6a115c8","2560","1297","","2134","","f","","","","","","","<img src=""media/stimuli/inanimate_003_right.png"" class=""coveredImage test"" style = ""width:100px; height:100px; position:fixed; top:10%;    transform: translate(-50%, -50%);left:44.5%""></img><img src=""media/stimuli/inanimate_003_right.png"" class=""coveredImage test"" style = ""width:100px; height:100px; position:fixed; top:10%;    transform: translate(-50%, -50%);left:51.5%""></img><img src=""media/stimuli/inanimate_003_right.png"" class=""coveredImage test"" style = ""width:100px; height:100px;position:fixed; top:25%;        transform: translate(-50%, -50%);left:38%""></img><img src=""media/stimuli/inanimate_003_left.png"" class=""coveredImage test"" style = ""width:100px; height:100px;position:fixed; top:25%;        transform: translate(-50%, -50%);left:54.5%""></img><img src=""media/stimuli/inanimate_003_left.png"" class=""coveredImage test"" style = ""width:100px; height:100px;position:fixed; top:25%;        transform: translate(-50%, -50%);left:61.5%""></img><img src=""media/f.png""style = ""width:30px x; height:30px;position:fixed; top:43%;    transform: translate(-50%, -50%);left:40%""></img><img src=""media/j.png""style = ""width:30px; height:30px;position:fixed; top:43%;    transform: translate(-50%, -50%);left:60%""></img>","media/stimuli/inanimate_003_right.png","inanimate","right","pair","media/stimuli/inanimate_003_right.png","inanimate","right","single","media/stimuli/inanimate_003_left.png","inanimate","left","pair","number_pose"
"","","","","","html-keyboard-response","87","388429","0.0-87.0","SS1678233175240","62bdc30224534809032cf056","6406d7f26dd5b7fc1e3377bd","6407ce532e2694c0e6a115c8","2560","1297","","2021","","f","","","","","","","<img src=""media/stimuli/animate_004_right.png"" class=""coveredImage test"" style = ""width:100px; height:100px; position:fixed; top:10%;    transform: translate(-50%, -50%);left:48%""></img><img src=""media/stimuli/inanimate_007_right.png"" class=""coveredImage test"" style = ""width:100px; height:100px;position:fixed; top:25%;        transform: translate(-50%, -50%);left:38%""></img><img src=""media/stimuli/animate_003_right.png"" class=""coveredImage test"" style = ""width:100px; height:100px;position:fixed; top:25%;        transform: translate(-50%, -50%);left:58%""></img><img src=""media/f.png""style = ""width:30px x; height:30px;position:fixed; top:43%;    transform: translate(-50%, -50%);left:40%""></img><img src=""media/j.png""style = ""width:30px; height:30px;position:fixed; top:43%;    transform: translate(-50%, -50%);left:60%""></img>","media/stimuli/animate_004_right.png","animate","right","single","media/stimuli/inanimate_007_right.png","inanimate","right","single","media/stimuli/animate_003_right.png","animate","right","single","animacy_identity"
"","","","","","html-keyboard-response","88","390093","0.0-88.0","SS1678233175240","62bdc30224534809032cf056","6406d7f26dd5b7fc1e3377bd","6407ce532e2694c0e6a115c8","2560","1297","","1662","","f","","","","","","","<img src=""media/stimuli/inanimate_007_right.png"" class=""coveredImage test"" style = ""width:100px; height:100px; position:fixed; top:10%;    transform: translate(-50%, -50%);left:48%""></img><img src=""media/stimuli/inanimate_007_right.png"" class=""coveredImage test"" style = ""width:100px; height:100px;position:fixed; top:25%;        transform: translate(-50%, -50%);left:34.5%""></img><img src=""media/stimuli/inanimate_007_right.png"" class=""coveredImage test"" style = ""width:100px; height:100px;position:fixed; top:25%;        transform: translate(-50%, -50%);left:41.5%""></img><img src=""media/stimuli/inanimate_007_left.png"" class=""coveredImage test"" style = ""width:100px; height:100px;position:fixed; top:25%;        transform: translate(-50%, -50%);left:58%""></img><img src=""media/f.png""style = ""width:30px x; height:30px;position:fixed; top:43%;    transform: translate(-50%, -50%);left:40%""></img><img src=""media/j.png""style = ""width:30px; height:30px;position:fixed; top:43%;    transform: translate(-50%, -50%);left:60%""></img>","media/stimuli/inanimate_007_right.png","inanimate","right","single","media/stimuli/inanimate_007_right.png","inanimate","right","pair","media/stimuli/inanimate_007_left.png","inanimate","left","single","number_pose"
"","","","","","html-keyboard-response","89","391517","0.0-89.0","SS1678233175240","62bdc30224534809032cf056","6406d7f26dd5b7fc1e3377bd","6407ce532e2694c0e6a115c8","2560","1297","","1422","","f","","","","","","","","","","","","","","","","","","","",""
"","","","","","html-keyboard-response","90","392781","0.0-90.0","SS1678233175240","62bdc30224534809032cf056","6406d7f26dd5b7fc1e3377bd","6407ce532e2694c0e6a115c8","2560","1297","","1262","","f","","","","","","","<img src=""media/stimuli/inanimate_004_right.png"" class=""coveredImage test"" style = ""width:100px; height:100px; position:fixed; top:10%;    transform: translate(-50%, -50%);left:44.5%""></img><img src=""media/stimuli/inanimate_004_right.png"" class=""coveredImage test"" style = ""width:100px; height:100px; position:fixed; top:10%;    transform: translate(-50%, -50%);left:51.5%""></img><img src=""media/stimuli/inanimate_004_right.png"" class=""coveredImage test"" style = ""width:100px; height:100px;position:fixed; top:25%;        transform: translate(-50%, -50%);left:38%""></img><img src=""media/stimuli/animate_009_right.png"" class=""coveredImage test"" style = ""width:100px; height:100px;position:fixed; top:25%;        transform: translate(-50%, -50%);left:54.5%""></img><img src=""media/stimuli/animate_009_right.png"" class=""coveredImage test"" style = ""width:100px; height:100px;position:fixed; top:25%;        transform: translate(-50%, -50%);left:61.5%""></img><img src=""media/f.png""style = ""width:30px x; height:30px;position:fixed; top:43%;    transform: translate(-50%, -50%);left:40%""></img><img src=""media/j.png""style = ""width:30px; height:30px;position:fixed; top:43%;    transform: translate(-50%, -50%);left:60%""></img>","media/stimuli/inanimate_004_right.png","inanimate","right","pair","media/stimuli/inanimate_004_right.png","inanimate","right","single","media/stimuli/animate_009_right.png","animate","right","pair","number_animacy"
"","","","","","html-keyboard-response","91","394653","0.0-91.0","SS1678233175240","62bdc30224534809032cf056","6406d7f26dd5b7fc1e3377bd","6407ce532e2694c0e6a115c8","2560","1297","","1870","","f","","","","","","","<img src=""media/stimuli/animate_005_right.png"" class=""coveredImage test"" style = ""width:100px; height:100px; position:fixed; top:10%;    transform: translate(-50%, -50%);left:48%""></img><img src=""media/stimuli/animate_005_right.png"" class=""coveredImage test"" style = ""width:100px; height:100px;position:fixed; top:25%;        transform: translate(-50%, -50%);left:34.5%""></img><img src=""media/stimuli/animate_005_right.png"" class=""coveredImage test"" style = ""width:100px; height:100px;position:fixed; top:25%;        transform: translate(-50%, -50%);left:41.5%""></img><img src=""media/stimuli/inanimate_012_right.png"" class=""coveredImage test"" style = ""width:100px; height:100px;position:fixed; top:25%;        transform: translate(-50%, -50%);left:58%""></img><img src=""media/f.png""style = ""width:30px x; height:30px;position:fixed; top:43%;    transform: translate(-50%, -50%);left:40%""></img><img src=""media/j.png""style = ""width:30px; height:30px;position:fixed; top:43%;    transform: translate(-50%, -50%);left:60%""></img>","media/stimuli/animate_005_right.png","animate","right","single","media/stimuli/animate_005_right.png","animate","right","pair","media/stimuli/inanimate_012_right.png","inanimate","right","single","number_animacy"
"","","","","","html-keyboard-response","92","395949","0.0-92.0","SS1678233175240","62bdc30224534809032cf056","6406d7f26dd5b7fc1e3377bd","6407ce532e2694c0e6a115c8","2560","1297","","1294","","j","","","","","","","<img src=""media/stimuli/animate_010_left.png"" class=""coveredImage test"" style = ""width:100px; height:100px; position:fixed; top:10%;    transform: translate(-50%, -50%);left:44.5%""></img><img src=""media/stimuli/animate_010_left.png"" class=""coveredImage test"" style = ""width:100px; height:100px; position:fixed; top:10%;    transform: translate(-50%, -50%);left:51.5%""></img><img src=""media/stimuli/animate_004_left.png"" class=""coveredImage test"" style = ""width:100px; height:100px;position:fixed; top:25%;        transform: translate(-50%, -50%);left:34.5%""></img><img src=""media/stimuli/animate_004_left.png"" class=""coveredImage test"" style = ""width:100px; height:100px;position:fixed; top:25%;        transform: translate(-50%, -50%);left:41.5%""></img><img src=""media/stimuli/animate_010_left.png"" class=""coveredImage test"" style = ""width:100px; height:100px;position:fixed; top:25%;        transform: translate(-50%, -50%);left:54.5%""></img><img src=""media/stimuli/animate_010_left.png"" class=""coveredImage test"" style = ""width:100px; height:100px;position:fixed; top:25%;        transform: translate(-50%, -50%);left:61.5%""></img><img src=""media/f.png""style = ""width:30px x; height:30px;position:fixed; top:43%;    transform: translate(-50%, -50%);left:40%""></img><img src=""media/j.png""style = ""width:30px; height:30px;position:fixed; top:43%;    transform: translate(-50%, -50%);left:60%""></img>","media/stimuli/animate_010_left.png","animate","left","pair","media/stimuli/animate_004_left.png","animate","left","pair","media/stimuli/animate_010_left.png","animate","left","pair","identity_filler"
"","","","","","html-keyboard-response","93","397318","0.0-93.0","SS1678233175240","62bdc30224534809032cf056","6406d7f26dd5b7fc1e3377bd","6407ce532e2694c0e6a115c8","2560","1297","","1366","","f","","","","","","","<img src=""media/stimuli/animate_002_left.png"" class=""coveredImage test"" style = ""width:100px; height:100px; position:fixed; top:10%;    transform: translate(-50%, -50%);left:48%""></img><img src=""media/stimuli/animate_002_left.png"" class=""coveredImage test"" style = ""width:100px; height:100px;position:fixed; top:25%;        transform: translate(-50%, -50%);left:38%""></img><img src=""media/stimuli/inanimate_004_right.png"" class=""coveredImage test"" style = ""width:100px; height:100px;position:fixed; top:25%;        transform: translate(-50%, -50%);left:58%""></img><img src=""media/f.png""style = ""width:30px x; height:30px;position:fixed; top:43%;    transform: translate(-50%, -50%);left:40%""></img><img src=""media/j.png""style = ""width:30px; height:30px;position:fixed; top:43%;    transform: translate(-50%, -50%);left:60%""></img>","media/stimuli/animate_002_left.png","animate","left","single","media/stimuli/animate_002_left.png","animate","left","single","media/stimuli/inanimate_004_right.png","inanimate","right","single","pose_animacy"
"","","","","","html-keyboard-response","94","399181","0.0-94.0","SS1678233175240","62bdc30224534809032cf056","6406d7f26dd5b7fc1e3377bd","6407ce532e2694c0e6a115c8","2560","1297","","1861","","f","","","","","","","<img src=""media/stimuli/animate_002_right.png"" class=""coveredImage test"" style = ""width:100px; height:100px; position:fixed; top:10%;    transform: translate(-50%, -50%);left:48%""></img><img src=""media/stimuli/animate_002_right.png"" class=""coveredImage test"" style = ""width:100px; height:100px;position:fixed; top:25%;        transform: translate(-50%, -50%);left:38%""></img><img src=""media/stimuli/animate_002_right.png"" class=""coveredImage test"" style = ""width:100px; height:100px;position:fixed; top:25%;        transform: translate(-50%, -50%);left:54.5%""></img><img src=""media/stimuli/animate_002_right.png"" class=""coveredImage test"" style = ""width:100px; height:100px;position:fixed; top:25%;        transform: translate(-50%, -50%);left:61.5%""></img><img src=""media/f.png""style = ""width:30px x; height:30px;position:fixed; top:43%;    transform: translate(-50%, -50%);left:40%""></img><img src=""media/j.png""style = ""width:30px; height:30px;position:fixed; top:43%;    transform: translate(-50%, -50%);left:60%""></img>","media/stimuli/animate_002_right.png","animate","right","single","media/stimuli/animate_002_right.png","animate","right","single","media/stimuli/animate_002_right.png","animate","right","pair","filler_number"
"","","","","","html-keyboard-response","95","400541","0.0-95.0","SS1678233175240","62bdc30224534809032cf056","6406d7f26dd5b7fc1e3377bd","6407ce532e2694c0e6a115c8","2560","1297","","1358","","j","","","","","","","<img src=""media/stimuli/inanimate_007_right.png"" class=""coveredImage test"" style = ""width:100px; height:100px; position:fixed; top:10%;    transform: translate(-50%, -50%);left:48%""></img><img src=""media/stimuli/inanimate_007_left.png"" class=""coveredImage test"" style = ""width:100px; height:100px;position:fixed; top:25%;        transform: translate(-50%, -50%);left:38%""></img><img src=""media/stimuli/inanimate_008_right.png"" class=""coveredImage test"" style = ""width:100px; height:100px;position:fixed; top:25%;        transform: translate(-50%, -50%);left:58%""></img><img src=""media/f.png""style = ""width:30px x; height:30px;position:fixed; top:43%;    transform: translate(-50%, -50%);left:40%""></img><img src=""media/j.png""style = ""width:30px; height:30px;position:fixed; top:43%;    transform: translate(-50%, -50%);left:60%""></img>","media/stimuli/inanimate_007_right.png","inanimate","right","single","media/stimuli/inanimate_007_left.png","inanimate","left","single","media/stimuli/inanimate_008_right.png","inanimate","right","single","pose_identity"
"","","","","","html-keyboard-response","96","402485","0.0-96.0","SS1678233175240","62bdc30224534809032cf056","6406d7f26dd5b7fc1e3377bd","6407ce532e2694c0e6a115c8","2560","1297","","1941","","j","","","","","","","<img src=""media/stimuli/animate_012_left.png"" class=""coveredImage test"" style = ""width:100px; height:100px; position:fixed; top:10%;    transform: translate(-50%, -50%);left:48%""></img><img src=""media/stimuli/animate_012_right.png"" class=""coveredImage test"" style = ""width:100px; height:100px;position:fixed; top:25%;        transform: translate(-50%, -50%);left:38%""></img><img src=""media/stimuli/animate_012_left.png"" class=""coveredImage test"" style = ""width:100px; height:100px;position:fixed; top:25%;        transform: translate(-50%, -50%);left:54.5%""></img><img src=""media/stimuli/animate_012_left.png"" class=""coveredImage test"" style = ""width:100px; height:100px;position:fixed; top:25%;        transform: translate(-50%, -50%);left:61.5%""></img><img src=""media/f.png""style = ""width:30px x; height:30px;position:fixed; top:43%;    transform: translate(-50%, -50%);left:40%""></img><img src=""media/j.png""style = ""width:30px; height:30px;position:fixed; top:43%;    transform: translate(-50%, -50%);left:60%""></img>","media/stimuli/animate_012_left.png","animate","left","single","media/stimuli/animate_012_right.png","animate","right","single","media/stimuli/animate_012_left.png","animate","left","pair","pose_number"
"","","","","","html-keyboard-response","97","404021","0.0-97.0","SS1678233175240","62bdc30224534809032cf056","6406d7f26dd5b7fc1e3377bd","6407ce532e2694c0e6a115c8","2560","1297","","1533","","f","","","","","","","<img src=""media/stimuli/animate_008_right.png"" class=""coveredImage test"" style = ""width:100px; height:100px; position:fixed; top:10%;    transform: translate(-50%, -50%);left:48%""></img><img src=""media/stimuli/animate_008_right.png"" class=""coveredImage test"" style = ""width:100px; height:100px;position:fixed; top:25%;        transform: translate(-50%, -50%);left:34.5%""></img><img src=""media/stimuli/animate_008_right.png"" class=""coveredImage test"" style = ""width:100px; height:100px;position:fixed; top:25%;        transform: translate(-50%, -50%);left:41.5%""></img><img src=""media/stimuli/animate_004_right.png"" class=""coveredImage test"" style = ""width:100px; height:100px;position:fixed; top:25%;        transform: translate(-50%, -50%);left:58%""></img><img src=""media/f.png""style = ""width:30px x; height:30px;position:fixed; top:43%;    transform: translate(-50%, -50%);left:40%""></img><img src=""media/j.png""style = ""width:30px; height:30px;position:fixed; top:43%;    transform: translate(-50%, -50%);left:60%""></img>","media/stimuli/animate_008_right.png","animate","right","single","media/stimuli/animate_008_right.png","animate","right","pair","media/stimuli/animate_004_right.png","animate","right","single","number_identity"
"","","","","","html-keyboard-response","98","405461","0.0-98.0","SS1678233175240","62bdc30224534809032cf056","6406d7f26dd5b7fc1e3377bd","6407ce532e2694c0e6a115c8","2560","1297","","1437","","j","","","","","","","<img src=""media/stimuli/inanimate_010_left.png"" class=""coveredImage test"" style = ""width:100px; height:100px; position:fixed; top:10%;    transform: translate(-50%, -50%);left:44.5%""></img><img src=""media/stimuli/inanimate_010_left.png"" class=""coveredImage test"" style = ""width:100px; height:100px; position:fixed; top:10%;    transform: translate(-50%, -50%);left:51.5%""></img><img src=""media/stimuli/animate_005_left.png"" class=""coveredImage test"" style = ""width:100px; height:100px;position:fixed; top:25%;        transform: translate(-50%, -50%);left:34.5%""></img><img src=""media/stimuli/animate_005_left.png"" class=""coveredImage test"" style = ""width:100px; height:100px;position:fixed; top:25%;        transform: translate(-50%, -50%);left:41.5%""></img><img src=""media/stimuli/inanimate_008_left.png"" class=""coveredImage test"" style = ""width:100px; height:100px;position:fixed; top:25%;        transform: translate(-50%, -50%);left:54.5%""></img><img src=""media/stimuli/inanimate_008_left.png"" class=""coveredImage test"" style = ""width:100px; height:100px;position:fixed; top:25%;        transform: translate(-50%, -50%);left:61.5%""></img><img src=""media/f.png""style = ""width:30px x; height:30px;position:fixed; top:43%;    transform: translate(-50%, -50%);left:40%""></img><img src=""media/j.png""style = ""width:30px; height:30px;position:fixed; top:43%;    transform: translate(-50%, -50%);left:60%""></img>","media/stimuli/inanimate_010_left.png","inanimate","left","pair","media/stimuli/animate_005_left.png","animate","left","pair","media/stimuli/inanimate_008_left.png","inanimate","left","pair","animacy_identity"
"","","","","","html-keyboard-response","99","408734","0.0-99.0","SS1678233175240","62bdc30224534809032cf056","6406d7f26dd5b7fc1e3377bd","6407ce532e2694c0e6a115c8","2560","1297","","3270","","j","","","","","","","<img src=""media/stimuli/inanimate_009_right.png"" class=""coveredImage test"" style = ""width:100px; height:100px; position:fixed; top:10%;    transform: translate(-50%, -50%);left:44.5%""></img><img src=""media/stimuli/inanimate_009_right.png"" class=""coveredImage test"" style = ""width:100px; height:100px; position:fixed; top:10%;    transform: translate(-50%, -50%);left:51.5%""></img><img src=""media/stimuli/animate_002_right.png"" class=""coveredImage test"" style = ""width:100px; height:100px;position:fixed; top:25%;        transform: translate(-50%, -50%);left:34.5%""></img><img src=""media/stimuli/animate_002_right.png"" class=""coveredImage test"" style = ""width:100px; height:100px;position:fixed; top:25%;        transform: translate(-50%, -50%);left:41.5%""></img><img src=""media/stimuli/inanimate_007_right.png"" class=""coveredImage test"" style = ""width:100px; height:100px;position:fixed; top:25%;        transform: translate(-50%, -50%);left:54.5%""></img><img src=""media/stimuli/inanimate_007_right.png"" class=""coveredImage test"" style = ""width:100px; height:100px;position:fixed; top:25%;        transform: translate(-50%, -50%);left:61.5%""></img><img src=""media/f.png""style = ""width:30px x; height:30px;position:fixed; top:43%;    transform: translate(-50%, -50%);left:40%""></img><img src=""media/j.png""style = ""width:30px; height:30px;position:fixed; top:43%;    transform: translate(-50%, -50%);left:60%""></img>","media/stimuli/inanimate_009_right.png","inanimate","right","pair","media/stimuli/animate_002_right.png","animate","right","pair","media/stimuli/inanimate_007_right.png","inanimate","right","pair","animacy_identity"
"","","","","","html-keyboard-response","100","410109","0.0-100.0","SS1678233175240","62bdc30224534809032cf056","6406d7f26dd5b7fc1e3377bd","6407ce532e2694c0e6a115c8","2560","1297","","1373","","j","","","","","","","<img src=""media/stimuli/inanimate_005_left.png"" class=""coveredImage test"" style = ""width:100px; height:100px; position:fixed; top:10%;    transform: translate(-50%, -50%);left:48%""></img><img src=""media/stimuli/inanimate_005_right.png"" class=""coveredImage test"" style = ""width:100px; height:100px;position:fixed; top:25%;        transform: translate(-50%, -50%);left:38%""></img><img src=""media/stimuli/inanimate_008_left.png"" class=""coveredImage test"" style = ""width:100px; height:100px;position:fixed; top:25%;        transform: translate(-50%, -50%);left:58%""></img><img src=""media/f.png""style = ""width:30px x; height:30px;position:fixed; top:43%;    transform: translate(-50%, -50%);left:40%""></img><img src=""media/j.png""style = ""width:30px; height:30px;position:fixed; top:43%;    transform: translate(-50%, -50%);left:60%""></img>","media/stimuli/inanimate_005_left.png","inanimate","left","single","media/stimuli/inanimate_005_right.png","inanimate","right","single","media/stimuli/inanimate_008_left.png","inanimate","left","single","pose_identity"
"","","","","","html-keyboard-response","101","411533","0.0-101.0","SS1678233175240","62bdc30224534809032cf056","6406d7f26dd5b7fc1e3377bd","6407ce532e2694c0e6a115c8","2560","1297","","1421","","f","","","","","","","<img src=""media/stimuli/animate_004_right.png"" class=""coveredImage test"" style = ""width:100px; height:100px; position:fixed; top:10%;    transform: translate(-50%, -50%);left:44.5%""></img><img src=""media/stimuli/animate_004_right.png"" class=""coveredImage test"" style = ""width:100px; height:100px; position:fixed; top:10%;    transform: translate(-50%, -50%);left:51.5%""></img><img src=""media/stimuli/inanimate_008_right.png"" class=""coveredImage test"" style = ""width:100px; height:100px;position:fixed; top:25%;        transform: translate(-50%, -50%);left:34.5%""></img><img src=""media/stimuli/inanimate_008_right.png"" class=""coveredImage test"" style = ""width:100px; height:100px;position:fixed; top:25%;        transform: translate(-50%, -50%);left:41.5%""></img><img src=""media/stimuli/animate_004_right.png"" class=""coveredImage test"" style = ""width:100px; height:100px;position:fixed; top:25%;        transform: translate(-50%, -50%);left:58%""></img><img src=""media/f.png""style = ""width:30px x; height:30px;position:fixed; top:43%;    transform: translate(-50%, -50%);left:40%""></img><img src=""media/j.png""style = ""width:30px; height:30px;position:fixed; top:43%;    transform: translate(-50%, -50%);left:60%""></img>","media/stimuli/animate_004_right.png","animate","right","pair","media/stimuli/inanimate_008_right.png","inanimate","right","pair","media/stimuli/animate_004_right.png","animate","right","single","animacy_number"
"","","","","","html-keyboard-response","102","412405","0.0-102.0","SS1678233175240","62bdc30224534809032cf056","6406d7f26dd5b7fc1e3377bd","6407ce532e2694c0e6a115c8","2560","1297","","870","","j","","","","","","","","","","","","","","","","","","","",""
"","","","","","survey-likert","103","416491","0.0-103.0","SS1678233175240","62bdc30224534809032cf056","6406d7f26dd5b7fc1e3377bd","6407ce532e2694c0e6a115c8","2560","1297","","4083","","{""Q0"":4}","[0]","complexity","media/stimuli/animate_006_right.png","animate","single","right","","","","","","","","","","","","","",""
"","","","","","survey-likert","104","419779","0.0-104.0","SS1678233175240","62bdc30224534809032cf056","6406d7f26dd5b7fc1e3377bd","6407ce532e2694c0e6a115c8","2560","1297","","3284","","{""Q0"":4}","[0]","complexity","media/stimuli/animate_003_left.png","animate","pair","left","","","","","","","","","","","","","",""
"","","","","","survey-likert","105","422103","0.0-105.0","SS1678233175240","62bdc30224534809032cf056","6406d7f26dd5b7fc1e3377bd","6407ce532e2694c0e6a115c8","2560","1297","","2320","","{""Q0"":2}","[0]","complexity","media/stimuli/inanimate_002_left.png","inanimate","single","left","","","","","","","","","","","","","",""
"","","","","","survey-likert","106","424443","0.0-106.0","SS1678233175240","62bdc30224534809032cf056","6406d7f26dd5b7fc1e3377bd","6407ce532e2694c0e6a115c8","2560","1297","","2336","","{""Q0"":1}","[0]","complexity","media/stimuli/animate_007_right.png","animate","single","right","","","","","","","","","","","","","",""
"","","","","","survey-likert","107","427417","0.0-107.0","SS1678233175240","62bdc30224534809032cf056","6406d7f26dd5b7fc1e3377bd","6407ce532e2694c0e6a115c8","2560","1297","","2970","","{""Q0"":1}","[0]","complexity","media/stimuli/animate_010_right.png","animate","single","right","","","","","","","","","","","","","",""
"","","","","","survey-likert","108","430301","0.0-108.0","SS1678233175240","62bdc30224534809032cf056","6406d7f26dd5b7fc1e3377bd","6407ce532e2694c0e6a115c8","2560","1297","","2879","","{""Q0"":2}","[0]","complexity","media/stimuli/animate_008_left.png","animate","pair","left","","","","","","","","","","","","","",""
"","","","","","survey-likert","109","432487","0.0-109.0","SS1678233175240","62bdc30224534809032cf056","6406d7f26dd5b7fc1e3377bd","6407ce532e2694c0e6a115c8","2560","1297","","2182","","{""Q0"":1}","[0]","complexity","media/stimuli/inanimate_011_right.png","inanimate","single","right","","","","","","","","","","","","","",""
