"success","timeout","failed_images","failed_audio","failed_video","trial_type","trial_index","time_elapsed","internal_node_id","subject","prolific_id","study","session","window_width","window_height","view_history","rt","stimulus_type","response","question_order","rating_type","rating_stimulus","rating_animacy","rating_number","rating_pose","stimulus","target","target_animacy","target_pose","target_number","left","left_animacy","left_pose","left_number","right","right_animacy","right_pose","right_number","comparison_type"
"true","false","[]","[]","[]","preload","0","7631","0.0-0.0","SS1678233217408","5cbe04b4f429ff00159de30e","6406d7f26dd5b7fc1e3377bd","6407ce7076ca6a56298a7ea0","1138","569","","","","","","","","","","","","","","","","","","","","","","","",""
"","","","","","instructions","1","11067","0.0-1.0","SS1678233217408","5cbe04b4f429ff00159de30e","6406d7f26dd5b7fc1e3377bd","6407ce7076ca6a56298a7ea0","1138","569","[{""page_index"":0,""viewing_time"":3423}]","3426","","","","","","","","","","","","","","","","","","","","","",""
"","","","","","instructions","2","30640","0.0-2.0","SS1678233217408","5cbe04b4f429ff00159de30e","6406d7f26dd5b7fc1e3377bd","6407ce7076ca6a56298a7ea0","1138","569","[{""page_index"":0,""viewing_time"":17560}]","17563","instructions","","","","","","","","","","","","","","","","","","","","",""
"","","","","","instructions","3","37192","0.0-3.0","SS1678233217408","5cbe04b4f429ff00159de30e","6406d7f26dd5b7fc1e3377bd","6407ce7076ca6a56298a7ea0","1138","569","[{""page_index"":0,""viewing_time"":6541}]","6542","instructions","","","","","","","","","","","","","","","","","","","","",""
"","","","","","survey-likert","4","74266","0.0-4.0","SS1678233217408","5cbe04b4f429ff00159de30e","6406d7f26dd5b7fc1e3377bd","6407ce7076ca6a56298a7ea0","1138","569","","37051","","{""Q0"":5}","[0]","anchoring","","","","","","","","","","","","","","","","","",""
"","","","","","survey-likert","5","82126","0.0-5.0","SS1678233217408","5cbe04b4f429ff00159de30e","6406d7f26dd5b7fc1e3377bd","6407ce7076ca6a56298a7ea0","1138","569","","7833","","{""Q0"":1}","[0]","anchoring","","","","","","","","","","","","","","","","","",""
"","","","","","instructions","6","84186","0.0-6.0","SS1678233217408","5cbe04b4f429ff00159de30e","6406d7f26dd5b7fc1e3377bd","6407ce7076ca6a56298a7ea0","1138","569","[{""page_index"":0,""viewing_time"":2038}]","2039","instructions","","","","","","","","","","","","","","","","","","","","",""
"true","","","","","fullscreen","7","87065","0.0-7.0","SS1678233217408","5cbe04b4f429ff00159de30e","6406d7f26dd5b7fc1e3377bd","6407ce7076ca6a56298a7ea0","1138","569","","","","","","","","","","","","","","","","","","","","","","","",""
"","","","","","survey-likert","8","95822","0.0-8.0","SS1678233217408","5cbe04b4f429ff00159de30e","6406d7f26dd5b7fc1e3377bd","6407ce7076ca6a56298a7ea0","1138","569","","8734","","{""Q0"":2}","[0]","complexity","media/stimuli/animate_001_left.png","animate","single","left","","","","","","","","","","","","","",""
"","","","","","survey-likert","9","100673","0.0-9.0","SS1678233217408","5cbe04b4f429ff00159de30e","6406d7f26dd5b7fc1e3377bd","6407ce7076ca6a56298a7ea0","1138","569","","4821","","{""Q0"":2}","[0]","complexity","media/stimuli/animate_007_left.png","animate","pair","left","","","","","","","","","","","","","",""
"","","","","","survey-likert","10","107639","0.0-10.0","SS1678233217408","5cbe04b4f429ff00159de30e","6406d7f26dd5b7fc1e3377bd","6407ce7076ca6a56298a7ea0","1138","569","","6940","","{""Q0"":2}","[0]","complexity","media/stimuli/animate_004_right.png","animate","pair","right","","","","","","","","","","","","","",""
"","","","","","survey-likert","11","115945","0.0-11.0","SS1678233217408","5cbe04b4f429ff00159de30e","6406d7f26dd5b7fc1e3377bd","6407ce7076ca6a56298a7ea0","1138","569","","8288","","{""Q0"":2}","[0]","complexity","media/stimuli/animate_006_right.png","animate","pair","right","","","","","","","","","","","","","",""
"","","","","","survey-likert","12","119764","0.0-12.0","SS1678233217408","5cbe04b4f429ff00159de30e","6406d7f26dd5b7fc1e3377bd","6407ce7076ca6a56298a7ea0","1138","569","","3788","","{""Q0"":1}","[0]","complexity","media/stimuli/inanimate_003_left.png","inanimate","pair","left","","","","","","","","","","","","","",""
"","","","","","survey-likert","13","125465","0.0-13.0","SS1678233217408","5cbe04b4f429ff00159de30e","6406d7f26dd5b7fc1e3377bd","6407ce7076ca6a56298a7ea0","1138","569","","5664","","{""Q0"":2}","[0]","complexity","media/stimuli/animate_004_left.png","animate","pair","left","","","","","","","","","","","","","",""
"","","","","","survey-likert","14","129869","0.0-14.0","SS1678233217408","5cbe04b4f429ff00159de30e","6406d7f26dd5b7fc1e3377bd","6407ce7076ca6a56298a7ea0","1138","569","","4385","","{""Q0"":1}","[0]","complexity","media/stimuli/inanimate_009_left.png","inanimate","pair","left","","","","","","","","","","","","","",""
"","","","","","survey-likert","15","134444","0.0-15.0","SS1678233217408","5cbe04b4f429ff00159de30e","6406d7f26dd5b7fc1e3377bd","6407ce7076ca6a56298a7ea0","1138","569","","4547","","{""Q0"":4}","[0]","complexity","media/stimuli/animate_009_right.png","animate","pair","right","","","","","","","","","","","","","",""
"","","","","","survey-likert","16","137676","0.0-16.0","SS1678233217408","5cbe04b4f429ff00159de30e","6406d7f26dd5b7fc1e3377bd","6407ce7076ca6a56298a7ea0","1138","569","","3204","","{""Q0"":4}","[0]","complexity","media/stimuli/animate_009_left.png","animate","single","left","","","","","","","","","","","","","",""
"","","","","","survey-likert","17","143677","0.0-17.0","SS1678233217408","5cbe04b4f429ff00159de30e","6406d7f26dd5b7fc1e3377bd","6407ce7076ca6a56298a7ea0","1138","569","","5974","","{""Q0"":2}","[0]","complexity","media/stimuli/inanimate_010_right.png","inanimate","single","right","","","","","","","","","","","","","",""
"","","","","","survey-likert","18","147886","0.0-18.0","SS1678233217408","5cbe04b4f429ff00159de30e","6406d7f26dd5b7fc1e3377bd","6407ce7076ca6a56298a7ea0","1138","569","","4184","","{""Q0"":4}","[0]","complexity","media/stimuli/animate_009_left.png","animate","pair","left","","","","","","","","","","","","","",""
"","","","","","survey-likert","19","151535","0.0-19.0","SS1678233217408","5cbe04b4f429ff00159de30e","6406d7f26dd5b7fc1e3377bd","6407ce7076ca6a56298a7ea0","1138","569","","3622","","{""Q0"":4}","[0]","complexity","media/stimuli/animate_005_right.png","animate","pair","right","","","","","","","","","","","","","",""
"","","","","","html-keyboard-response","20","157741","0.0-20.0","SS1678233217408","5cbe04b4f429ff00159de30e","6406d7f26dd5b7fc1e3377bd","6407ce7076ca6a56298a7ea0","1138","569","","6181","","j","","","","","","","","","","","","","","","","","","","",""
"","","","","","survey-likert","21","162045","0.0-21.0","SS1678233217408","5cbe04b4f429ff00159de30e","6406d7f26dd5b7fc1e3377bd","6407ce7076ca6a56298a7ea0","1138","569","","4290","","{""Q0"":4}","[0]","complexity","media/stimuli/animate_005_right.png","animate","single","right","","","","","","","","","","","","","",""
"","","","","","survey-likert","22","165537","0.0-22.0","SS1678233217408","5cbe04b4f429ff00159de30e","6406d7f26dd5b7fc1e3377bd","6407ce7076ca6a56298a7ea0","1138","569","","3463","","{""Q0"":1}","[0]","complexity","media/stimuli/inanimate_009_right.png","inanimate","single","right","","","","","","","","","","","","","",""
"","","","","","survey-likert","23","170354","0.0-23.0","SS1678233217408","5cbe04b4f429ff00159de30e","6406d7f26dd5b7fc1e3377bd","6407ce7076ca6a56298a7ea0","1138","569","","4789","","{""Q0"":2}","[0]","complexity","media/stimuli/inanimate_010_left.png","inanimate","single","left","","","","","","","","","","","","","",""
"","","","","","survey-likert","24","174417","0.0-24.0","SS1678233217408","5cbe04b4f429ff00159de30e","6406d7f26dd5b7fc1e3377bd","6407ce7076ca6a56298a7ea0","1138","569","","4035","","{""Q0"":1}","[0]","complexity","media/stimuli/inanimate_002_left.png","inanimate","single","left","","","","","","","","","","","","","",""
"","","","","","survey-likert","25","177383","0.0-25.0","SS1678233217408","5cbe04b4f429ff00159de30e","6406d7f26dd5b7fc1e3377bd","6407ce7076ca6a56298a7ea0","1138","569","","2941","","{""Q0"":1}","[0]","complexity","media/stimuli/inanimate_004_left.png","inanimate","pair","left","","","","","","","","","","","","","",""
"","","","","","survey-likert","26","180277","0.0-26.0","SS1678233217408","5cbe04b4f429ff00159de30e","6406d7f26dd5b7fc1e3377bd","6407ce7076ca6a56298a7ea0","1138","569","","2867","","{""Q0"":4}","[0]","complexity","media/stimuli/animate_010_left.png","animate","pair","left","","","","","","","","","","","","","",""
"","","","","","survey-likert","27","185657","0.0-27.0","SS1678233217408","5cbe04b4f429ff00159de30e","6406d7f26dd5b7fc1e3377bd","6407ce7076ca6a56298a7ea0","1138","569","","5348","","{""Q0"":4}","[0]","complexity","media/stimuli/animate_001_left.png","animate","pair","left","","","","","","","","","","","","","",""
"","","","","","survey-likert","28","189264","0.0-28.0","SS1678233217408","5cbe04b4f429ff00159de30e","6406d7f26dd5b7fc1e3377bd","6407ce7076ca6a56298a7ea0","1138","569","","3578","","{""Q0"":4}","[0]","complexity","media/stimuli/animate_011_left.png","animate","single","left","","","","","","","","","","","","","",""
"","","","","","survey-likert","29","191589","0.0-29.0","SS1678233217408","5cbe04b4f429ff00159de30e","6406d7f26dd5b7fc1e3377bd","6407ce7076ca6a56298a7ea0","1138","569","","2299","","{""Q0"":4}","[0]","complexity","media/stimuli/animate_010_left.png","animate","single","left","","","","","","","","","","","","","",""
"","","","","","survey-likert","30","194557","0.0-30.0","SS1678233217408","5cbe04b4f429ff00159de30e","6406d7f26dd5b7fc1e3377bd","6407ce7076ca6a56298a7ea0","1138","569","","2935","","{""Q0"":1}","[0]","complexity","media/stimuli/inanimate_009_right.png","inanimate","pair","right","","","","","","","","","","","","","",""
"","","","","","survey-likert","31","197441","0.0-31.0","SS1678233217408","5cbe04b4f429ff00159de30e","6406d7f26dd5b7fc1e3377bd","6407ce7076ca6a56298a7ea0","1138","569","","2854","","{""Q0"":1}","[0]","complexity","media/stimuli/inanimate_012_right.png","inanimate","single","right","","","","","","","","","","","","","",""
"","","","","","survey-likert","32","206423","0.0-32.0","SS1678233217408","5cbe04b4f429ff00159de30e","6406d7f26dd5b7fc1e3377bd","6407ce7076ca6a56298a7ea0","1138","569","","8956","","{""Q0"":4}","[0]","complexity","media/stimuli/inanimate_007_right.png","inanimate","pair","right","","","","","","","","","","","","","",""
"","","","","","html-keyboard-response","33","209499","0.0-33.0","SS1678233217408","5cbe04b4f429ff00159de30e","6406d7f26dd5b7fc1e3377bd","6407ce7076ca6a56298a7ea0","1138","569","","3053","","k","","","","","","","","","","","","","","","","","","","",""
"","","","","","html-keyboard-response","34","226889","0.0-34.0","SS1678233217408","5cbe04b4f429ff00159de30e","6406d7f26dd5b7fc1e3377bd","6407ce7076ca6a56298a7ea0","1138","569","","17363","","j","","","","","","","<img src=""media/stimuli/inanimate_003_left.png"" class=""coveredImage test"" style = ""width:100px; height:100px; position:fixed; top:10%;    transform: translate(-50%, -50%);left:44.5%""></img><img src=""media/stimuli/inanimate_003_left.png"" class=""coveredImage test"" style = ""width:100px; height:100px; position:fixed; top:10%;    transform: translate(-50%, -50%);left:51.5%""></img><img src=""media/stimuli/inanimate_007_left.png"" class=""coveredImage test"" style = ""width:100px; height:100px;position:fixed; top:25%;        transform: translate(-50%, -50%);left:34.5%""></img><img src=""media/stimuli/inanimate_007_left.png"" class=""coveredImage test"" style = ""width:100px; height:100px;position:fixed; top:25%;        transform: translate(-50%, -50%);left:41.5%""></img><img src=""media/stimuli/inanimate_003_left.png"" class=""coveredImage test"" style = ""width:100px; height:100px;position:fixed; top:25%;        transform: translate(-50%, -50%);left:58%""></img><img src=""media/f.png""style = ""width:30px x; height:30px;position:fixed; top:43%;    transform: translate(-50%, -50%);left:40%""></img><img src=""media/j.png""style = ""width:30px; height:30px;position:fixed; top:43%;    transform: translate(-50%, -50%);left:60%""></img>","media/stimuli/inanimate_003_left.png","inanimate","left","pair","media/stimuli/inanimate_007_left.png","inanimate","left","pair","media/stimuli/inanimate_003_left.png","inanimate","left","single","identity_number"
"","","","","","html-keyboard-response","35","231556","0.0-35.0","SS1678233217408","5cbe04b4f429ff00159de30e","6406d7f26dd5b7fc1e3377bd","6407ce7076ca6a56298a7ea0","1138","569","","4648","","f","","","","","","","<img src=""media/stimuli/animate_004_left.png"" class=""coveredImage test"" style = ""width:100px; height:100px; position:fixed; top:10%;    transform: translate(-50%, -50%);left:48%""></img><img src=""media/stimuli/animate_004_left.png"" class=""coveredImage test"" style = ""width:100px; height:100px;position:fixed; top:25%;        transform: translate(-50%, -50%);left:34.5%""></img><img src=""media/stimuli/animate_004_left.png"" class=""coveredImage test"" style = ""width:100px; height:100px;position:fixed; top:25%;        transform: translate(-50%, -50%);left:41.5%""></img><img src=""media/stimuli/animate_004_right.png"" class=""coveredImage test"" style = ""width:100px; height:100px;position:fixed; top:25%;        transform: translate(-50%, -50%);left:58%""></img><img src=""media/f.png""style = ""width:30px x; height:30px;position:fixed; top:43%;    transform: translate(-50%, -50%);left:40%""></img><img src=""media/j.png""style = ""width:30px; height:30px;position:fixed; top:43%;    transform: translate(-50%, -50%);left:60%""></img>","media/stimuli/animate_004_left.png","animate","left","single","media/stimuli/animate_004_left.png","animate","left","pair","media/stimuli/animate_004_right.png","animate","right","single","number_pose"
"","","","","","html-keyboard-response","36","233743","0.0-36.0","SS1678233217408","5cbe04b4f429ff00159de30e","6406d7f26dd5b7fc1e3377bd","6407ce7076ca6a56298a7ea0","1138","569","","2171","","f","","","","","","","<img src=""media/stimuli/inanimate_008_right.png"" class=""coveredImage test"" style = ""width:100px; height:100px; position:fixed; top:10%;    transform: translate(-50%, -50%);left:44.5%""></img><img src=""media/stimuli/inanimate_008_right.png"" class=""coveredImage test"" style = ""width:100px; height:100px; position:fixed; top:10%;    transform: translate(-50%, -50%);left:51.5%""></img><img src=""media/stimuli/inanimate_008_right.png"" class=""coveredImage test"" style = ""width:100px; height:100px;position:fixed; top:25%;        transform: translate(-50%, -50%);left:38%""></img><img src=""media/stimuli/animate_011_left.png"" class=""coveredImage test"" style = ""width:100px; height:100px;position:fixed; top:25%;        transform: translate(-50%, -50%);left:58%""></img><img src=""media/f.png""style = ""width:30px x; height:30px;position:fixed; top:43%;    transform: translate(-50%, -50%);left:40%""></img><img src=""media/j.png""style = ""width:30px; height:30px;position:fixed; top:43%;    transform: translate(-50%, -50%);left:60%""></img>","media/stimuli/inanimate_008_right.png","inanimate","right","pair","media/stimuli/inanimate_008_right.png","inanimate","right","single","media/stimuli/animate_011_left.png","animate","left","single","pose_animacy"
"","","","","","html-keyboard-response","37","235758","0.0-37.0","SS1678233217408","5cbe04b4f429ff00159de30e","6406d7f26dd5b7fc1e3377bd","6407ce7076ca6a56298a7ea0","1138","569","","2007","","f","","","","","","","<img src=""media/stimuli/inanimate_003_left.png"" class=""coveredImage test"" style = ""width:100px; height:100px; position:fixed; top:10%;    transform: translate(-50%, -50%);left:48%""></img><img src=""media/stimuli/inanimate_003_right.png"" class=""coveredImage test"" style = ""width:100px; height:100px;position:fixed; top:25%;        transform: translate(-50%, -50%);left:38%""></img><img src=""media/stimuli/inanimate_002_left.png"" class=""coveredImage test"" style = ""width:100px; height:100px;position:fixed; top:25%;        transform: translate(-50%, -50%);left:58%""></img><img src=""media/f.png""style = ""width:30px x; height:30px;position:fixed; top:43%;    transform: translate(-50%, -50%);left:40%""></img><img src=""media/j.png""style = ""width:30px; height:30px;position:fixed; top:43%;    transform: translate(-50%, -50%);left:60%""></img>","media/stimuli/inanimate_003_left.png","inanimate","left","single","media/stimuli/inanimate_003_right.png","inanimate","right","single","media/stimuli/inanimate_002_left.png","inanimate","left","single","pose_identity"
"","","","","","html-keyboard-response","38","239747","0.0-38.0","SS1678233217408","5cbe04b4f429ff00159de30e","6406d7f26dd5b7fc1e3377bd","6407ce7076ca6a56298a7ea0","1138","569","","3979","","j","","","","","","","<img src=""media/stimuli/animate_008_left.png"" class=""coveredImage test"" style = ""width:100px; height:100px; position:fixed; top:10%;    transform: translate(-50%, -50%);left:44.5%""></img><img src=""media/stimuli/animate_008_left.png"" class=""coveredImage test"" style = ""width:100px; height:100px; position:fixed; top:10%;    transform: translate(-50%, -50%);left:51.5%""></img><img src=""media/stimuli/animate_008_right.png"" class=""coveredImage test"" style = ""width:100px; height:100px;position:fixed; top:25%;        transform: translate(-50%, -50%);left:34.5%""></img><img src=""media/stimuli/animate_008_right.png"" class=""coveredImage test"" style = ""width:100px; height:100px;position:fixed; top:25%;        transform: translate(-50%, -50%);left:41.5%""></img><img src=""media/stimuli/animate_008_left.png"" class=""coveredImage test"" style = ""width:100px; height:100px;position:fixed; top:25%;        transform: translate(-50%, -50%);left:58%""></img><img src=""media/f.png""style = ""width:30px x; height:30px;position:fixed; top:43%;    transform: translate(-50%, -50%);left:40%""></img><img src=""media/j.png""style = ""width:30px; height:30px;position:fixed; top:43%;    transform: translate(-50%, -50%);left:60%""></img>","media/stimuli/animate_008_left.png","animate","left","pair","media/stimuli/animate_008_right.png","animate","right","pair","media/stimuli/animate_008_left.png","animate","left","single","pose_number"
"","","","","","html-keyboard-response","39","244328","0.0-39.0","SS1678233217408","5cbe04b4f429ff00159de30e","6406d7f26dd5b7fc1e3377bd","6407ce7076ca6a56298a7ea0","1138","569","","4574","","f","","","","","","","<img src=""media/stimuli/animate_003_right.png"" class=""coveredImage test"" style = ""width:100px; height:100px; position:fixed; top:10%;    transform: translate(-50%, -50%);left:48%""></img><img src=""media/stimuli/animate_012_right.png"" class=""coveredImage test"" style = ""width:100px; height:100px;position:fixed; top:25%;        transform: translate(-50%, -50%);left:38%""></img><img src=""media/stimuli/inanimate_010_right.png"" class=""coveredImage test"" style = ""width:100px; height:100px;position:fixed; top:25%;        transform: translate(-50%, -50%);left:58%""></img><img src=""media/f.png""style = ""width:30px x; height:30px;position:fixed; top:43%;    transform: translate(-50%, -50%);left:40%""></img><img src=""media/j.png""style = ""width:30px; height:30px;position:fixed; top:43%;    transform: translate(-50%, -50%);left:60%""></img>","media/stimuli/animate_003_right.png","animate","right","single","media/stimuli/animate_012_right.png","animate","right","single","media/stimuli/inanimate_010_right.png","inanimate","right","single","identity_animacy"
"","","","","","html-keyboard-response","40","247901","0.0-40.0","SS1678233217408","5cbe04b4f429ff00159de30e","6406d7f26dd5b7fc1e3377bd","6407ce7076ca6a56298a7ea0","1138","569","","3559","","j","","","","","","","<img src=""media/stimuli/inanimate_003_left.png"" class=""coveredImage test"" style = ""width:100px; height:100px; position:fixed; top:10%;    transform: translate(-50%, -50%);left:44.5%""></img><img src=""media/stimuli/inanimate_003_left.png"" class=""coveredImage test"" style = ""width:100px; height:100px; position:fixed; top:10%;    transform: translate(-50%, -50%);left:51.5%""></img><img src=""media/stimuli/inanimate_003_right.png"" class=""coveredImage test"" style = ""width:100px; height:100px;position:fixed; top:25%;        transform: translate(-50%, -50%);left:34.5%""></img><img src=""media/stimuli/inanimate_003_right.png"" class=""coveredImage test"" style = ""width:100px; height:100px;position:fixed; top:25%;        transform: translate(-50%, -50%);left:41.5%""></img><img src=""media/stimuli/inanimate_003_left.png"" class=""coveredImage test"" style = ""width:100px; height:100px;position:fixed; top:25%;        transform: translate(-50%, -50%);left:58%""></img><img src=""media/f.png""style = ""width:30px x; height:30px;position:fixed; top:43%;    transform: translate(-50%, -50%);left:40%""></img><img src=""media/j.png""style = ""width:30px; height:30px;position:fixed; top:43%;    transform: translate(-50%, -50%);left:60%""></img>","media/stimuli/inanimate_003_left.png","inanimate","left","pair","media/stimuli/inanimate_003_right.png","inanimate","right","pair","media/stimuli/inanimate_003_left.png","inanimate","left","single","pose_number"
"","","","","","html-keyboard-response","41","249866","0.0-41.0","SS1678233217408","5cbe04b4f429ff00159de30e","6406d7f26dd5b7fc1e3377bd","6407ce7076ca6a56298a7ea0","1138","569","","1954","","f","","","","","","","<img src=""media/stimuli/inanimate_011_right.png"" class=""coveredImage test"" style = ""width:100px; height:100px; position:fixed; top:10%;    transform: translate(-50%, -50%);left:44.5%""></img><img src=""media/stimuli/inanimate_011_right.png"" class=""coveredImage test"" style = ""width:100px; height:100px; position:fixed; top:10%;    transform: translate(-50%, -50%);left:51.5%""></img><img src=""media/stimuli/inanimate_011_right.png"" class=""coveredImage test"" style = ""width:100px; height:100px;position:fixed; top:25%;        transform: translate(-50%, -50%);left:38%""></img><img src=""media/stimuli/inanimate_011_left.png"" class=""coveredImage test"" style = ""width:100px; height:100px;position:fixed; top:25%;        transform: translate(-50%, -50%);left:54.5%""></img><img src=""media/stimuli/inanimate_011_left.png"" class=""coveredImage test"" style = ""width:100px; height:100px;position:fixed; top:25%;        transform: translate(-50%, -50%);left:61.5%""></img><img src=""media/f.png""style = ""width:30px x; height:30px;position:fixed; top:43%;    transform: translate(-50%, -50%);left:40%""></img><img src=""media/j.png""style = ""width:30px; height:30px;position:fixed; top:43%;    transform: translate(-50%, -50%);left:60%""></img>","media/stimuli/inanimate_011_right.png","inanimate","right","pair","media/stimuli/inanimate_011_right.png","inanimate","right","single","media/stimuli/inanimate_011_left.png","inanimate","left","pair","number_pose"
"","","","","","html-keyboard-response","42","252033","0.0-42.0","SS1678233217408","5cbe04b4f429ff00159de30e","6406d7f26dd5b7fc1e3377bd","6407ce7076ca6a56298a7ea0","1138","569","","2149","","j","","","","","","","<img src=""media/stimuli/inanimate_004_left.png"" class=""coveredImage test"" style = ""width:100px; height:100px; position:fixed; top:10%;    transform: translate(-50%, -50%);left:48%""></img><img src=""media/stimuli/animate_009_left.png"" class=""coveredImage test"" style = ""width:100px; height:100px;position:fixed; top:25%;        transform: translate(-50%, -50%);left:38%""></img><img src=""media/stimuli/inanimate_006_left.png"" class=""coveredImage test"" style = ""width:100px; height:100px;position:fixed; top:25%;        transform: translate(-50%, -50%);left:58%""></img><img src=""media/f.png""style = ""width:30px x; height:30px;position:fixed; top:43%;    transform: translate(-50%, -50%);left:40%""></img><img src=""media/j.png""style = ""width:30px; height:30px;position:fixed; top:43%;    transform: translate(-50%, -50%);left:60%""></img>","media/stimuli/inanimate_004_left.png","inanimate","left","single","media/stimuli/animate_009_left.png","animate","left","single","media/stimuli/inanimate_006_left.png","inanimate","left","single","animacy_identity"
"","","","","","html-keyboard-response","43","253954","0.0-43.0","SS1678233217408","5cbe04b4f429ff00159de30e","6406d7f26dd5b7fc1e3377bd","6407ce7076ca6a56298a7ea0","1138","569","","1907","","j","","","","","","","<img src=""media/stimuli/inanimate_005_left.png"" class=""coveredImage test"" style = ""width:100px; height:100px; position:fixed; top:10%;    transform: translate(-50%, -50%);left:44.5%""></img><img src=""media/stimuli/inanimate_005_left.png"" class=""coveredImage test"" style = ""width:100px; height:100px; position:fixed; top:10%;    transform: translate(-50%, -50%);left:51.5%""></img><img src=""media/stimuli/animate_009_left.png"" class=""coveredImage test"" style = ""width:100px; height:100px;position:fixed; top:25%;        transform: translate(-50%, -50%);left:34.5%""></img><img src=""media/stimuli/animate_009_left.png"" class=""coveredImage test"" style = ""width:100px; height:100px;position:fixed; top:25%;        transform: translate(-50%, -50%);left:41.5%""></img><img src=""media/stimuli/inanimate_002_left.png"" class=""coveredImage test"" style = ""width:100px; height:100px;position:fixed; top:25%;        transform: translate(-50%, -50%);left:54.5%""></img><img src=""media/stimuli/inanimate_002_left.png"" class=""coveredImage test"" style = ""width:100px; height:100px;position:fixed; top:25%;        transform: translate(-50%, -50%);left:61.5%""></img><img src=""media/f.png""style = ""width:30px x; height:30px;position:fixed; top:43%;    transform: translate(-50%, -50%);left:40%""></img><img src=""media/j.png""style = ""width:30px; height:30px;position:fixed; top:43%;    transform: translate(-50%, -50%);left:60%""></img>","media/stimuli/inanimate_005_left.png","inanimate","left","pair","media/stimuli/animate_009_left.png","animate","left","pair","media/stimuli/inanimate_002_left.png","inanimate","left","pair","animacy_identity"
"","","","","","html-keyboard-response","44","256730","0.0-44.0","SS1678233217408","5cbe04b4f429ff00159de30e","6406d7f26dd5b7fc1e3377bd","6407ce7076ca6a56298a7ea0","1138","569","","2760","","j","","","","","","","<img src=""media/stimuli/inanimate_010_right.png"" class=""coveredImage test"" style = ""width:100px; height:100px; position:fixed; top:10%;    transform: translate(-50%, -50%);left:48%""></img><img src=""media/stimuli/inanimate_010_left.png"" class=""coveredImage test"" style = ""width:100px; height:100px;position:fixed; top:25%;        transform: translate(-50%, -50%);left:38%""></img><img src=""media/stimuli/inanimate_010_right.png"" class=""coveredImage test"" style = ""width:100px; height:100px;position:fixed; top:25%;        transform: translate(-50%, -50%);left:54.5%""></img><img src=""media/stimuli/inanimate_010_right.png"" class=""coveredImage test"" style = ""width:100px; height:100px;position:fixed; top:25%;        transform: translate(-50%, -50%);left:61.5%""></img><img src=""media/f.png""style = ""width:30px x; height:30px;position:fixed; top:43%;    transform: translate(-50%, -50%);left:40%""></img><img src=""media/j.png""style = ""width:30px; height:30px;position:fixed; top:43%;    transform: translate(-50%, -50%);left:60%""></img>","media/stimuli/inanimate_010_right.png","inanimate","right","single","media/stimuli/inanimate_010_left.png","inanimate","left","single","media/stimuli/inanimate_010_right.png","inanimate","right","pair","pose_number"
"","","","","","html-keyboard-response","45","260048","0.0-45.0","SS1678233217408","5cbe04b4f429ff00159de30e","6406d7f26dd5b7fc1e3377bd","6407ce7076ca6a56298a7ea0","1138","569","","3306","","j","","","","","","","<img src=""media/stimuli/inanimate_003_left.png"" class=""coveredImage test"" style = ""width:100px; height:100px; position:fixed; top:10%;    transform: translate(-50%, -50%);left:48%""></img><img src=""media/stimuli/inanimate_001_left.png"" class=""coveredImage test"" style = ""width:100px; height:100px;position:fixed; top:25%;        transform: translate(-50%, -50%);left:38%""></img><img src=""media/stimuli/inanimate_003_right.png"" class=""coveredImage test"" style = ""width:100px; height:100px;position:fixed; top:25%;        transform: translate(-50%, -50%);left:58%""></img><img src=""media/f.png""style = ""width:30px x; height:30px;position:fixed; top:43%;    transform: translate(-50%, -50%);left:40%""></img><img src=""media/j.png""style = ""width:30px; height:30px;position:fixed; top:43%;    transform: translate(-50%, -50%);left:60%""></img>","media/stimuli/inanimate_003_left.png","inanimate","left","single","media/stimuli/inanimate_001_left.png","inanimate","left","single","media/stimuli/inanimate_003_right.png","inanimate","right","single","identity_pose"
"","","","","","html-keyboard-response","46","377027","0.0-46.0","SS1678233217408","5cbe04b4f429ff00159de30e","6406d7f26dd5b7fc1e3377bd","6407ce7076ca6a56298a7ea0","1138","569","","116969","","b","","","","","","","","","","","","","","","","","","","",""
"","","","","","html-keyboard-response","47","380847","0.0-47.0","SS1678233217408","5cbe04b4f429ff00159de30e","6406d7f26dd5b7fc1e3377bd","6407ce7076ca6a56298a7ea0","1138","569","","3803","","f","","","","","","","<img src=""media/stimuli/animate_002_left.png"" class=""coveredImage test"" style = ""width:100px; height:100px; position:fixed; top:10%;    transform: translate(-50%, -50%);left:48%""></img><img src=""media/stimuli/animate_002_left.png"" class=""coveredImage test"" style = ""width:100px; height:100px;position:fixed; top:25%;        transform: translate(-50%, -50%);left:38%""></img><img src=""media/stimuli/animate_002_right.png"" class=""coveredImage test"" style = ""width:100px; height:100px;position:fixed; top:25%;        transform: translate(-50%, -50%);left:58%""></img><img src=""media/f.png""style = ""width:30px x; height:30px;position:fixed; top:43%;    transform: translate(-50%, -50%);left:40%""></img><img src=""media/j.png""style = ""width:30px; height:30px;position:fixed; top:43%;    transform: translate(-50%, -50%);left:60%""></img>","media/stimuli/animate_002_left.png","animate","left","single","media/stimuli/animate_002_left.png","animate","left","single","media/stimuli/animate_002_right.png","animate","right","single","filler_pose"
"","","","","","html-keyboard-response","48","382811","0.0-48.0","SS1678233217408","5cbe04b4f429ff00159de30e","6406d7f26dd5b7fc1e3377bd","6407ce7076ca6a56298a7ea0","1138","569","","1951","","j","","","","","","","<img src=""media/stimuli/animate_001_right.png"" class=""coveredImage test"" style = ""width:100px; height:100px; position:fixed; top:10%;    transform: translate(-50%, -50%);left:48%""></img><img src=""media/stimuli/animate_009_right.png"" class=""coveredImage test"" style = ""width:100px; height:100px;position:fixed; top:25%;        transform: translate(-50%, -50%);left:38%""></img><img src=""media/stimuli/animate_001_right.png"" class=""coveredImage test"" style = ""width:100px; height:100px;position:fixed; top:25%;        transform: translate(-50%, -50%);left:54.5%""></img><img src=""media/stimuli/animate_001_right.png"" class=""coveredImage test"" style = ""width:100px; height:100px;position:fixed; top:25%;        transform: translate(-50%, -50%);left:61.5%""></img><img src=""media/f.png""style = ""width:30px x; height:30px;position:fixed; top:43%;    transform: translate(-50%, -50%);left:40%""></img><img src=""media/j.png""style = ""width:30px; height:30px;position:fixed; top:43%;    transform: translate(-50%, -50%);left:60%""></img>","media/stimuli/animate_001_right.png","animate","right","single","media/stimuli/animate_009_right.png","animate","right","single","media/stimuli/animate_001_right.png","animate","right","pair","identity_number"
"","","","","","html-keyboard-response","49","384513","0.0-49.0","SS1678233217408","5cbe04b4f429ff00159de30e","6406d7f26dd5b7fc1e3377bd","6407ce7076ca6a56298a7ea0","1138","569","","1687","","j","","","","","","","<img src=""media/stimuli/inanimate_011_left.png"" class=""coveredImage test"" style = ""width:100px; height:100px; position:fixed; top:10%;    transform: translate(-50%, -50%);left:44.5%""></img><img src=""media/stimuli/inanimate_011_left.png"" class=""coveredImage test"" style = ""width:100px; height:100px; position:fixed; top:10%;    transform: translate(-50%, -50%);left:51.5%""></img><img src=""media/stimuli/animate_002_right.png"" class=""coveredImage test"" style = ""width:100px; height:100px;position:fixed; top:25%;        transform: translate(-50%, -50%);left:38%""></img><img src=""media/stimuli/inanimate_011_left.png"" class=""coveredImage test"" style = ""width:100px; height:100px;position:fixed; top:25%;        transform: translate(-50%, -50%);left:58%""></img><img src=""media/f.png""style = ""width:30px x; height:30px;position:fixed; top:43%;    transform: translate(-50%, -50%);left:40%""></img><img src=""media/j.png""style = ""width:30px; height:30px;position:fixed; top:43%;    transform: translate(-50%, -50%);left:60%""></img>","media/stimuli/inanimate_011_left.png","inanimate","left","pair","media/stimuli/animate_002_right.png","animate","right","single","media/stimuli/inanimate_011_left.png","inanimate","left","single","animacy_pose"
"","","","","","html-keyboard-response","50","386167","0.0-50.0","SS1678233217408","5cbe04b4f429ff00159de30e","6406d7f26dd5b7fc1e3377bd","6407ce7076ca6a56298a7ea0","1138","569","","1641","","j","","","","","","","<img src=""media/stimuli/animate_002_left.png"" class=""coveredImage test"" style = ""width:100px; height:100px; position:fixed; top:10%;    transform: translate(-50%, -50%);left:48%""></img><img src=""media/stimuli/animate_002_right.png"" class=""coveredImage test"" style = ""width:100px; height:100px;position:fixed; top:25%;        transform: translate(-50%, -50%);left:38%""></img><img src=""media/stimuli/animate_002_left.png"" class=""coveredImage test"" style = ""width:100px; height:100px;position:fixed; top:25%;        transform: translate(-50%, -50%);left:54.5%""></img><img src=""media/stimuli/animate_002_left.png"" class=""coveredImage test"" style = ""width:100px; height:100px;position:fixed; top:25%;        transform: translate(-50%, -50%);left:61.5%""></img><img src=""media/f.png""style = ""width:30px x; height:30px;position:fixed; top:43%;    transform: translate(-50%, -50%);left:40%""></img><img src=""media/j.png""style = ""width:30px; height:30px;position:fixed; top:43%;    transform: translate(-50%, -50%);left:60%""></img>","media/stimuli/animate_002_left.png","animate","left","single","media/stimuli/animate_002_right.png","animate","right","single","media/stimuli/animate_002_left.png","animate","left","pair","pose_number"
"","","","","","html-keyboard-response","51","387973","0.0-51.0","SS1678233217408","5cbe04b4f429ff00159de30e","6406d7f26dd5b7fc1e3377bd","6407ce7076ca6a56298a7ea0","1138","569","","1793","","f","","","","","","","<img src=""media/stimuli/animate_006_right.png"" class=""coveredImage test"" style = ""width:100px; height:100px; position:fixed; top:10%;    transform: translate(-50%, -50%);left:48%""></img><img src=""media/stimuli/animate_006_right.png"" class=""coveredImage test"" style = ""width:100px; height:100px;position:fixed; top:25%;        transform: translate(-50%, -50%);left:34.5%""></img><img src=""media/stimuli/animate_006_right.png"" class=""coveredImage test"" style = ""width:100px; height:100px;position:fixed; top:25%;        transform: translate(-50%, -50%);left:41.5%""></img><img src=""media/stimuli/inanimate_011_right.png"" class=""coveredImage test"" style = ""width:100px; height:100px;position:fixed; top:25%;        transform: translate(-50%, -50%);left:58%""></img><img src=""media/f.png""style = ""width:30px x; height:30px;position:fixed; top:43%;    transform: translate(-50%, -50%);left:40%""></img><img src=""media/j.png""style = ""width:30px; height:30px;position:fixed; top:43%;    transform: translate(-50%, -50%);left:60%""></img>","media/stimuli/animate_006_right.png","animate","right","single","media/stimuli/animate_006_right.png","animate","right","pair","media/stimuli/inanimate_011_right.png","inanimate","right","single","number_animacy"
"","","","","","html-keyboard-response","52","390090","0.0-52.0","SS1678233217408","5cbe04b4f429ff00159de30e","6406d7f26dd5b7fc1e3377bd","6407ce7076ca6a56298a7ea0","1138","569","","2101","","j","","","","","","","<img src=""media/stimuli/inanimate_001_right.png"" class=""coveredImage test"" style = ""width:100px; height:100px; position:fixed; top:10%;    transform: translate(-50%, -50%);left:48%""></img><img src=""media/stimuli/inanimate_003_right.png"" class=""coveredImage test"" style = ""width:100px; height:100px;position:fixed; top:25%;        transform: translate(-50%, -50%);left:38%""></img><img src=""media/stimuli/inanimate_001_left.png"" class=""coveredImage test"" style = ""width:100px; height:100px;position:fixed; top:25%;        transform: translate(-50%, -50%);left:58%""></img><img src=""media/f.png""style = ""width:30px x; height:30px;position:fixed; top:43%;    transform: translate(-50%, -50%);left:40%""></img><img src=""media/j.png""style = ""width:30px; height:30px;position:fixed; top:43%;    transform: translate(-50%, -50%);left:60%""></img>","media/stimuli/inanimate_001_right.png","inanimate","right","single","media/stimuli/inanimate_003_right.png","inanimate","right","single","media/stimuli/inanimate_001_left.png","inanimate","left","single","identity_pose"
"","","","","","html-keyboard-response","53","392631","0.0-53.0","SS1678233217408","5cbe04b4f429ff00159de30e","6406d7f26dd5b7fc1e3377bd","6407ce7076ca6a56298a7ea0","1138","569","","2526","","f","","","","","","","<img src=""media/stimuli/animate_010_left.png"" class=""coveredImage test"" style = ""width:100px; height:100px; position:fixed; top:10%;    transform: translate(-50%, -50%);left:48%""></img><img src=""media/stimuli/animate_010_right.png"" class=""coveredImage test"" style = ""width:100px; height:100px;position:fixed; top:25%;        transform: translate(-50%, -50%);left:38%""></img><img src=""media/stimuli/animate_004_left.png"" class=""coveredImage test"" style = ""width:100px; height:100px;position:fixed; top:25%;        transform: translate(-50%, -50%);left:58%""></img><img src=""media/f.png""style = ""width:30px x; height:30px;position:fixed; top:43%;    transform: translate(-50%, -50%);left:40%""></img><img src=""media/j.png""style = ""width:30px; height:30px;position:fixed; top:43%;    transform: translate(-50%, -50%);left:60%""></img>","media/stimuli/animate_010_left.png","animate","left","single","media/stimuli/animate_010_right.png","animate","right","single","media/stimuli/animate_004_left.png","animate","left","single","pose_identity"
"","","","","","html-keyboard-response","54","394413","0.0-54.0","SS1678233217408","5cbe04b4f429ff00159de30e","6406d7f26dd5b7fc1e3377bd","6407ce7076ca6a56298a7ea0","1138","569","","1767","","j","","","","","","","<img src=""media/stimuli/animate_003_left.png"" class=""coveredImage test"" style = ""width:100px; height:100px; position:fixed; top:10%;    transform: translate(-50%, -50%);left:44.5%""></img><img src=""media/stimuli/animate_003_left.png"" class=""coveredImage test"" style = ""width:100px; height:100px; position:fixed; top:10%;    transform: translate(-50%, -50%);left:51.5%""></img><img src=""media/stimuli/inanimate_003_left.png"" class=""coveredImage test"" style = ""width:100px; height:100px;position:fixed; top:25%;        transform: translate(-50%, -50%);left:34.5%""></img><img src=""media/stimuli/inanimate_003_left.png"" class=""coveredImage test"" style = ""width:100px; height:100px;position:fixed; top:25%;        transform: translate(-50%, -50%);left:41.5%""></img><img src=""media/stimuli/animate_003_right.png"" class=""coveredImage test"" style = ""width:100px; height:100px;position:fixed; top:25%;        transform: translate(-50%, -50%);left:54.5%""></img><img src=""media/stimuli/animate_003_right.png"" class=""coveredImage test"" style = ""width:100px; height:100px;position:fixed; top:25%;        transform: translate(-50%, -50%);left:61.5%""></img><img src=""media/f.png""style = ""width:30px x; height:30px;position:fixed; top:43%;    transform: translate(-50%, -50%);left:40%""></img><img src=""media/j.png""style = ""width:30px; height:30px;position:fixed; top:43%;    transform: translate(-50%, -50%);left:60%""></img>","media/stimuli/animate_003_left.png","animate","left","pair","media/stimuli/inanimate_003_left.png","inanimate","left","pair","media/stimuli/animate_003_right.png","animate","right","pair","animacy_pose"
"","","","","","html-keyboard-response","55","396400","0.0-55.0","SS1678233217408","5cbe04b4f429ff00159de30e","6406d7f26dd5b7fc1e3377bd","6407ce7076ca6a56298a7ea0","1138","569","","1975","","f","","","","","","","<img src=""media/stimuli/animate_012_right.png"" class=""coveredImage test"" style = ""width:100px; height:100px; position:fixed; top:10%;    transform: translate(-50%, -50%);left:48%""></img><img src=""media/stimuli/animate_012_right.png"" class=""coveredImage test"" style = ""width:100px; height:100px;position:fixed; top:25%;        transform: translate(-50%, -50%);left:34.5%""></img><img src=""media/stimuli/animate_012_right.png"" class=""coveredImage test"" style = ""width:100px; height:100px;position:fixed; top:25%;        transform: translate(-50%, -50%);left:41.5%""></img><img src=""media/stimuli/animate_012_left.png"" class=""coveredImage test"" style = ""width:100px; height:100px;position:fixed; top:25%;        transform: translate(-50%, -50%);left:58%""></img><img src=""media/f.png""style = ""width:30px x; height:30px;position:fixed; top:43%;    transform: translate(-50%, -50%);left:40%""></img><img src=""media/j.png""style = ""width:30px; height:30px;position:fixed; top:43%;    transform: translate(-50%, -50%);left:60%""></img>","media/stimuli/animate_012_right.png","animate","right","single","media/stimuli/animate_012_right.png","animate","right","pair","media/stimuli/animate_012_left.png","animate","left","single","number_pose"
"","","","","","html-keyboard-response","56","397929","0.0-56.0","SS1678233217408","5cbe04b4f429ff00159de30e","6406d7f26dd5b7fc1e3377bd","6407ce7076ca6a56298a7ea0","1138","569","","1517","","j","","","","","","","<img src=""media/stimuli/inanimate_006_right.png"" class=""coveredImage test"" style = ""width:100px; height:100px; position:fixed; top:10%;    transform: translate(-50%, -50%);left:44.5%""></img><img src=""media/stimuli/inanimate_006_right.png"" class=""coveredImage test"" style = ""width:100px; height:100px; position:fixed; top:10%;    transform: translate(-50%, -50%);left:51.5%""></img><img src=""media/stimuli/inanimate_012_right.png"" class=""coveredImage test"" style = ""width:100px; height:100px;position:fixed; top:25%;        transform: translate(-50%, -50%);left:34.5%""></img><img src=""media/stimuli/inanimate_012_right.png"" class=""coveredImage test"" style = ""width:100px; height:100px;position:fixed; top:25%;        transform: translate(-50%, -50%);left:41.5%""></img><img src=""media/stimuli/inanimate_006_right.png"" class=""coveredImage test"" style = ""width:100px; height:100px;position:fixed; top:25%;        transform: translate(-50%, -50%);left:58%""></img><img src=""media/f.png""style = ""width:30px x; height:30px;position:fixed; top:43%;    transform: translate(-50%, -50%);left:40%""></img><img src=""media/j.png""style = ""width:30px; height:30px;position:fixed; top:43%;    transform: translate(-50%, -50%);left:60%""></img>","media/stimuli/inanimate_006_right.png","inanimate","right","pair","media/stimuli/inanimate_012_right.png","inanimate","right","pair","media/stimuli/inanimate_006_right.png","inanimate","right","single","identity_number"
"","","","","","html-keyboard-response","57","400481","0.0-57.0","SS1678233217408","5cbe04b4f429ff00159de30e","6406d7f26dd5b7fc1e3377bd","6407ce7076ca6a56298a7ea0","1138","569","","2536","","f","","","","","","","<img src=""media/stimuli/inanimate_001_right.png"" class=""coveredImage test"" style = ""width:100px; height:100px; position:fixed; top:10%;    transform: translate(-50%, -50%);left:48%""></img><img src=""media/stimuli/inanimate_009_right.png"" class=""coveredImage test"" style = ""width:100px; height:100px;position:fixed; top:25%;        transform: translate(-50%, -50%);left:38%""></img><img src=""media/stimuli/animate_008_right.png"" class=""coveredImage test"" style = ""width:100px; height:100px;position:fixed; top:25%;        transform: translate(-50%, -50%);left:58%""></img><img src=""media/f.png""style = ""width:30px x; height:30px;position:fixed; top:43%;    transform: translate(-50%, -50%);left:40%""></img><img src=""media/j.png""style = ""width:30px; height:30px;position:fixed; top:43%;    transform: translate(-50%, -50%);left:60%""></img>","media/stimuli/inanimate_001_right.png","inanimate","right","single","media/stimuli/inanimate_009_right.png","inanimate","right","single","media/stimuli/animate_008_right.png","animate","right","single","identity_animacy"
"","","","","","html-keyboard-response","58","401855","0.0-58.0","SS1678233217408","5cbe04b4f429ff00159de30e","6406d7f26dd5b7fc1e3377bd","6407ce7076ca6a56298a7ea0","1138","569","","1355","","f","","","","","","","<img src=""media/stimuli/animate_012_left.png"" class=""coveredImage test"" style = ""width:100px; height:100px; position:fixed; top:10%;    transform: translate(-50%, -50%);left:48%""></img><img src=""media/stimuli/animate_012_left.png"" class=""coveredImage test"" style = ""width:100px; height:100px;position:fixed; top:25%;        transform: translate(-50%, -50%);left:34.5%""></img><img src=""media/stimuli/animate_012_left.png"" class=""coveredImage test"" style = ""width:100px; height:100px;position:fixed; top:25%;        transform: translate(-50%, -50%);left:41.5%""></img><img src=""media/stimuli/inanimate_005_left.png"" class=""coveredImage test"" style = ""width:100px; height:100px;position:fixed; top:25%;        transform: translate(-50%, -50%);left:58%""></img><img src=""media/f.png""style = ""width:30px x; height:30px;position:fixed; top:43%;    transform: translate(-50%, -50%);left:40%""></img><img src=""media/j.png""style = ""width:30px; height:30px;position:fixed; top:43%;    transform: translate(-50%, -50%);left:60%""></img>","media/stimuli/animate_012_left.png","animate","left","single","media/stimuli/animate_012_left.png","animate","left","pair","media/stimuli/inanimate_005_left.png","inanimate","left","single","number_animacy"
"","","","","","html-keyboard-response","59","506038","0.0-59.0","SS1678233217408","5cbe04b4f429ff00159de30e","6406d7f26dd5b7fc1e3377bd","6407ce7076ca6a56298a7ea0","1138","569","","104167","","h","","","","","","","","","","","","","","","","","","","",""
"","","","","","html-keyboard-response","60","508664","0.0-60.0","SS1678233217408","5cbe04b4f429ff00159de30e","6406d7f26dd5b7fc1e3377bd","6407ce7076ca6a56298a7ea0","1138","569","","2603","","j","","","","","","","<img src=""media/stimuli/animate_007_right.png"" class=""coveredImage test"" style = ""width:100px; height:100px; position:fixed; top:10%;    transform: translate(-50%, -50%);left:48%""></img><img src=""media/stimuli/animate_007_left.png"" class=""coveredImage test"" style = ""width:100px; height:100px;position:fixed; top:25%;        transform: translate(-50%, -50%);left:38%""></img><img src=""media/stimuli/animate_007_right.png"" class=""coveredImage test"" style = ""width:100px; height:100px;position:fixed; top:25%;        transform: translate(-50%, -50%);left:54.5%""></img><img src=""media/stimuli/animate_007_right.png"" class=""coveredImage test"" style = ""width:100px; height:100px;position:fixed; top:25%;        transform: translate(-50%, -50%);left:61.5%""></img><img src=""media/f.png""style = ""width:30px x; height:30px;position:fixed; top:43%;    transform: translate(-50%, -50%);left:40%""></img><img src=""media/j.png""style = ""width:30px; height:30px;position:fixed; top:43%;    transform: translate(-50%, -50%);left:60%""></img>","media/stimuli/animate_007_right.png","animate","right","single","media/stimuli/animate_007_left.png","animate","left","single","media/stimuli/animate_007_right.png","animate","right","pair","pose_number"
"","","","","","html-keyboard-response","61","510957","0.0-61.0","SS1678233217408","5cbe04b4f429ff00159de30e","6406d7f26dd5b7fc1e3377bd","6407ce7076ca6a56298a7ea0","1138","569","","2274","","j","","","","","","","<img src=""media/stimuli/inanimate_011_right.png"" class=""coveredImage test"" style = ""width:100px; height:100px; position:fixed; top:10%;    transform: translate(-50%, -50%);left:48%""></img><img src=""media/stimuli/inanimate_002_right.png"" class=""coveredImage test"" style = ""width:100px; height:100px;position:fixed; top:25%;        transform: translate(-50%, -50%);left:38%""></img><img src=""media/stimuli/inanimate_011_right.png"" class=""coveredImage test"" style = ""width:100px; height:100px;position:fixed; top:25%;        transform: translate(-50%, -50%);left:54.5%""></img><img src=""media/stimuli/inanimate_011_right.png"" class=""coveredImage test"" style = ""width:100px; height:100px;position:fixed; top:25%;        transform: translate(-50%, -50%);left:61.5%""></img><img src=""media/f.png""style = ""width:30px x; height:30px;position:fixed; top:43%;    transform: translate(-50%, -50%);left:40%""></img><img src=""media/j.png""style = ""width:30px; height:30px;position:fixed; top:43%;    transform: translate(-50%, -50%);left:60%""></img>","media/stimuli/inanimate_011_right.png","inanimate","right","single","media/stimuli/inanimate_002_right.png","inanimate","right","single","media/stimuli/inanimate_011_right.png","inanimate","right","pair","identity_number"
"","","","","","html-keyboard-response","62","512941","0.0-62.0","SS1678233217408","5cbe04b4f429ff00159de30e","6406d7f26dd5b7fc1e3377bd","6407ce7076ca6a56298a7ea0","1138","569","","1968","","j","","","","","","","<img src=""media/stimuli/animate_010_left.png"" class=""coveredImage test"" style = ""width:100px; height:100px; position:fixed; top:10%;    transform: translate(-50%, -50%);left:48%""></img><img src=""media/stimuli/animate_006_left.png"" class=""coveredImage test"" style = ""width:100px; height:100px;position:fixed; top:25%;        transform: translate(-50%, -50%);left:38%""></img><img src=""media/stimuli/animate_010_right.png"" class=""coveredImage test"" style = ""width:100px; height:100px;position:fixed; top:25%;        transform: translate(-50%, -50%);left:58%""></img><img src=""media/f.png""style = ""width:30px x; height:30px;position:fixed; top:43%;    transform: translate(-50%, -50%);left:40%""></img><img src=""media/j.png""style = ""width:30px; height:30px;position:fixed; top:43%;    transform: translate(-50%, -50%);left:60%""></img>","media/stimuli/animate_010_left.png","animate","left","single","media/stimuli/animate_006_left.png","animate","left","single","media/stimuli/animate_010_right.png","animate","right","single","identity_pose"
"","","","","","html-keyboard-response","63","515148","0.0-63.0","SS1678233217408","5cbe04b4f429ff00159de30e","6406d7f26dd5b7fc1e3377bd","6407ce7076ca6a56298a7ea0","1138","569","","2187","","f","","","","","","","<img src=""media/stimuli/animate_001_right.png"" class=""coveredImage test"" style = ""width:100px; height:100px; position:fixed; top:10%;    transform: translate(-50%, -50%);left:48%""></img><img src=""media/stimuli/animate_001_right.png"" class=""coveredImage test"" style = ""width:100px; height:100px;position:fixed; top:25%;        transform: translate(-50%, -50%);left:34.5%""></img><img src=""media/stimuli/animate_001_right.png"" class=""coveredImage test"" style = ""width:100px; height:100px;position:fixed; top:25%;        transform: translate(-50%, -50%);left:41.5%""></img><img src=""media/stimuli/animate_001_left.png"" class=""coveredImage test"" style = ""width:100px; height:100px;position:fixed; top:25%;        transform: translate(-50%, -50%);left:58%""></img><img src=""media/f.png""style = ""width:30px x; height:30px;position:fixed; top:43%;    transform: translate(-50%, -50%);left:40%""></img><img src=""media/j.png""style = ""width:30px; height:30px;position:fixed; top:43%;    transform: translate(-50%, -50%);left:60%""></img>","media/stimuli/animate_001_right.png","animate","right","single","media/stimuli/animate_001_right.png","animate","right","pair","media/stimuli/animate_001_left.png","animate","left","single","number_pose"
"","","","","","html-keyboard-response","64","517674","0.0-64.0","SS1678233217408","5cbe04b4f429ff00159de30e","6406d7f26dd5b7fc1e3377bd","6407ce7076ca6a56298a7ea0","1138","569","","2513","","f","","","","","","","<img src=""media/stimuli/inanimate_010_left.png"" class=""coveredImage test"" style = ""width:100px; height:100px; position:fixed; top:10%;    transform: translate(-50%, -50%);left:44.5%""></img><img src=""media/stimuli/inanimate_010_left.png"" class=""coveredImage test"" style = ""width:100px; height:100px; position:fixed; top:10%;    transform: translate(-50%, -50%);left:51.5%""></img><img src=""media/stimuli/inanimate_007_left.png"" class=""coveredImage test"" style = ""width:100px; height:100px;position:fixed; top:25%;        transform: translate(-50%, -50%);left:34.5%""></img><img src=""media/stimuli/inanimate_007_left.png"" class=""coveredImage test"" style = ""width:100px; height:100px;position:fixed; top:25%;        transform: translate(-50%, -50%);left:41.5%""></img><img src=""media/stimuli/animate_004_left.png"" class=""coveredImage test"" style = ""width:100px; height:100px;position:fixed; top:25%;        transform: translate(-50%, -50%);left:54.5%""></img><img src=""media/stimuli/animate_004_left.png"" class=""coveredImage test"" style = ""width:100px; height:100px;position:fixed; top:25%;        transform: translate(-50%, -50%);left:61.5%""></img><img src=""media/f.png""style = ""width:30px x; height:30px;position:fixed; top:43%;    transform: translate(-50%, -50%);left:40%""></img><img src=""media/j.png""style = ""width:30px; height:30px;position:fixed; top:43%;    transform: translate(-50%, -50%);left:60%""></img>","media/stimuli/inanimate_010_left.png","inanimate","left","pair","media/stimuli/inanimate_007_left.png","inanimate","left","pair","media/stimuli/animate_004_left.png","animate","left","pair","identity_animacy"
"","","","","","html-keyboard-response","65","520329","0.0-65.0","SS1678233217408","5cbe04b4f429ff00159de30e","6406d7f26dd5b7fc1e3377bd","6407ce7076ca6a56298a7ea0","1138","569","","2638","","j","","","","","","","<img src=""media/stimuli/inanimate_012_left.png"" class=""coveredImage test"" style = ""width:100px; height:100px; position:fixed; top:10%;    transform: translate(-50%, -50%);left:44.5%""></img><img src=""media/stimuli/inanimate_012_left.png"" class=""coveredImage test"" style = ""width:100px; height:100px; position:fixed; top:10%;    transform: translate(-50%, -50%);left:51.5%""></img><img src=""media/stimuli/inanimate_004_left.png"" class=""coveredImage test"" style = ""width:100px; height:100px;position:fixed; top:25%;        transform: translate(-50%, -50%);left:34.5%""></img><img src=""media/stimuli/inanimate_004_left.png"" class=""coveredImage test"" style = ""width:100px; height:100px;position:fixed; top:25%;        transform: translate(-50%, -50%);left:41.5%""></img><img src=""media/stimuli/inanimate_012_right.png"" class=""coveredImage test"" style = ""width:100px; height:100px;position:fixed; top:25%;        transform: translate(-50%, -50%);left:54.5%""></img><img src=""media/stimuli/inanimate_012_right.png"" class=""coveredImage test"" style = ""width:100px; height:100px;position:fixed; top:25%;        transform: translate(-50%, -50%);left:61.5%""></img><img src=""media/f.png""style = ""width:30px x; height:30px;position:fixed; top:43%;    transform: translate(-50%, -50%);left:40%""></img><img src=""media/j.png""style = ""width:30px; height:30px;position:fixed; top:43%;    transform: translate(-50%, -50%);left:60%""></img>","media/stimuli/inanimate_012_left.png","inanimate","left","pair","media/stimuli/inanimate_004_left.png","inanimate","left","pair","media/stimuli/inanimate_012_right.png","inanimate","right","pair","identity_pose"
"","","","","","html-keyboard-response","66","523068","0.0-66.0","SS1678233217408","5cbe04b4f429ff00159de30e","6406d7f26dd5b7fc1e3377bd","6407ce7076ca6a56298a7ea0","1138","569","","2718","","j","","","","","","","<img src=""media/stimuli/inanimate_006_right.png"" class=""coveredImage test"" style = ""width:100px; height:100px; position:fixed; top:10%;    transform: translate(-50%, -50%);left:44.5%""></img><img src=""media/stimuli/inanimate_006_right.png"" class=""coveredImage test"" style = ""width:100px; height:100px; position:fixed; top:10%;    transform: translate(-50%, -50%);left:51.5%""></img><img src=""media/stimuli/animate_007_right.png"" class=""coveredImage test"" style = ""width:100px; height:100px;position:fixed; top:25%;        transform: translate(-50%, -50%);left:34.5%""></img><img src=""media/stimuli/animate_007_right.png"" class=""coveredImage test"" style = ""width:100px; height:100px;position:fixed; top:25%;        transform: translate(-50%, -50%);left:41.5%""></img><img src=""media/stimuli/inanimate_009_right.png"" class=""coveredImage test"" style = ""width:100px; height:100px;position:fixed; top:25%;        transform: translate(-50%, -50%);left:54.5%""></img><img src=""media/stimuli/inanimate_009_right.png"" class=""coveredImage test"" style = ""width:100px; height:100px;position:fixed; top:25%;        transform: translate(-50%, -50%);left:61.5%""></img><img src=""media/f.png""style = ""width:30px x; height:30px;position:fixed; top:43%;    transform: translate(-50%, -50%);left:40%""></img><img src=""media/j.png""style = ""width:30px; height:30px;position:fixed; top:43%;    transform: translate(-50%, -50%);left:60%""></img>","media/stimuli/inanimate_006_right.png","inanimate","right","pair","media/stimuli/animate_007_right.png","animate","right","pair","media/stimuli/inanimate_009_right.png","inanimate","right","pair","animacy_identity"
"","","","","","html-keyboard-response","67","524868","0.0-67.0","SS1678233217408","5cbe04b4f429ff00159de30e","6406d7f26dd5b7fc1e3377bd","6407ce7076ca6a56298a7ea0","1138","569","","1791","","f","","","","","","","<img src=""media/stimuli/animate_002_left.png"" class=""coveredImage test"" style = ""width:100px; height:100px; position:fixed; top:10%;    transform: translate(-50%, -50%);left:48%""></img><img src=""media/stimuli/animate_002_right.png"" class=""coveredImage test"" style = ""width:100px; height:100px;position:fixed; top:25%;        transform: translate(-50%, -50%);left:34.5%""></img><img src=""media/stimuli/animate_002_right.png"" class=""coveredImage test"" style = ""width:100px; height:100px;position:fixed; top:25%;        transform: translate(-50%, -50%);left:41.5%""></img><img src=""media/stimuli/inanimate_007_left.png"" class=""coveredImage test"" style = ""width:100px; height:100px;position:fixed; top:25%;        transform: translate(-50%, -50%);left:54.5%""></img><img src=""media/stimuli/inanimate_007_left.png"" class=""coveredImage test"" style = ""width:100px; height:100px;position:fixed; top:25%;        transform: translate(-50%, -50%);left:61.5%""></img><img src=""media/f.png""style = ""width:30px x; height:30px;position:fixed; top:43%;    transform: translate(-50%, -50%);left:40%""></img><img src=""media/j.png""style = ""width:30px; height:30px;position:fixed; top:43%;    transform: translate(-50%, -50%);left:60%""></img>","media/stimuli/animate_002_left.png","animate","left","single","media/stimuli/animate_002_right.png","animate","right","pair","media/stimuli/inanimate_007_left.png","inanimate","left","pair","pose_animacy"
"","","","","","html-keyboard-response","68","526564","0.0-68.0","SS1678233217408","5cbe04b4f429ff00159de30e","6406d7f26dd5b7fc1e3377bd","6407ce7076ca6a56298a7ea0","1138","569","","1681","","f","","","","","","","<img src=""media/stimuli/inanimate_001_right.png"" class=""coveredImage test"" style = ""width:100px; height:100px; position:fixed; top:10%;    transform: translate(-50%, -50%);left:48%""></img><img src=""media/stimuli/inanimate_009_right.png"" class=""coveredImage test"" style = ""width:100px; height:100px;position:fixed; top:25%;        transform: translate(-50%, -50%);left:38%""></img><img src=""media/stimuli/animate_001_right.png"" class=""coveredImage test"" style = ""width:100px; height:100px;position:fixed; top:25%;        transform: translate(-50%, -50%);left:58%""></img><img src=""media/f.png""style = ""width:30px x; height:30px;position:fixed; top:43%;    transform: translate(-50%, -50%);left:40%""></img><img src=""media/j.png""style = ""width:30px; height:30px;position:fixed; top:43%;    transform: translate(-50%, -50%);left:60%""></img>","media/stimuli/inanimate_001_right.png","inanimate","right","single","media/stimuli/inanimate_009_right.png","inanimate","right","single","media/stimuli/animate_001_right.png","animate","right","single","identity_animacy"
"","","","","","html-keyboard-response","69","529854","0.0-69.0","SS1678233217408","5cbe04b4f429ff00159de30e","6406d7f26dd5b7fc1e3377bd","6407ce7076ca6a56298a7ea0","1138","569","","3276","","j","","","","","","","<img src=""media/stimuli/inanimate_006_right.png"" class=""coveredImage test"" style = ""width:100px; height:100px; position:fixed; top:10%;    transform: translate(-50%, -50%);left:44.5%""></img><img src=""media/stimuli/inanimate_006_right.png"" class=""coveredImage test"" style = ""width:100px; height:100px; position:fixed; top:10%;    transform: translate(-50%, -50%);left:51.5%""></img><img src=""media/stimuli/animate_010_right.png"" class=""coveredImage test"" style = ""width:100px; height:100px;position:fixed; top:25%;        transform: translate(-50%, -50%);left:34.5%""></img><img src=""media/stimuli/animate_010_right.png"" class=""coveredImage test"" style = ""width:100px; height:100px;position:fixed; top:25%;        transform: translate(-50%, -50%);left:41.5%""></img><img src=""media/stimuli/inanimate_009_right.png"" class=""coveredImage test"" style = ""width:100px; height:100px;position:fixed; top:25%;        transform: translate(-50%, -50%);left:54.5%""></img><img src=""media/stimuli/inanimate_009_right.png"" class=""coveredImage test"" style = ""width:100px; height:100px;position:fixed; top:25%;        transform: translate(-50%, -50%);left:61.5%""></img><img src=""media/f.png""style = ""width:30px x; height:30px;position:fixed; top:43%;    transform: translate(-50%, -50%);left:40%""></img><img src=""media/j.png""style = ""width:30px; height:30px;position:fixed; top:43%;    transform: translate(-50%, -50%);left:60%""></img>","media/stimuli/inanimate_006_right.png","inanimate","right","pair","media/stimuli/animate_010_right.png","animate","right","pair","media/stimuli/inanimate_009_right.png","inanimate","right","pair","animacy_identity"
"","","","","","html-keyboard-response","70","531216","0.0-70.0","SS1678233217408","5cbe04b4f429ff00159de30e","6406d7f26dd5b7fc1e3377bd","6407ce7076ca6a56298a7ea0","1138","569","","1344","","j","","","","","","","<img src=""media/stimuli/animate_011_right.png"" class=""coveredImage test"" style = ""width:100px; height:100px; position:fixed; top:10%;    transform: translate(-50%, -50%);left:48%""></img><img src=""media/stimuli/inanimate_002_right.png"" class=""coveredImage test"" style = ""width:100px; height:100px;position:fixed; top:25%;        transform: translate(-50%, -50%);left:38%""></img><img src=""media/stimuli/animate_011_right.png"" class=""coveredImage test"" style = ""width:100px; height:100px;position:fixed; top:25%;        transform: translate(-50%, -50%);left:54.5%""></img><img src=""media/stimuli/animate_011_right.png"" class=""coveredImage test"" style = ""width:100px; height:100px;position:fixed; top:25%;        transform: translate(-50%, -50%);left:61.5%""></img><img src=""media/f.png""style = ""width:30px x; height:30px;position:fixed; top:43%;    transform: translate(-50%, -50%);left:40%""></img><img src=""media/j.png""style = ""width:30px; height:30px;position:fixed; top:43%;    transform: translate(-50%, -50%);left:60%""></img>","media/stimuli/animate_011_right.png","animate","right","single","media/stimuli/inanimate_002_right.png","inanimate","right","single","media/stimuli/animate_011_right.png","animate","right","pair","animacy_number"
"","","","","","html-keyboard-response","71","532670","0.0-71.0","SS1678233217408","5cbe04b4f429ff00159de30e","6406d7f26dd5b7fc1e3377bd","6407ce7076ca6a56298a7ea0","1138","569","","1434","","f","","","","","","","<img src=""media/stimuli/animate_007_right.png"" class=""coveredImage test"" style = ""width:100px; height:100px; position:fixed; top:10%;    transform: translate(-50%, -50%);left:44.5%""></img><img src=""media/stimuli/animate_007_right.png"" class=""coveredImage test"" style = ""width:100px; height:100px; position:fixed; top:10%;    transform: translate(-50%, -50%);left:51.5%""></img><img src=""media/stimuli/animate_007_left.png"" class=""coveredImage test"" style = ""width:100px; height:100px;position:fixed; top:25%;        transform: translate(-50%, -50%);left:38%""></img><img src=""media/stimuli/inanimate_003_right.png"" class=""coveredImage test"" style = ""width:100px; height:100px;position:fixed; top:25%;        transform: translate(-50%, -50%);left:58%""></img><img src=""media/f.png""style = ""width:30px x; height:30px;position:fixed; top:43%;    transform: translate(-50%, -50%);left:40%""></img><img src=""media/j.png""style = ""width:30px; height:30px;position:fixed; top:43%;    transform: translate(-50%, -50%);left:60%""></img>","media/stimuli/animate_007_right.png","animate","right","pair","media/stimuli/animate_007_left.png","animate","left","single","media/stimuli/inanimate_003_right.png","inanimate","right","single","pose_animacy"
"","","","","","html-keyboard-response","72","534092","0.0-72.0","SS1678233217408","5cbe04b4f429ff00159de30e","6406d7f26dd5b7fc1e3377bd","6407ce7076ca6a56298a7ea0","1138","569","","1408","","m","","","","","","","","","","","","","","","","","","","",""
"","","","","","survey-likert","73","542356","0.0-73.0","SS1678233217408","5cbe04b4f429ff00159de30e","6406d7f26dd5b7fc1e3377bd","6407ce7076ca6a56298a7ea0","1138","569","","8246","","{""Q0"":4}","[0]","complexity","media/stimuli/animate_004_right.png","animate","single","right","","","","","","","","","","","","","",""
"","","","","","survey-likert","74","548184","0.0-74.0","SS1678233217408","5cbe04b4f429ff00159de30e","6406d7f26dd5b7fc1e3377bd","6407ce7076ca6a56298a7ea0","1138","569","","5799","","{""Q0"":5}","[0]","complexity","media/stimuli/animate_003_left.png","animate","pair","left","","","","","","","","","","","","","",""
"","","","","","survey-likert","75","551122","0.0-75.0","SS1678233217408","5cbe04b4f429ff00159de30e","6406d7f26dd5b7fc1e3377bd","6407ce7076ca6a56298a7ea0","1138","569","","2901","","{""Q0"":1}","[0]","complexity","media/stimuli/inanimate_002_right.png","inanimate","single","right","","","","","","","","","","","","","",""
"","","","","","survey-likert","76","553564","0.0-76.0","SS1678233217408","5cbe04b4f429ff00159de30e","6406d7f26dd5b7fc1e3377bd","6407ce7076ca6a56298a7ea0","1138","569","","2416","","{""Q0"":4}","[0]","complexity","media/stimuli/animate_005_left.png","animate","single","left","","","","","","","","","","","","","",""
"","","","","","survey-likert","77","556455","0.0-77.0","SS1678233217408","5cbe04b4f429ff00159de30e","6406d7f26dd5b7fc1e3377bd","6407ce7076ca6a56298a7ea0","1138","569","","2860","","{""Q0"":5}","[0]","complexity","media/stimuli/animate_001_right.png","animate","pair","right","","","","","","","","","","","","","",""
"","","","","","survey-likert","78","560409","0.0-78.0","SS1678233217408","5cbe04b4f429ff00159de30e","6406d7f26dd5b7fc1e3377bd","6407ce7076ca6a56298a7ea0","1138","569","","3928","","{""Q0"":2}","[0]","complexity","media/stimuli/inanimate_012_right.png","inanimate","pair","right","","","","","","","","","","","","","",""
"","","","","","survey-likert","79","563882","0.0-79.0","SS1678233217408","5cbe04b4f429ff00159de30e","6406d7f26dd5b7fc1e3377bd","6407ce7076ca6a56298a7ea0","1138","569","","3445","","{""Q0"":4}","[0]","complexity","media/stimuli/animate_010_right.png","animate","single","right","","","","","","","","","","","","","",""
"","","","","","survey-likert","80","567455","0.0-80.0","SS1678233217408","5cbe04b4f429ff00159de30e","6406d7f26dd5b7fc1e3377bd","6407ce7076ca6a56298a7ea0","1138","569","","3537","","{""Q0"":5}","[0]","complexity","media/stimuli/animate_010_right.png","animate","pair","right","","","","","","","","","","","","","",""
"","","","","","survey-likert","81","569715","0.0-81.0","SS1678233217408","5cbe04b4f429ff00159de30e","6406d7f26dd5b7fc1e3377bd","6407ce7076ca6a56298a7ea0","1138","569","","2223","","{""Q0"":2}","[0]","complexity","media/stimuli/inanimate_001_left.png","inanimate","pair","left","","","","","","","","","","","","","",""
"","","","","","survey-likert","82","572398","0.0-82.0","SS1678233217408","5cbe04b4f429ff00159de30e","6406d7f26dd5b7fc1e3377bd","6407ce7076ca6a56298a7ea0","1138","569","","2642","","{""Q0"":1}","[0]","complexity","media/stimuli/inanimate_005_right.png","inanimate","single","right","","","","","","","","","","","","","",""
"","","","","","survey-likert","83","574761","0.0-83.0","SS1678233217408","5cbe04b4f429ff00159de30e","6406d7f26dd5b7fc1e3377bd","6407ce7076ca6a56298a7ea0","1138","569","","2334","","{""Q0"":2}","[0]","complexity","media/stimuli/inanimate_005_right.png","inanimate","pair","right","","","","","","","","","","","","","",""
"","","","","","survey-likert","84","578801","0.0-84.0","SS1678233217408","5cbe04b4f429ff00159de30e","6406d7f26dd5b7fc1e3377bd","6407ce7076ca6a56298a7ea0","1138","569","","4010","","{""Q0"":5}","[0]","complexity","media/stimuli/animate_002_right.png","animate","pair","right","","","","","","","","","","","","","",""
"","","","","","html-keyboard-response","85","580410","0.0-85.0","SS1678233217408","5cbe04b4f429ff00159de30e","6406d7f26dd5b7fc1e3377bd","6407ce7076ca6a56298a7ea0","1138","569","","1582","","h","","","","","","","","","","","","","","","","","","","",""
"","","","","","survey-likert","86","586886","0.0-86.0","SS1678233217408","5cbe04b4f429ff00159de30e","6406d7f26dd5b7fc1e3377bd","6407ce7076ca6a56298a7ea0","1138","569","","6456","","{""Q0"":5}","[0]","complexity","media/stimuli/inanimate_008_left.png","inanimate","pair","left","","","","","","","","","","","","","",""
"","","","","","survey-likert","87","591714","0.0-87.0","SS1678233217408","5cbe04b4f429ff00159de30e","6406d7f26dd5b7fc1e3377bd","6407ce7076ca6a56298a7ea0","1138","569","","4798","","{""Q0"":4}","[0]","complexity","media/stimuli/inanimate_008_left.png","inanimate","single","left","","","","","","","","","","","","","",""
"","","","","","survey-likert","88","596354","0.0-88.0","SS1678233217408","5cbe04b4f429ff00159de30e","6406d7f26dd5b7fc1e3377bd","6407ce7076ca6a56298a7ea0","1138","569","","4609","","{""Q0"":2}","[0]","complexity","media/stimuli/inanimate_009_left.png","inanimate","single","left","","","","","","","","","","","","","",""
"","","","","","survey-likert","89","599339","0.0-89.0","SS1678233217408","5cbe04b4f429ff00159de30e","6406d7f26dd5b7fc1e3377bd","6407ce7076ca6a56298a7ea0","1138","569","","2957","","{""Q0"":1}","[0]","complexity","media/stimuli/inanimate_001_left.png","inanimate","single","left","","","","","","","","","","","","","",""
"","","","","","survey-likert","90","602792","0.0-90.0","SS1678233217408","5cbe04b4f429ff00159de30e","6406d7f26dd5b7fc1e3377bd","6407ce7076ca6a56298a7ea0","1138","569","","3420","","{""Q0"":2}","[0]","complexity","media/stimuli/inanimate_001_right.png","inanimate","pair","right","","","","","","","","","","","","","",""
"","","","","","survey-likert","91","605579","0.0-91.0","SS1678233217408","5cbe04b4f429ff00159de30e","6406d7f26dd5b7fc1e3377bd","6407ce7076ca6a56298a7ea0","1138","569","","2759","","{""Q0"":1}","[0]","complexity","media/stimuli/inanimate_001_right.png","inanimate","single","right","","","","","","","","","","","","","",""
"","","","","","survey-likert","92","608287","0.0-92.0","SS1678233217408","5cbe04b4f429ff00159de30e","6406d7f26dd5b7fc1e3377bd","6407ce7076ca6a56298a7ea0","1138","569","","2677","","{""Q0"":1}","[0]","complexity","media/stimuli/inanimate_003_right.png","inanimate","single","right","","","","","","","","","","","","","",""
"","","","","","survey-likert","93","611069","0.0-93.0","SS1678233217408","5cbe04b4f429ff00159de30e","6406d7f26dd5b7fc1e3377bd","6407ce7076ca6a56298a7ea0","1138","569","","2748","","{""Q0"":1}","[0]","complexity","media/stimuli/inanimate_012_left.png","inanimate","single","left","","","","","","","","","","","","","",""
"","","","","","survey-likert","94","614386","0.0-94.0","SS1678233217408","5cbe04b4f429ff00159de30e","6406d7f26dd5b7fc1e3377bd","6407ce7076ca6a56298a7ea0","1138","569","","3288","","{""Q0"":5}","[0]","complexity","media/stimuli/animate_012_right.png","animate","pair","right","","","","","","","","","","","","","",""
"","","","","","survey-likert","95","616815","0.0-95.0","SS1678233217408","5cbe04b4f429ff00159de30e","6406d7f26dd5b7fc1e3377bd","6407ce7076ca6a56298a7ea0","1138","569","","2401","","{""Q0"":5}","[0]","complexity","media/stimuli/inanimate_006_left.png","inanimate","pair","left","","","","","","","","","","","","","",""
"","","","","","survey-likert","96","619281","0.0-96.0","SS1678233217408","5cbe04b4f429ff00159de30e","6406d7f26dd5b7fc1e3377bd","6407ce7076ca6a56298a7ea0","1138","569","","2428","","{""Q0"":4}","[0]","complexity","media/stimuli/animate_004_left.png","animate","single","left","","","","","","","","","","","","","",""
"","","","","","survey-likert","97","621548","0.0-97.0","SS1678233217408","5cbe04b4f429ff00159de30e","6406d7f26dd5b7fc1e3377bd","6407ce7076ca6a56298a7ea0","1138","569","","2222","","{""Q0"":4}","[0]","complexity","media/stimuli/animate_012_left.png","animate","single","left","","","","","","","","","","","","","",""
"","","","","","html-keyboard-response","98","624380","0.0-98.0","SS1678233217408","5cbe04b4f429ff00159de30e","6406d7f26dd5b7fc1e3377bd","6407ce7076ca6a56298a7ea0","1138","569","","2798","","h","","","","","","","","","","","","","","","","","","","",""
"","","","","","html-keyboard-response","99","626835","0.0-99.0","SS1678233217408","5cbe04b4f429ff00159de30e","6406d7f26dd5b7fc1e3377bd","6407ce7076ca6a56298a7ea0","1138","569","","2434","","j","","","","","","","<img src=""media/stimuli/inanimate_003_left.png"" class=""coveredImage test"" style = ""width:100px; height:100px; position:fixed; top:10%;    transform: translate(-50%, -50%);left:44.5%""></img><img src=""media/stimuli/inanimate_003_left.png"" class=""coveredImage test"" style = ""width:100px; height:100px; position:fixed; top:10%;    transform: translate(-50%, -50%);left:51.5%""></img><img src=""media/stimuli/animate_011_right.png"" class=""coveredImage test"" style = ""width:100px; height:100px;position:fixed; top:25%;        transform: translate(-50%, -50%);left:34.5%""></img><img src=""media/stimuli/animate_011_right.png"" class=""coveredImage test"" style = ""width:100px; height:100px;position:fixed; top:25%;        transform: translate(-50%, -50%);left:41.5%""></img><img src=""media/stimuli/inanimate_003_left.png"" class=""coveredImage test"" style = ""width:100px; height:100px;position:fixed; top:25%;        transform: translate(-50%, -50%);left:54.5%""></img><img src=""media/stimuli/inanimate_003_left.png"" class=""coveredImage test"" style = ""width:100px; height:100px;position:fixed; top:25%;        transform: translate(-50%, -50%);left:61.5%""></img><img src=""media/f.png""style = ""width:30px x; height:30px;position:fixed; top:43%;    transform: translate(-50%, -50%);left:40%""></img><img src=""media/j.png""style = ""width:30px; height:30px;position:fixed; top:43%;    transform: translate(-50%, -50%);left:60%""></img>","media/stimuli/inanimate_003_left.png","inanimate","left","pair","media/stimuli/animate_011_right.png","animate","right","pair","media/stimuli/inanimate_003_left.png","inanimate","left","pair","animacy_pose"
"","","","","","html-keyboard-response","100","628107","0.0-100.0","SS1678233217408","5cbe04b4f429ff00159de30e","6406d7f26dd5b7fc1e3377bd","6407ce7076ca6a56298a7ea0","1138","569","","1255","","f","","","","","","","<img src=""media/stimuli/inanimate_006_right.png"" class=""coveredImage test"" style = ""width:100px; height:100px; position:fixed; top:10%;    transform: translate(-50%, -50%);left:48%""></img><img src=""media/stimuli/inanimate_006_left.png"" class=""coveredImage test"" style = ""width:100px; height:100px;position:fixed; top:25%;        transform: translate(-50%, -50%);left:38%""></img><img src=""media/stimuli/inanimate_004_right.png"" class=""coveredImage test"" style = ""width:100px; height:100px;position:fixed; top:25%;        transform: translate(-50%, -50%);left:58%""></img><img src=""media/f.png""style = ""width:30px x; height:30px;position:fixed; top:43%;    transform: translate(-50%, -50%);left:40%""></img><img src=""media/j.png""style = ""width:30px; height:30px;position:fixed; top:43%;    transform: translate(-50%, -50%);left:60%""></img>","media/stimuli/inanimate_006_right.png","inanimate","right","single","media/stimuli/inanimate_006_left.png","inanimate","left","single","media/stimuli/inanimate_004_right.png","inanimate","right","single","pose_identity"
"","","","","","html-keyboard-response","101","629194","0.0-101.0","SS1678233217408","5cbe04b4f429ff00159de30e","6406d7f26dd5b7fc1e3377bd","6407ce7076ca6a56298a7ea0","1138","569","","1069","","f","","","","","","","<img src=""media/stimuli/inanimate_009_right.png"" class=""coveredImage test"" style = ""width:100px; height:100px; position:fixed; top:10%;    transform: translate(-50%, -50%);left:44.5%""></img><img src=""media/stimuli/inanimate_009_right.png"" class=""coveredImage test"" style = ""width:100px; height:100px; position:fixed; top:10%;    transform: translate(-50%, -50%);left:51.5%""></img><img src=""media/stimuli/inanimate_009_left.png"" class=""coveredImage test"" style = ""width:100px; height:100px;position:fixed; top:25%;        transform: translate(-50%, -50%);left:38%""></img><img src=""media/stimuli/animate_009_right.png"" class=""coveredImage test"" style = ""width:100px; height:100px;position:fixed; top:25%;        transform: translate(-50%, -50%);left:58%""></img><img src=""media/f.png""style = ""width:30px x; height:30px;position:fixed; top:43%;    transform: translate(-50%, -50%);left:40%""></img><img src=""media/j.png""style = ""width:30px; height:30px;position:fixed; top:43%;    transform: translate(-50%, -50%);left:60%""></img>","media/stimuli/inanimate_009_right.png","inanimate","right","pair","media/stimuli/inanimate_009_left.png","inanimate","left","single","media/stimuli/animate_009_right.png","animate","right","single","pose_animacy"
"","","","","","html-keyboard-response","102","630583","0.0-102.0","SS1678233217408","5cbe04b4f429ff00159de30e","6406d7f26dd5b7fc1e3377bd","6407ce7076ca6a56298a7ea0","1138","569","","1370","","j","","","","","","","<img src=""media/stimuli/animate_002_left.png"" class=""coveredImage test"" style = ""width:100px; height:100px; position:fixed; top:10%;    transform: translate(-50%, -50%);left:48%""></img><img src=""media/stimuli/animate_006_left.png"" class=""coveredImage test"" style = ""width:100px; height:100px;position:fixed; top:25%;        transform: translate(-50%, -50%);left:38%""></img><img src=""media/stimuli/animate_002_left.png"" class=""coveredImage test"" style = ""width:100px; height:100px;position:fixed; top:25%;        transform: translate(-50%, -50%);left:54.5%""></img><img src=""media/stimuli/animate_002_left.png"" class=""coveredImage test"" style = ""width:100px; height:100px;position:fixed; top:25%;        transform: translate(-50%, -50%);left:61.5%""></img><img src=""media/f.png""style = ""width:30px x; height:30px;position:fixed; top:43%;    transform: translate(-50%, -50%);left:40%""></img><img src=""media/j.png""style = ""width:30px; height:30px;position:fixed; top:43%;    transform: translate(-50%, -50%);left:60%""></img>","media/stimuli/animate_002_left.png","animate","left","single","media/stimuli/animate_006_left.png","animate","left","single","media/stimuli/animate_002_left.png","animate","left","pair","identity_number"
"","","","","","html-keyboard-response","103","632259","0.0-103.0","SS1678233217408","5cbe04b4f429ff00159de30e","6406d7f26dd5b7fc1e3377bd","6407ce7076ca6a56298a7ea0","1138","569","","1663","","f","","","","","","","<img src=""media/stimuli/animate_008_right.png"" class=""coveredImage test"" style = ""width:100px; height:100px; position:fixed; top:10%;    transform: translate(-50%, -50%);left:44.5%""></img><img src=""media/stimuli/animate_008_right.png"" class=""coveredImage test"" style = ""width:100px; height:100px; position:fixed; top:10%;    transform: translate(-50%, -50%);left:51.5%""></img><img src=""media/stimuli/animate_008_left.png"" class=""coveredImage test"" style = ""width:100px; height:100px;position:fixed; top:25%;        transform: translate(-50%, -50%);left:34.5%""></img><img src=""media/stimuli/animate_008_left.png"" class=""coveredImage test"" style = ""width:100px; height:100px;position:fixed; top:25%;        transform: translate(-50%, -50%);left:41.5%""></img><img src=""media/stimuli/animate_004_right.png"" class=""coveredImage test"" style = ""width:100px; height:100px;position:fixed; top:25%;        transform: translate(-50%, -50%);left:54.5%""></img><img src=""media/stimuli/animate_004_right.png"" class=""coveredImage test"" style = ""width:100px; height:100px;position:fixed; top:25%;        transform: translate(-50%, -50%);left:61.5%""></img><img src=""media/f.png""style = ""width:30px x; height:30px;position:fixed; top:43%;    transform: translate(-50%, -50%);left:40%""></img><img src=""media/j.png""style = ""width:30px; height:30px;position:fixed; top:43%;    transform: translate(-50%, -50%);left:60%""></img>","media/stimuli/animate_008_right.png","animate","right","pair","media/stimuli/animate_008_left.png","animate","left","pair","media/stimuli/animate_004_right.png","animate","right","pair","pose_identity"
"","","","","","html-keyboard-response","104","634295","0.0-104.0","SS1678233217408","5cbe04b4f429ff00159de30e","6406d7f26dd5b7fc1e3377bd","6407ce7076ca6a56298a7ea0","1138","569","","2019","","j","","","","","","","<img src=""media/stimuli/animate_010_right.png"" class=""coveredImage test"" style = ""width:100px; height:100px; position:fixed; top:10%;    transform: translate(-50%, -50%);left:44.5%""></img><img src=""media/stimuli/animate_010_right.png"" class=""coveredImage test"" style = ""width:100px; height:100px; position:fixed; top:10%;    transform: translate(-50%, -50%);left:51.5%""></img><img src=""media/stimuli/animate_003_right.png"" class=""coveredImage test"" style = ""width:100px; height:100px;position:fixed; top:25%;        transform: translate(-50%, -50%);left:34.5%""></img><img src=""media/stimuli/animate_003_right.png"" class=""coveredImage test"" style = ""width:100px; height:100px;position:fixed; top:25%;        transform: translate(-50%, -50%);left:41.5%""></img><img src=""media/stimuli/animate_010_right.png"" class=""coveredImage test"" style = ""width:100px; height:100px;position:fixed; top:25%;        transform: translate(-50%, -50%);left:58%""></img><img src=""media/f.png""style = ""width:30px x; height:30px;position:fixed; top:43%;    transform: translate(-50%, -50%);left:40%""></img><img src=""media/j.png""style = ""width:30px; height:30px;position:fixed; top:43%;    transform: translate(-50%, -50%);left:60%""></img>","media/stimuli/animate_010_right.png","animate","right","pair","media/stimuli/animate_003_right.png","animate","right","pair","media/stimuli/animate_010_right.png","animate","right","single","identity_number"
"","","","","","html-keyboard-response","105","635427","0.0-105.0","SS1678233217408","5cbe04b4f429ff00159de30e","6406d7f26dd5b7fc1e3377bd","6407ce7076ca6a56298a7ea0","1138","569","","1106","","j","","","","","","","<img src=""media/stimuli/inanimate_005_left.png"" class=""coveredImage test"" style = ""width:100px; height:100px; position:fixed; top:10%;    transform: translate(-50%, -50%);left:48%""></img><img src=""media/stimuli/animate_001_right.png"" class=""coveredImage test"" style = ""width:100px; height:100px;position:fixed; top:25%;        transform: translate(-50%, -50%);left:38%""></img><img src=""media/stimuli/inanimate_005_left.png"" class=""coveredImage test"" style = ""width:100px; height:100px;position:fixed; top:25%;        transform: translate(-50%, -50%);left:58%""></img><img src=""media/f.png""style = ""width:30px x; height:30px;position:fixed; top:43%;    transform: translate(-50%, -50%);left:40%""></img><img src=""media/j.png""style = ""width:30px; height:30px;position:fixed; top:43%;    transform: translate(-50%, -50%);left:60%""></img>","media/stimuli/inanimate_005_left.png","inanimate","left","single","media/stimuli/animate_001_right.png","animate","right","single","media/stimuli/inanimate_005_left.png","inanimate","left","single","animacy_pose"
"","","","","","html-keyboard-response","106","636649","0.0-106.0","SS1678233217408","5cbe04b4f429ff00159de30e","6406d7f26dd5b7fc1e3377bd","6407ce7076ca6a56298a7ea0","1138","569","","1202","","f","","","","","","","<img src=""media/stimuli/inanimate_006_left.png"" class=""coveredImage test"" style = ""width:100px; height:100px; position:fixed; top:10%;    transform: translate(-50%, -50%);left:48%""></img><img src=""media/stimuli/inanimate_006_left.png"" class=""coveredImage test"" style = ""width:100px; height:100px;position:fixed; top:25%;        transform: translate(-50%, -50%);left:34.5%""></img><img src=""media/stimuli/inanimate_006_left.png"" class=""coveredImage test"" style = ""width:100px; height:100px;position:fixed; top:25%;        transform: translate(-50%, -50%);left:41.5%""></img><img src=""media/stimuli/animate_011_left.png"" class=""coveredImage test"" style = ""width:100px; height:100px;position:fixed; top:25%;        transform: translate(-50%, -50%);left:58%""></img><img src=""media/f.png""style = ""width:30px x; height:30px;position:fixed; top:43%;    transform: translate(-50%, -50%);left:40%""></img><img src=""media/j.png""style = ""width:30px; height:30px;position:fixed; top:43%;    transform: translate(-50%, -50%);left:60%""></img>","media/stimuli/inanimate_006_left.png","inanimate","left","single","media/stimuli/inanimate_006_left.png","inanimate","left","pair","media/stimuli/animate_011_left.png","animate","left","single","number_animacy"
"","","","","","html-keyboard-response","107","637667","0.0-107.0","SS1678233217408","5cbe04b4f429ff00159de30e","6406d7f26dd5b7fc1e3377bd","6407ce7076ca6a56298a7ea0","1138","569","","998","","f","","","","","","","<img src=""media/stimuli/animate_010_right.png"" class=""coveredImage test"" style = ""width:100px; height:100px; position:fixed; top:10%;    transform: translate(-50%, -50%);left:44.5%""></img><img src=""media/stimuli/animate_010_right.png"" class=""coveredImage test"" style = ""width:100px; height:100px; position:fixed; top:10%;    transform: translate(-50%, -50%);left:51.5%""></img><img src=""media/stimuli/animate_010_right.png"" class=""coveredImage test"" style = ""width:100px; height:100px;position:fixed; top:25%;        transform: translate(-50%, -50%);left:38%""></img><img src=""media/stimuli/animate_012_right.png"" class=""coveredImage test"" style = ""width:100px; height:100px;position:fixed; top:25%;        transform: translate(-50%, -50%);left:54.5%""></img><img src=""media/stimuli/animate_012_right.png"" class=""coveredImage test"" style = ""width:100px; height:100px;position:fixed; top:25%;        transform: translate(-50%, -50%);left:61.5%""></img><img src=""media/f.png""style = ""width:30px x; height:30px;position:fixed; top:43%;    transform: translate(-50%, -50%);left:40%""></img><img src=""media/j.png""style = ""width:30px; height:30px;position:fixed; top:43%;    transform: translate(-50%, -50%);left:60%""></img>","media/stimuli/animate_010_right.png","animate","right","pair","media/stimuli/animate_010_right.png","animate","right","single","media/stimuli/animate_012_right.png","animate","right","pair","number_identity"
"","","","","","html-keyboard-response","108","638897","0.0-108.0","SS1678233217408","5cbe04b4f429ff00159de30e","6406d7f26dd5b7fc1e3377bd","6407ce7076ca6a56298a7ea0","1138","569","","1209","","f","","","","","","","<img src=""media/stimuli/animate_010_left.png"" class=""coveredImage test"" style = ""width:100px; height:100px; position:fixed; top:10%;    transform: translate(-50%, -50%);left:48%""></img><img src=""media/stimuli/animate_010_right.png"" class=""coveredImage test"" style = ""width:100px; height:100px;position:fixed; top:25%;        transform: translate(-50%, -50%);left:38%""></img><img src=""media/stimuli/animate_003_left.png"" class=""coveredImage test"" style = ""width:100px; height:100px;position:fixed; top:25%;        transform: translate(-50%, -50%);left:58%""></img><img src=""media/f.png""style = ""width:30px x; height:30px;position:fixed; top:43%;    transform: translate(-50%, -50%);left:40%""></img><img src=""media/j.png""style = ""width:30px; height:30px;position:fixed; top:43%;    transform: translate(-50%, -50%);left:60%""></img>","media/stimuli/animate_010_left.png","animate","left","single","media/stimuli/animate_010_right.png","animate","right","single","media/stimuli/animate_003_left.png","animate","left","single","pose_identity"
"","","","","","html-keyboard-response","109","639820","0.0-109.0","SS1678233217408","5cbe04b4f429ff00159de30e","6406d7f26dd5b7fc1e3377bd","6407ce7076ca6a56298a7ea0","1138","569","","896","","f","","","","","","","<img src=""media/stimuli/inanimate_003_left.png"" class=""coveredImage test"" style = ""width:100px; height:100px; position:fixed; top:10%;    transform: translate(-50%, -50%);left:44.5%""></img><img src=""media/stimuli/inanimate_003_left.png"" class=""coveredImage test"" style = ""width:100px; height:100px; position:fixed; top:10%;    transform: translate(-50%, -50%);left:51.5%""></img><img src=""media/stimuli/inanimate_003_left.png"" class=""coveredImage test"" style = ""width:100px; height:100px;position:fixed; top:25%;        transform: translate(-50%, -50%);left:34.5%""></img><img src=""media/stimuli/inanimate_003_left.png"" class=""coveredImage test"" style = ""width:100px; height:100px;position:fixed; top:25%;        transform: translate(-50%, -50%);left:41.5%""></img><img src=""media/stimuli/animate_006_right.png"" class=""coveredImage test"" style = ""width:100px; height:100px;position:fixed; top:25%;        transform: translate(-50%, -50%);left:54.5%""></img><img src=""media/stimuli/animate_006_right.png"" class=""coveredImage test"" style = ""width:100px; height:100px;position:fixed; top:25%;        transform: translate(-50%, -50%);left:61.5%""></img><img src=""media/f.png""style = ""width:30px x; height:30px;position:fixed; top:43%;    transform: translate(-50%, -50%);left:40%""></img><img src=""media/j.png""style = ""width:30px; height:30px;position:fixed; top:43%;    transform: translate(-50%, -50%);left:60%""></img>","media/stimuli/inanimate_003_left.png","inanimate","left","pair","media/stimuli/inanimate_003_left.png","inanimate","left","pair","media/stimuli/animate_006_right.png","animate","right","pair","pose_animacy"
"","","","","","html-keyboard-response","110","642067","0.0-110.0","SS1678233217408","5cbe04b4f429ff00159de30e","6406d7f26dd5b7fc1e3377bd","6407ce7076ca6a56298a7ea0","1138","569","","2221","","f","","","","","","","<img src=""media/stimuli/inanimate_001_left.png"" class=""coveredImage test"" style = ""width:100px; height:100px; position:fixed; top:10%;    transform: translate(-50%, -50%);left:44.5%""></img><img src=""media/stimuli/inanimate_001_left.png"" class=""coveredImage test"" style = ""width:100px; height:100px; position:fixed; top:10%;    transform: translate(-50%, -50%);left:51.5%""></img><img src=""media/stimuli/inanimate_001_left.png"" class=""coveredImage test"" style = ""width:100px; height:100px;position:fixed; top:25%;        transform: translate(-50%, -50%);left:38%""></img><img src=""media/stimuli/inanimate_001_right.png"" class=""coveredImage test"" style = ""width:100px; height:100px;position:fixed; top:25%;        transform: translate(-50%, -50%);left:54.5%""></img><img src=""media/stimuli/inanimate_001_right.png"" class=""coveredImage test"" style = ""width:100px; height:100px;position:fixed; top:25%;        transform: translate(-50%, -50%);left:61.5%""></img><img src=""media/f.png""style = ""width:30px x; height:30px;position:fixed; top:43%;    transform: translate(-50%, -50%);left:40%""></img><img src=""media/j.png""style = ""width:30px; height:30px;position:fixed; top:43%;    transform: translate(-50%, -50%);left:60%""></img>","media/stimuli/inanimate_001_left.png","inanimate","left","pair","media/stimuli/inanimate_001_left.png","inanimate","left","single","media/stimuli/inanimate_001_right.png","inanimate","right","pair","number_pose"
"","","","","","html-keyboard-response","111","643878","0.0-111.0","SS1678233217408","5cbe04b4f429ff00159de30e","6406d7f26dd5b7fc1e3377bd","6407ce7076ca6a56298a7ea0","1138","569","","1801","","n","","","","","","","","","","","","","","","","","","","",""
"","","","","","html-keyboard-response","112","646938","0.0-112.0","SS1678233217408","5cbe04b4f429ff00159de30e","6406d7f26dd5b7fc1e3377bd","6407ce7076ca6a56298a7ea0","1138","569","","3049","","f","","","","","","","<img src=""media/stimuli/animate_005_right.png"" class=""coveredImage test"" style = ""width:100px; height:100px; position:fixed; top:10%;    transform: translate(-50%, -50%);left:44.5%""></img><img src=""media/stimuli/animate_005_right.png"" class=""coveredImage test"" style = ""width:100px; height:100px; position:fixed; top:10%;    transform: translate(-50%, -50%);left:51.5%""></img><img src=""media/stimuli/animate_001_right.png"" class=""coveredImage test"" style = ""width:100px; height:100px;position:fixed; top:25%;        transform: translate(-50%, -50%);left:34.5%""></img><img src=""media/stimuli/animate_001_right.png"" class=""coveredImage test"" style = ""width:100px; height:100px;position:fixed; top:25%;        transform: translate(-50%, -50%);left:41.5%""></img><img src=""media/stimuli/inanimate_004_right.png"" class=""coveredImage test"" style = ""width:100px; height:100px;position:fixed; top:25%;        transform: translate(-50%, -50%);left:54.5%""></img><img src=""media/stimuli/inanimate_004_right.png"" class=""coveredImage test"" style = ""width:100px; height:100px;position:fixed; top:25%;        transform: translate(-50%, -50%);left:61.5%""></img><img src=""media/f.png""style = ""width:30px x; height:30px;position:fixed; top:43%;    transform: translate(-50%, -50%);left:40%""></img><img src=""media/j.png""style = ""width:30px; height:30px;position:fixed; top:43%;    transform: translate(-50%, -50%);left:60%""></img>","media/stimuli/animate_005_right.png","animate","right","pair","media/stimuli/animate_001_right.png","animate","right","pair","media/stimuli/inanimate_004_right.png","inanimate","right","pair","identity_animacy"
"","","","","","html-keyboard-response","113","648939","0.0-113.0","SS1678233217408","5cbe04b4f429ff00159de30e","6406d7f26dd5b7fc1e3377bd","6407ce7076ca6a56298a7ea0","1138","569","","1980","","f","","","","","","","<img src=""media/stimuli/inanimate_005_right.png"" class=""coveredImage test"" style = ""width:100px; height:100px; position:fixed; top:10%;    transform: translate(-50%, -50%);left:48%""></img><img src=""media/stimuli/inanimate_005_right.png"" class=""coveredImage test"" style = ""width:100px; height:100px;position:fixed; top:25%;        transform: translate(-50%, -50%);left:34.5%""></img><img src=""media/stimuli/inanimate_005_right.png"" class=""coveredImage test"" style = ""width:100px; height:100px;position:fixed; top:25%;        transform: translate(-50%, -50%);left:41.5%""></img><img src=""media/stimuli/animate_002_right.png"" class=""coveredImage test"" style = ""width:100px; height:100px;position:fixed; top:25%;        transform: translate(-50%, -50%);left:58%""></img><img src=""media/f.png""style = ""width:30px x; height:30px;position:fixed; top:43%;    transform: translate(-50%, -50%);left:40%""></img><img src=""media/j.png""style = ""width:30px; height:30px;position:fixed; top:43%;    transform: translate(-50%, -50%);left:60%""></img>","media/stimuli/inanimate_005_right.png","inanimate","right","single","media/stimuli/inanimate_005_right.png","inanimate","right","pair","media/stimuli/animate_002_right.png","animate","right","single","number_animacy"
"","","","","","html-keyboard-response","114","650998","0.0-114.0","SS1678233217408","5cbe04b4f429ff00159de30e","6406d7f26dd5b7fc1e3377bd","6407ce7076ca6a56298a7ea0","1138","569","","2040","","f","","","","","","","<img src=""media/stimuli/animate_012_right.png"" class=""coveredImage test"" style = ""width:100px; height:100px; position:fixed; top:10%;    transform: translate(-50%, -50%);left:48%""></img><img src=""media/stimuli/animate_010_right.png"" class=""coveredImage test"" style = ""width:100px; height:100px;position:fixed; top:25%;        transform: translate(-50%, -50%);left:38%""></img><img src=""media/stimuli/inanimate_011_right.png"" class=""coveredImage test"" style = ""width:100px; height:100px;position:fixed; top:25%;        transform: translate(-50%, -50%);left:58%""></img><img src=""media/f.png""style = ""width:30px x; height:30px;position:fixed; top:43%;    transform: translate(-50%, -50%);left:40%""></img><img src=""media/j.png""style = ""width:30px; height:30px;position:fixed; top:43%;    transform: translate(-50%, -50%);left:60%""></img>","media/stimuli/animate_012_right.png","animate","right","single","media/stimuli/animate_010_right.png","animate","right","single","media/stimuli/inanimate_011_right.png","inanimate","right","single","identity_animacy"
