"success","timeout","failed_images","failed_audio","failed_video","trial_type","trial_index","time_elapsed","internal_node_id","subject","prolific_id","study","session","window_width","window_height","view_history","rt","stimulus_type","response","question_order","rating_type","rating_stimulus","rating_animacy","rating_number","rating_pose","stimulus","target","target_animacy","target_pose","target_number","left","left_animacy","left_pose","left_number","right","right_animacy","right_pose","right_number","comparison_type"
"true","false","[]","[]","[]","preload","0","7445","0.0-0.0","SS1678233631450","5b6c72f29dc5550001f8a514","6406d7f26dd5b7fc1e3377bd","6407d007fc738f05dba5405b","1280","577","","","","","","","","","","","","","","","","","","","","","","","",""
"","","","","","instructions","1","15136","0.0-1.0","SS1678233631450","5b6c72f29dc5550001f8a514","6406d7f26dd5b7fc1e3377bd","6407d007fc738f05dba5405b","1280","577","[{""page_index"":0,""viewing_time"":7687}]","7688","","","","","","","","","","","","","","","","","","","","","",""
"","","","","","instructions","2","40343","0.0-2.0","SS1678233631450","5b6c72f29dc5550001f8a514","6406d7f26dd5b7fc1e3377bd","6407d007fc738f05dba5405b","1280","577","[{""page_index"":0,""viewing_time"":23198}]","23198","instructions","","","","","","","","","","","","","","","","","","","","",""
"","","","","","instructions","3","43065","0.0-3.0","SS1678233631450","5b6c72f29dc5550001f8a514","6406d7f26dd5b7fc1e3377bd","6407d007fc738f05dba5405b","1280","577","[{""page_index"":0,""viewing_time"":2719}]","2719","instructions","","","","","","","","","","","","","","","","","","","","",""
"","","","","","survey-likert","4","51055","0.0-4.0","SS1678233631450","5b6c72f29dc5550001f8a514","6406d7f26dd5b7fc1e3377bd","6407d007fc738f05dba5405b","1280","577","","7984","","{""Q0"":5}","[0]","anchoring","","","","","","","","","","","","","","","","","",""
"","","","","","survey-likert","5","57421","0.0-5.0","SS1678233631450","5b6c72f29dc5550001f8a514","6406d7f26dd5b7fc1e3377bd","6407d007fc738f05dba5405b","1280","577","","6336","","{""Q0"":1}","[0]","anchoring","","","","","","","","","","","","","","","","","",""
"","","","","","instructions","6","58858","0.0-6.0","SS1678233631450","5b6c72f29dc5550001f8a514","6406d7f26dd5b7fc1e3377bd","6407d007fc738f05dba5405b","1280","577","[{""page_index"":0,""viewing_time"":1371}]","1374","instructions","","","","","","","","","","","","","","","","","","","","",""
"true","","","","","fullscreen","7","60962","0.0-7.0","SS1678233631450","5b6c72f29dc5550001f8a514","6406d7f26dd5b7fc1e3377bd","6407d007fc738f05dba5405b","1280","577","","","","","","","","","","","","","","","","","","","","","","","",""
"","","","","","survey-likert","8","65055","0.0-8.0","SS1678233631450","5b6c72f29dc5550001f8a514","6406d7f26dd5b7fc1e3377bd","6407d007fc738f05dba5405b","1280","577","","4085","","{""Q0"":2}","[0]","complexity","media/stimuli/inanimate_002_left.png","inanimate","single","left","","","","","","","","","","","","","",""
"","","","","","survey-likert","9","68078","0.0-9.0","SS1678233631450","5b6c72f29dc5550001f8a514","6406d7f26dd5b7fc1e3377bd","6407d007fc738f05dba5405b","1280","577","","2970","","{""Q0"":3}","[0]","complexity","media/stimuli/animate_010_right.png","animate","pair","right","","","","","","","","","","","","","",""
"","","","","","survey-likert","10","71734","0.0-10.0","SS1678233631450","5b6c72f29dc5550001f8a514","6406d7f26dd5b7fc1e3377bd","6407d007fc738f05dba5405b","1280","577","","3612","","{""Q0"":4}","[0]","complexity","media/stimuli/animate_001_right.png","animate","single","right","","","","","","","","","","","","","",""
"","","","","","survey-likert","11","74030","0.0-11.0","SS1678233631450","5b6c72f29dc5550001f8a514","6406d7f26dd5b7fc1e3377bd","6407d007fc738f05dba5405b","1280","577","","2284","","{""Q0"":3}","[0]","complexity","media/stimuli/animate_012_right.png","animate","single","right","","","","","","","","","","","","","",""
"","","","","","survey-likert","12","77963","0.0-12.0","SS1678233631450","5b6c72f29dc5550001f8a514","6406d7f26dd5b7fc1e3377bd","6407d007fc738f05dba5405b","1280","577","","3908","","{""Q0"":3}","[0]","complexity","media/stimuli/animate_004_right.png","animate","pair","right","","","","","","","","","","","","","",""
"","","","","","survey-likert","13","82323","0.0-13.0","SS1678233631450","5b6c72f29dc5550001f8a514","6406d7f26dd5b7fc1e3377bd","6407d007fc738f05dba5405b","1280","577","","4333","","{""Q0"":1}","[0]","complexity","media/stimuli/inanimate_005_right.png","inanimate","single","right","","","","","","","","","","","","","",""
"","","","","","survey-likert","14","85123","0.0-14.0","SS1678233631450","5b6c72f29dc5550001f8a514","6406d7f26dd5b7fc1e3377bd","6407d007fc738f05dba5405b","1280","577","","2776","","{""Q0"":2}","[0]","complexity","media/stimuli/inanimate_012_left.png","inanimate","single","left","","","","","","","","","","","","","",""
"","","","","","survey-likert","15","87525","0.0-15.0","SS1678233631450","5b6c72f29dc5550001f8a514","6406d7f26dd5b7fc1e3377bd","6407d007fc738f05dba5405b","1280","577","","2365","","{""Q0"":3}","[0]","complexity","media/stimuli/animate_006_left.png","animate","pair","left","","","","","","","","","","","","","",""
"","","","","","survey-likert","16","89540","0.0-16.0","SS1678233631450","5b6c72f29dc5550001f8a514","6406d7f26dd5b7fc1e3377bd","6407d007fc738f05dba5405b","1280","577","","1980","","{""Q0"":1}","[0]","complexity","media/stimuli/inanimate_001_right.png","inanimate","single","right","","","","","","","","","","","","","",""
"","","","","","survey-likert","17","93145","0.0-17.0","SS1678233631450","5b6c72f29dc5550001f8a514","6406d7f26dd5b7fc1e3377bd","6407d007fc738f05dba5405b","1280","577","","3582","","{""Q0"":2}","[0]","complexity","media/stimuli/inanimate_009_left.png","inanimate","pair","left","","","","","","","","","","","","","",""
"","","","","","survey-likert","18","96891","0.0-18.0","SS1678233631450","5b6c72f29dc5550001f8a514","6406d7f26dd5b7fc1e3377bd","6407d007fc738f05dba5405b","1280","577","","3701","","{""Q0"":4}","[0]","complexity","media/stimuli/inanimate_007_left.png","inanimate","pair","left","","","","","","","","","","","","","",""
"","","","","","survey-likert","19","98840","0.0-19.0","SS1678233631450","5b6c72f29dc5550001f8a514","6406d7f26dd5b7fc1e3377bd","6407d007fc738f05dba5405b","1280","577","","1915","","{""Q0"":3}","[0]","complexity","media/stimuli/animate_010_right.png","animate","single","right","","","","","","","","","","","","","",""
"","","","","","html-keyboard-response","20","102536","0.0-20.0","SS1678233631450","5b6c72f29dc5550001f8a514","6406d7f26dd5b7fc1e3377bd","6407d007fc738f05dba5405b","1280","577","","3664",""," ","","","","","","","","","","","","","","","","","","","",""
"","","","","","html-keyboard-response","21","106712","0.0-21.0","SS1678233631450","5b6c72f29dc5550001f8a514","6406d7f26dd5b7fc1e3377bd","6407d007fc738f05dba5405b","1280","577","","4173","","j","","","","","","","<img src=""media/stimuli/inanimate_011_right.png"" class=""coveredImage test"" style = ""width:100px; height:100px; position:fixed; top:10%;    transform: translate(-50%, -50%);left:48%""></img><img src=""media/stimuli/animate_003_left.png"" class=""coveredImage test"" style = ""width:100px; height:100px;position:fixed; top:25%;        transform: translate(-50%, -50%);left:38%""></img><img src=""media/stimuli/inanimate_011_right.png"" class=""coveredImage test"" style = ""width:100px; height:100px;position:fixed; top:25%;        transform: translate(-50%, -50%);left:58%""></img><img src=""media/f.png""style = ""width:30px x; height:30px;position:fixed; top:43%;    transform: translate(-50%, -50%);left:40%""></img><img src=""media/j.png""style = ""width:30px; height:30px;position:fixed; top:43%;    transform: translate(-50%, -50%);left:60%""></img>","media/stimuli/inanimate_011_right.png","inanimate","right","single","media/stimuli/animate_003_left.png","animate","left","single","media/stimuli/inanimate_011_right.png","inanimate","right","single","animacy_pose"
"","","","","","html-keyboard-response","22","109554","0.0-22.0","SS1678233631450","5b6c72f29dc5550001f8a514","6406d7f26dd5b7fc1e3377bd","6407d007fc738f05dba5405b","1280","577","","2836","","j","","","","","","","<img src=""media/stimuli/inanimate_012_right.png"" class=""coveredImage test"" style = ""width:100px; height:100px; position:fixed; top:10%;    transform: translate(-50%, -50%);left:48%""></img><img src=""media/stimuli/animate_011_left.png"" class=""coveredImage test"" style = ""width:100px; height:100px;position:fixed; top:25%;        transform: translate(-50%, -50%);left:34.5%""></img><img src=""media/stimuli/animate_011_left.png"" class=""coveredImage test"" style = ""width:100px; height:100px;position:fixed; top:25%;        transform: translate(-50%, -50%);left:41.5%""></img><img src=""media/stimuli/inanimate_012_right.png"" class=""coveredImage test"" style = ""width:100px; height:100px;position:fixed; top:25%;        transform: translate(-50%, -50%);left:54.5%""></img><img src=""media/stimuli/inanimate_012_right.png"" class=""coveredImage test"" style = ""width:100px; height:100px;position:fixed; top:25%;        transform: translate(-50%, -50%);left:61.5%""></img><img src=""media/f.png""style = ""width:30px x; height:30px;position:fixed; top:43%;    transform: translate(-50%, -50%);left:40%""></img><img src=""media/j.png""style = ""width:30px; height:30px;position:fixed; top:43%;    transform: translate(-50%, -50%);left:60%""></img>","media/stimuli/inanimate_012_right.png","inanimate","right","single","media/stimuli/animate_011_left.png","animate","left","pair","media/stimuli/inanimate_012_right.png","inanimate","right","pair","animacy_pose"
"","","","","","html-keyboard-response","23","111705","0.0-23.0","SS1678233631450","5b6c72f29dc5550001f8a514","6406d7f26dd5b7fc1e3377bd","6407d007fc738f05dba5405b","1280","577","","2139","","j","","","","","","","<img src=""media/stimuli/animate_011_right.png"" class=""coveredImage test"" style = ""width:100px; height:100px; position:fixed; top:10%;    transform: translate(-50%, -50%);left:48%""></img><img src=""media/stimuli/inanimate_005_left.png"" class=""coveredImage test"" style = ""width:100px; height:100px;position:fixed; top:25%;        transform: translate(-50%, -50%);left:34.5%""></img><img src=""media/stimuli/inanimate_005_left.png"" class=""coveredImage test"" style = ""width:100px; height:100px;position:fixed; top:25%;        transform: translate(-50%, -50%);left:41.5%""></img><img src=""media/stimuli/animate_011_right.png"" class=""coveredImage test"" style = ""width:100px; height:100px;position:fixed; top:25%;        transform: translate(-50%, -50%);left:54.5%""></img><img src=""media/stimuli/animate_011_right.png"" class=""coveredImage test"" style = ""width:100px; height:100px;position:fixed; top:25%;        transform: translate(-50%, -50%);left:61.5%""></img><img src=""media/f.png""style = ""width:30px x; height:30px;position:fixed; top:43%;    transform: translate(-50%, -50%);left:40%""></img><img src=""media/j.png""style = ""width:30px; height:30px;position:fixed; top:43%;    transform: translate(-50%, -50%);left:60%""></img>","media/stimuli/animate_011_right.png","animate","right","single","media/stimuli/inanimate_005_left.png","inanimate","left","pair","media/stimuli/animate_011_right.png","animate","right","pair","animacy_pose"
"","","","","","html-keyboard-response","24","112950","0.0-24.0","SS1678233631450","5b6c72f29dc5550001f8a514","6406d7f26dd5b7fc1e3377bd","6407d007fc738f05dba5405b","1280","577","","1236","","f","","","","","","","<img src=""media/stimuli/animate_002_right.png"" class=""coveredImage test"" style = ""width:100px; height:100px; position:fixed; top:10%;    transform: translate(-50%, -50%);left:44.5%""></img><img src=""media/stimuli/animate_002_right.png"" class=""coveredImage test"" style = ""width:100px; height:100px; position:fixed; top:10%;    transform: translate(-50%, -50%);left:51.5%""></img><img src=""media/stimuli/animate_002_left.png"" class=""coveredImage test"" style = ""width:100px; height:100px;position:fixed; top:25%;        transform: translate(-50%, -50%);left:34.5%""></img><img src=""media/stimuli/animate_002_left.png"" class=""coveredImage test"" style = ""width:100px; height:100px;position:fixed; top:25%;        transform: translate(-50%, -50%);left:41.5%""></img><img src=""media/stimuli/animate_001_right.png"" class=""coveredImage test"" style = ""width:100px; height:100px;position:fixed; top:25%;        transform: translate(-50%, -50%);left:54.5%""></img><img src=""media/stimuli/animate_001_right.png"" class=""coveredImage test"" style = ""width:100px; height:100px;position:fixed; top:25%;        transform: translate(-50%, -50%);left:61.5%""></img><img src=""media/f.png""style = ""width:30px x; height:30px;position:fixed; top:43%;    transform: translate(-50%, -50%);left:40%""></img><img src=""media/j.png""style = ""width:30px; height:30px;position:fixed; top:43%;    transform: translate(-50%, -50%);left:60%""></img>","media/stimuli/animate_002_right.png","animate","right","pair","media/stimuli/animate_002_left.png","animate","left","pair","media/stimuli/animate_001_right.png","animate","right","pair","pose_identity"
"","","","","","html-keyboard-response","25","113990","0.0-25.0","SS1678233631450","5b6c72f29dc5550001f8a514","6406d7f26dd5b7fc1e3377bd","6407d007fc738f05dba5405b","1280","577","","1010","","j","","","","","","","<img src=""media/stimuli/animate_003_left.png"" class=""coveredImage test"" style = ""width:100px; height:100px; position:fixed; top:10%;    transform: translate(-50%, -50%);left:48%""></img><img src=""media/stimuli/animate_006_left.png"" class=""coveredImage test"" style = ""width:100px; height:100px;position:fixed; top:25%;        transform: translate(-50%, -50%);left:38%""></img><img src=""media/stimuli/animate_003_left.png"" class=""coveredImage test"" style = ""width:100px; height:100px;position:fixed; top:25%;        transform: translate(-50%, -50%);left:54.5%""></img><img src=""media/stimuli/animate_003_left.png"" class=""coveredImage test"" style = ""width:100px; height:100px;position:fixed; top:25%;        transform: translate(-50%, -50%);left:61.5%""></img><img src=""media/f.png""style = ""width:30px x; height:30px;position:fixed; top:43%;    transform: translate(-50%, -50%);left:40%""></img><img src=""media/j.png""style = ""width:30px; height:30px;position:fixed; top:43%;    transform: translate(-50%, -50%);left:60%""></img>","media/stimuli/animate_003_left.png","animate","left","single","media/stimuli/animate_006_left.png","animate","left","single","media/stimuli/animate_003_left.png","animate","left","pair","identity_number"
"","","","","","html-keyboard-response","26","116067","0.0-26.0","SS1678233631450","5b6c72f29dc5550001f8a514","6406d7f26dd5b7fc1e3377bd","6407d007fc738f05dba5405b","1280","577","","2064","","j","","","","","","","<img src=""media/stimuli/animate_008_right.png"" class=""coveredImage test"" style = ""width:100px; height:100px; position:fixed; top:10%;    transform: translate(-50%, -50%);left:44.5%""></img><img src=""media/stimuli/animate_008_right.png"" class=""coveredImage test"" style = ""width:100px; height:100px; position:fixed; top:10%;    transform: translate(-50%, -50%);left:51.5%""></img><img src=""media/stimuli/inanimate_004_right.png"" class=""coveredImage test"" style = ""width:100px; height:100px;position:fixed; top:25%;        transform: translate(-50%, -50%);left:34.5%""></img><img src=""media/stimuli/inanimate_004_right.png"" class=""coveredImage test"" style = ""width:100px; height:100px;position:fixed; top:25%;        transform: translate(-50%, -50%);left:41.5%""></img><img src=""media/stimuli/animate_012_right.png"" class=""coveredImage test"" style = ""width:100px; height:100px;position:fixed; top:25%;        transform: translate(-50%, -50%);left:54.5%""></img><img src=""media/stimuli/animate_012_right.png"" class=""coveredImage test"" style = ""width:100px; height:100px;position:fixed; top:25%;        transform: translate(-50%, -50%);left:61.5%""></img><img src=""media/f.png""style = ""width:30px x; height:30px;position:fixed; top:43%;    transform: translate(-50%, -50%);left:40%""></img><img src=""media/j.png""style = ""width:30px; height:30px;position:fixed; top:43%;    transform: translate(-50%, -50%);left:60%""></img>","media/stimuli/animate_008_right.png","animate","right","pair","media/stimuli/inanimate_004_right.png","inanimate","right","pair","media/stimuli/animate_012_right.png","animate","right","pair","animacy_identity"
"","","","","","html-keyboard-response","27","117194","0.0-27.0","SS1678233631450","5b6c72f29dc5550001f8a514","6406d7f26dd5b7fc1e3377bd","6407d007fc738f05dba5405b","1280","577","","1112","","f","","","","","","","<img src=""media/stimuli/inanimate_001_left.png"" class=""coveredImage test"" style = ""width:100px; height:100px; position:fixed; top:10%;    transform: translate(-50%, -50%);left:48%""></img><img src=""media/stimuli/inanimate_001_left.png"" class=""coveredImage test"" style = ""width:100px; height:100px;position:fixed; top:25%;        transform: translate(-50%, -50%);left:34.5%""></img><img src=""media/stimuli/inanimate_001_left.png"" class=""coveredImage test"" style = ""width:100px; height:100px;position:fixed; top:25%;        transform: translate(-50%, -50%);left:41.5%""></img><img src=""media/stimuli/inanimate_010_left.png"" class=""coveredImage test"" style = ""width:100px; height:100px;position:fixed; top:25%;        transform: translate(-50%, -50%);left:58%""></img><img src=""media/f.png""style = ""width:30px x; height:30px;position:fixed; top:43%;    transform: translate(-50%, -50%);left:40%""></img><img src=""media/j.png""style = ""width:30px; height:30px;position:fixed; top:43%;    transform: translate(-50%, -50%);left:60%""></img>","media/stimuli/inanimate_001_left.png","inanimate","left","single","media/stimuli/inanimate_001_left.png","inanimate","left","pair","media/stimuli/inanimate_010_left.png","inanimate","left","single","number_identity"
"","","","","","html-keyboard-response","28","118493","0.0-28.0","SS1678233631450","5b6c72f29dc5550001f8a514","6406d7f26dd5b7fc1e3377bd","6407d007fc738f05dba5405b","1280","577","","1288","","j","","","","","","","<img src=""media/stimuli/animate_001_right.png"" class=""coveredImage test"" style = ""width:100px; height:100px; position:fixed; top:10%;    transform: translate(-50%, -50%);left:44.5%""></img><img src=""media/stimuli/animate_001_right.png"" class=""coveredImage test"" style = ""width:100px; height:100px; position:fixed; top:10%;    transform: translate(-50%, -50%);left:51.5%""></img><img src=""media/stimuli/inanimate_004_right.png"" class=""coveredImage test"" style = ""width:100px; height:100px;position:fixed; top:25%;        transform: translate(-50%, -50%);left:34.5%""></img><img src=""media/stimuli/inanimate_004_right.png"" class=""coveredImage test"" style = ""width:100px; height:100px;position:fixed; top:25%;        transform: translate(-50%, -50%);left:41.5%""></img><img src=""media/stimuli/animate_012_right.png"" class=""coveredImage test"" style = ""width:100px; height:100px;position:fixed; top:25%;        transform: translate(-50%, -50%);left:54.5%""></img><img src=""media/stimuli/animate_012_right.png"" class=""coveredImage test"" style = ""width:100px; height:100px;position:fixed; top:25%;        transform: translate(-50%, -50%);left:61.5%""></img><img src=""media/f.png""style = ""width:30px x; height:30px;position:fixed; top:43%;    transform: translate(-50%, -50%);left:40%""></img><img src=""media/j.png""style = ""width:30px; height:30px;position:fixed; top:43%;    transform: translate(-50%, -50%);left:60%""></img>","media/stimuli/animate_001_right.png","animate","right","pair","media/stimuli/inanimate_004_right.png","inanimate","right","pair","media/stimuli/animate_012_right.png","animate","right","pair","animacy_identity"
"","","","","","html-keyboard-response","29","119558","0.0-29.0","SS1678233631450","5b6c72f29dc5550001f8a514","6406d7f26dd5b7fc1e3377bd","6407d007fc738f05dba5405b","1280","577","","1055","","f","","","","","","","<img src=""media/stimuli/inanimate_001_left.png"" class=""coveredImage test"" style = ""width:100px; height:100px; position:fixed; top:10%;    transform: translate(-50%, -50%);left:48%""></img><img src=""media/stimuli/inanimate_001_left.png"" class=""coveredImage test"" style = ""width:100px; height:100px;position:fixed; top:25%;        transform: translate(-50%, -50%);left:34.5%""></img><img src=""media/stimuli/inanimate_001_left.png"" class=""coveredImage test"" style = ""width:100px; height:100px;position:fixed; top:25%;        transform: translate(-50%, -50%);left:41.5%""></img><img src=""media/stimuli/inanimate_009_left.png"" class=""coveredImage test"" style = ""width:100px; height:100px;position:fixed; top:25%;        transform: translate(-50%, -50%);left:58%""></img><img src=""media/f.png""style = ""width:30px x; height:30px;position:fixed; top:43%;    transform: translate(-50%, -50%);left:40%""></img><img src=""media/j.png""style = ""width:30px; height:30px;position:fixed; top:43%;    transform: translate(-50%, -50%);left:60%""></img>","media/stimuli/inanimate_001_left.png","inanimate","left","single","media/stimuli/inanimate_001_left.png","inanimate","left","pair","media/stimuli/inanimate_009_left.png","inanimate","left","single","number_identity"
"","","","","","html-keyboard-response","30","120777","0.0-30.0","SS1678233631450","5b6c72f29dc5550001f8a514","6406d7f26dd5b7fc1e3377bd","6407d007fc738f05dba5405b","1280","577","","1216","","f","","","","","","","<img src=""media/stimuli/animate_004_right.png"" class=""coveredImage test"" style = ""width:100px; height:100px; position:fixed; top:10%;    transform: translate(-50%, -50%);left:48%""></img><img src=""media/stimuli/animate_001_right.png"" class=""coveredImage test"" style = ""width:100px; height:100px;position:fixed; top:25%;        transform: translate(-50%, -50%);left:38%""></img><img src=""media/stimuli/inanimate_001_right.png"" class=""coveredImage test"" style = ""width:100px; height:100px;position:fixed; top:25%;        transform: translate(-50%, -50%);left:58%""></img><img src=""media/f.png""style = ""width:30px x; height:30px;position:fixed; top:43%;    transform: translate(-50%, -50%);left:40%""></img><img src=""media/j.png""style = ""width:30px; height:30px;position:fixed; top:43%;    transform: translate(-50%, -50%);left:60%""></img>","media/stimuli/animate_004_right.png","animate","right","single","media/stimuli/animate_001_right.png","animate","right","single","media/stimuli/inanimate_001_right.png","inanimate","right","single","identity_animacy"
"","","","","","html-keyboard-response","31","122221","0.0-31.0","SS1678233631450","5b6c72f29dc5550001f8a514","6406d7f26dd5b7fc1e3377bd","6407d007fc738f05dba5405b","1280","577","","1431","","j","","","","","","","<img src=""media/stimuli/inanimate_008_left.png"" class=""coveredImage test"" style = ""width:100px; height:100px; position:fixed; top:10%;    transform: translate(-50%, -50%);left:44.5%""></img><img src=""media/stimuli/inanimate_008_left.png"" class=""coveredImage test"" style = ""width:100px; height:100px; position:fixed; top:10%;    transform: translate(-50%, -50%);left:51.5%""></img><img src=""media/stimuli/inanimate_008_left.png"" class=""coveredImage test"" style = ""width:100px; height:100px;position:fixed; top:25%;        transform: translate(-50%, -50%);left:38%""></img><img src=""media/stimuli/inanimate_008_right.png"" class=""coveredImage test"" style = ""width:100px; height:100px;position:fixed; top:25%;        transform: translate(-50%, -50%);left:54.5%""></img><img src=""media/stimuli/inanimate_008_right.png"" class=""coveredImage test"" style = ""width:100px; height:100px;position:fixed; top:25%;        transform: translate(-50%, -50%);left:61.5%""></img><img src=""media/f.png""style = ""width:30px x; height:30px;position:fixed; top:43%;    transform: translate(-50%, -50%);left:40%""></img><img src=""media/j.png""style = ""width:30px; height:30px;position:fixed; top:43%;    transform: translate(-50%, -50%);left:60%""></img>","media/stimuli/inanimate_008_left.png","inanimate","left","pair","media/stimuli/inanimate_008_left.png","inanimate","left","single","media/stimuli/inanimate_008_right.png","inanimate","right","pair","number_pose"
"","","","","","html-keyboard-response","32","123636","0.0-32.0","SS1678233631450","5b6c72f29dc5550001f8a514","6406d7f26dd5b7fc1e3377bd","6407d007fc738f05dba5405b","1280","577","","1411","","f","","","","","","","<img src=""media/stimuli/inanimate_010_right.png"" class=""coveredImage test"" style = ""width:100px; height:100px; position:fixed; top:10%;    transform: translate(-50%, -50%);left:48%""></img><img src=""media/stimuli/inanimate_010_left.png"" class=""coveredImage test"" style = ""width:100px; height:100px;position:fixed; top:25%;        transform: translate(-50%, -50%);left:38%""></img><img src=""media/stimuli/inanimate_010_right.png"" class=""coveredImage test"" style = ""width:100px; height:100px;position:fixed; top:25%;        transform: translate(-50%, -50%);left:54.5%""></img><img src=""media/stimuli/inanimate_010_right.png"" class=""coveredImage test"" style = ""width:100px; height:100px;position:fixed; top:25%;        transform: translate(-50%, -50%);left:61.5%""></img><img src=""media/f.png""style = ""width:30px x; height:30px;position:fixed; top:43%;    transform: translate(-50%, -50%);left:40%""></img><img src=""media/j.png""style = ""width:30px; height:30px;position:fixed; top:43%;    transform: translate(-50%, -50%);left:60%""></img>","media/stimuli/inanimate_010_right.png","inanimate","right","single","media/stimuli/inanimate_010_left.png","inanimate","left","single","media/stimuli/inanimate_010_right.png","inanimate","right","pair","pose_number"
"","","","","","html-keyboard-response","33","125088","0.0-33.0","SS1678233631450","5b6c72f29dc5550001f8a514","6406d7f26dd5b7fc1e3377bd","6407d007fc738f05dba5405b","1280","577","","1444",""," ","","","","","","","","","","","","","","","","","","","",""
"","","","","","html-keyboard-response","34","127805","0.0-34.0","SS1678233631450","5b6c72f29dc5550001f8a514","6406d7f26dd5b7fc1e3377bd","6407d007fc738f05dba5405b","1280","577","","2693","","f","","","","","","","<img src=""media/stimuli/animate_010_right.png"" class=""coveredImage test"" style = ""width:100px; height:100px; position:fixed; top:10%;    transform: translate(-50%, -50%);left:44.5%""></img><img src=""media/stimuli/animate_010_right.png"" class=""coveredImage test"" style = ""width:100px; height:100px; position:fixed; top:10%;    transform: translate(-50%, -50%);left:51.5%""></img><img src=""media/stimuli/animate_010_right.png"" class=""coveredImage test"" style = ""width:100px; height:100px;position:fixed; top:25%;        transform: translate(-50%, -50%);left:34.5%""></img><img src=""media/stimuli/animate_010_right.png"" class=""coveredImage test"" style = ""width:100px; height:100px;position:fixed; top:25%;        transform: translate(-50%, -50%);left:41.5%""></img><img src=""media/stimuli/inanimate_012_left.png"" class=""coveredImage test"" style = ""width:100px; height:100px;position:fixed; top:25%;        transform: translate(-50%, -50%);left:54.5%""></img><img src=""media/stimuli/inanimate_012_left.png"" class=""coveredImage test"" style = ""width:100px; height:100px;position:fixed; top:25%;        transform: translate(-50%, -50%);left:61.5%""></img><img src=""media/f.png""style = ""width:30px x; height:30px;position:fixed; top:43%;    transform: translate(-50%, -50%);left:40%""></img><img src=""media/j.png""style = ""width:30px; height:30px;position:fixed; top:43%;    transform: translate(-50%, -50%);left:60%""></img>","media/stimuli/animate_010_right.png","animate","right","pair","media/stimuli/animate_010_right.png","animate","right","pair","media/stimuli/inanimate_012_left.png","inanimate","left","pair","pose_animacy"
"","","","","","html-keyboard-response","35","128800","0.0-35.0","SS1678233631450","5b6c72f29dc5550001f8a514","6406d7f26dd5b7fc1e3377bd","6407d007fc738f05dba5405b","1280","577","","977","","j","","","","","","","<img src=""media/stimuli/animate_003_right.png"" class=""coveredImage test"" style = ""width:100px; height:100px; position:fixed; top:10%;    transform: translate(-50%, -50%);left:44.5%""></img><img src=""media/stimuli/animate_003_right.png"" class=""coveredImage test"" style = ""width:100px; height:100px; position:fixed; top:10%;    transform: translate(-50%, -50%);left:51.5%""></img><img src=""media/stimuli/inanimate_004_right.png"" class=""coveredImage test"" style = ""width:100px; height:100px;position:fixed; top:25%;        transform: translate(-50%, -50%);left:34.5%""></img><img src=""media/stimuli/inanimate_004_right.png"" class=""coveredImage test"" style = ""width:100px; height:100px;position:fixed; top:25%;        transform: translate(-50%, -50%);left:41.5%""></img><img src=""media/stimuli/animate_011_right.png"" class=""coveredImage test"" style = ""width:100px; height:100px;position:fixed; top:25%;        transform: translate(-50%, -50%);left:54.5%""></img><img src=""media/stimuli/animate_011_right.png"" class=""coveredImage test"" style = ""width:100px; height:100px;position:fixed; top:25%;        transform: translate(-50%, -50%);left:61.5%""></img><img src=""media/f.png""style = ""width:30px x; height:30px;position:fixed; top:43%;    transform: translate(-50%, -50%);left:40%""></img><img src=""media/j.png""style = ""width:30px; height:30px;position:fixed; top:43%;    transform: translate(-50%, -50%);left:60%""></img>","media/stimuli/animate_003_right.png","animate","right","pair","media/stimuli/inanimate_004_right.png","inanimate","right","pair","media/stimuli/animate_011_right.png","animate","right","pair","animacy_identity"
"","","","","","html-keyboard-response","36","133187","0.0-36.0","SS1678233631450","5b6c72f29dc5550001f8a514","6406d7f26dd5b7fc1e3377bd","6407d007fc738f05dba5405b","1280","577","","4377","","f","","","","","","","<img src=""media/stimuli/animate_010_right.png"" class=""coveredImage test"" style = ""width:100px; height:100px; position:fixed; top:10%;    transform: translate(-50%, -50%);left:48%""></img><img src=""media/stimuli/animate_010_right.png"" class=""coveredImage test"" style = ""width:100px; height:100px;position:fixed; top:25%;        transform: translate(-50%, -50%);left:34.5%""></img><img src=""media/stimuli/animate_010_right.png"" class=""coveredImage test"" style = ""width:100px; height:100px;position:fixed; top:25%;        transform: translate(-50%, -50%);left:41.5%""></img><img src=""media/stimuli/animate_006_right.png"" class=""coveredImage test"" style = ""width:100px; height:100px;position:fixed; top:25%;        transform: translate(-50%, -50%);left:58%""></img><img src=""media/f.png""style = ""width:30px x; height:30px;position:fixed; top:43%;    transform: translate(-50%, -50%);left:40%""></img><img src=""media/j.png""style = ""width:30px; height:30px;position:fixed; top:43%;    transform: translate(-50%, -50%);left:60%""></img>","media/stimuli/animate_010_right.png","animate","right","single","media/stimuli/animate_010_right.png","animate","right","pair","media/stimuli/animate_006_right.png","animate","right","single","number_identity"
"","","","","","html-keyboard-response","37","134282","0.0-37.0","SS1678233631450","5b6c72f29dc5550001f8a514","6406d7f26dd5b7fc1e3377bd","6407d007fc738f05dba5405b","1280","577","","1082","","j","","","","","","","<img src=""media/stimuli/animate_010_left.png"" class=""coveredImage test"" style = ""width:100px; height:100px; position:fixed; top:10%;    transform: translate(-50%, -50%);left:44.5%""></img><img src=""media/stimuli/animate_010_left.png"" class=""coveredImage test"" style = ""width:100px; height:100px; position:fixed; top:10%;    transform: translate(-50%, -50%);left:51.5%""></img><img src=""media/stimuli/animate_010_left.png"" class=""coveredImage test"" style = ""width:100px; height:100px;position:fixed; top:25%;        transform: translate(-50%, -50%);left:38%""></img><img src=""media/stimuli/animate_010_right.png"" class=""coveredImage test"" style = ""width:100px; height:100px;position:fixed; top:25%;        transform: translate(-50%, -50%);left:54.5%""></img><img src=""media/stimuli/animate_010_right.png"" class=""coveredImage test"" style = ""width:100px; height:100px;position:fixed; top:25%;        transform: translate(-50%, -50%);left:61.5%""></img><img src=""media/f.png""style = ""width:30px x; height:30px;position:fixed; top:43%;    transform: translate(-50%, -50%);left:40%""></img><img src=""media/j.png""style = ""width:30px; height:30px;position:fixed; top:43%;    transform: translate(-50%, -50%);left:60%""></img>","media/stimuli/animate_010_left.png","animate","left","pair","media/stimuli/animate_010_left.png","animate","left","single","media/stimuli/animate_010_right.png","animate","right","pair","number_pose"
"","","","","","html-keyboard-response","38","135357","0.0-38.0","SS1678233631450","5b6c72f29dc5550001f8a514","6406d7f26dd5b7fc1e3377bd","6407d007fc738f05dba5405b","1280","577","","1069","","j","","","","","","","<img src=""media/stimuli/inanimate_011_right.png"" class=""coveredImage test"" style = ""width:100px; height:100px; position:fixed; top:10%;    transform: translate(-50%, -50%);left:48%""></img><img src=""media/stimuli/animate_011_left.png"" class=""coveredImage test"" style = ""width:100px; height:100px;position:fixed; top:25%;        transform: translate(-50%, -50%);left:38%""></img><img src=""media/stimuli/inanimate_011_right.png"" class=""coveredImage test"" style = ""width:100px; height:100px;position:fixed; top:25%;        transform: translate(-50%, -50%);left:58%""></img><img src=""media/f.png""style = ""width:30px x; height:30px;position:fixed; top:43%;    transform: translate(-50%, -50%);left:40%""></img><img src=""media/j.png""style = ""width:30px; height:30px;position:fixed; top:43%;    transform: translate(-50%, -50%);left:60%""></img>","media/stimuli/inanimate_011_right.png","inanimate","right","single","media/stimuli/animate_011_left.png","animate","left","single","media/stimuli/inanimate_011_right.png","inanimate","right","single","animacy_pose"
"","","","","","html-keyboard-response","39","136336","0.0-39.0","SS1678233631450","5b6c72f29dc5550001f8a514","6406d7f26dd5b7fc1e3377bd","6407d007fc738f05dba5405b","1280","577","","966","","j","","","","","","","<img src=""media/stimuli/inanimate_009_left.png"" class=""coveredImage test"" style = ""width:100px; height:100px; position:fixed; top:10%;    transform: translate(-50%, -50%);left:44.5%""></img><img src=""media/stimuli/inanimate_009_left.png"" class=""coveredImage test"" style = ""width:100px; height:100px; position:fixed; top:10%;    transform: translate(-50%, -50%);left:51.5%""></img><img src=""media/stimuli/inanimate_010_left.png"" class=""coveredImage test"" style = ""width:100px; height:100px;position:fixed; top:25%;        transform: translate(-50%, -50%);left:34.5%""></img><img src=""media/stimuli/inanimate_010_left.png"" class=""coveredImage test"" style = ""width:100px; height:100px;position:fixed; top:25%;        transform: translate(-50%, -50%);left:41.5%""></img><img src=""media/stimuli/inanimate_009_left.png"" class=""coveredImage test"" style = ""width:100px; height:100px;position:fixed; top:25%;        transform: translate(-50%, -50%);left:54.5%""></img><img src=""media/stimuli/inanimate_009_left.png"" class=""coveredImage test"" style = ""width:100px; height:100px;position:fixed; top:25%;        transform: translate(-50%, -50%);left:61.5%""></img><img src=""media/f.png""style = ""width:30px x; height:30px;position:fixed; top:43%;    transform: translate(-50%, -50%);left:40%""></img><img src=""media/j.png""style = ""width:30px; height:30px;position:fixed; top:43%;    transform: translate(-50%, -50%);left:60%""></img>","media/stimuli/inanimate_009_left.png","inanimate","left","pair","media/stimuli/inanimate_010_left.png","inanimate","left","pair","media/stimuli/inanimate_009_left.png","inanimate","left","pair","identity_filler"
"","","","","","html-keyboard-response","40","137144","0.0-40.0","SS1678233631450","5b6c72f29dc5550001f8a514","6406d7f26dd5b7fc1e3377bd","6407d007fc738f05dba5405b","1280","577","","794","","j","","","","","","","<img src=""media/stimuli/inanimate_005_right.png"" class=""coveredImage test"" style = ""width:100px; height:100px; position:fixed; top:10%;    transform: translate(-50%, -50%);left:44.5%""></img><img src=""media/stimuli/inanimate_005_right.png"" class=""coveredImage test"" style = ""width:100px; height:100px; position:fixed; top:10%;    transform: translate(-50%, -50%);left:51.5%""></img><img src=""media/stimuli/inanimate_005_right.png"" class=""coveredImage test"" style = ""width:100px; height:100px;position:fixed; top:25%;        transform: translate(-50%, -50%);left:38%""></img><img src=""media/stimuli/inanimate_005_left.png"" class=""coveredImage test"" style = ""width:100px; height:100px;position:fixed; top:25%;        transform: translate(-50%, -50%);left:54.5%""></img><img src=""media/stimuli/inanimate_005_left.png"" class=""coveredImage test"" style = ""width:100px; height:100px;position:fixed; top:25%;        transform: translate(-50%, -50%);left:61.5%""></img><img src=""media/f.png""style = ""width:30px x; height:30px;position:fixed; top:43%;    transform: translate(-50%, -50%);left:40%""></img><img src=""media/j.png""style = ""width:30px; height:30px;position:fixed; top:43%;    transform: translate(-50%, -50%);left:60%""></img>","media/stimuli/inanimate_005_right.png","inanimate","right","pair","media/stimuli/inanimate_005_right.png","inanimate","right","single","media/stimuli/inanimate_005_left.png","inanimate","left","pair","number_pose"
"","","","","","html-keyboard-response","41","138374","0.0-41.0","SS1678233631450","5b6c72f29dc5550001f8a514","6406d7f26dd5b7fc1e3377bd","6407d007fc738f05dba5405b","1280","577","","1219","","j","","","","","","","<img src=""media/stimuli/animate_009_left.png"" class=""coveredImage test"" style = ""width:100px; height:100px; position:fixed; top:10%;    transform: translate(-50%, -50%);left:48%""></img><img src=""media/stimuli/inanimate_004_left.png"" class=""coveredImage test"" style = ""width:100px; height:100px;position:fixed; top:25%;        transform: translate(-50%, -50%);left:38%""></img><img src=""media/stimuli/animate_009_left.png"" class=""coveredImage test"" style = ""width:100px; height:100px;position:fixed; top:25%;        transform: translate(-50%, -50%);left:54.5%""></img><img src=""media/stimuli/animate_009_left.png"" class=""coveredImage test"" style = ""width:100px; height:100px;position:fixed; top:25%;        transform: translate(-50%, -50%);left:61.5%""></img><img src=""media/f.png""style = ""width:30px x; height:30px;position:fixed; top:43%;    transform: translate(-50%, -50%);left:40%""></img><img src=""media/j.png""style = ""width:30px; height:30px;position:fixed; top:43%;    transform: translate(-50%, -50%);left:60%""></img>","media/stimuli/animate_009_left.png","animate","left","single","media/stimuli/inanimate_004_left.png","inanimate","left","single","media/stimuli/animate_009_left.png","animate","left","pair","animacy_number"
"","","","","","html-keyboard-response","42","139116","0.0-42.0","SS1678233631450","5b6c72f29dc5550001f8a514","6406d7f26dd5b7fc1e3377bd","6407d007fc738f05dba5405b","1280","577","","724","","j","","","","","","","<img src=""media/stimuli/animate_008_right.png"" class=""coveredImage test"" style = ""width:100px; height:100px; position:fixed; top:10%;    transform: translate(-50%, -50%);left:48%""></img><img src=""media/stimuli/inanimate_004_right.png"" class=""coveredImage test"" style = ""width:100px; height:100px;position:fixed; top:25%;        transform: translate(-50%, -50%);left:38%""></img><img src=""media/stimuli/animate_008_right.png"" class=""coveredImage test"" style = ""width:100px; height:100px;position:fixed; top:25%;        transform: translate(-50%, -50%);left:54.5%""></img><img src=""media/stimuli/animate_008_right.png"" class=""coveredImage test"" style = ""width:100px; height:100px;position:fixed; top:25%;        transform: translate(-50%, -50%);left:61.5%""></img><img src=""media/f.png""style = ""width:30px x; height:30px;position:fixed; top:43%;    transform: translate(-50%, -50%);left:40%""></img><img src=""media/j.png""style = ""width:30px; height:30px;position:fixed; top:43%;    transform: translate(-50%, -50%);left:60%""></img>","media/stimuli/animate_008_right.png","animate","right","single","media/stimuli/inanimate_004_right.png","inanimate","right","single","media/stimuli/animate_008_right.png","animate","right","pair","animacy_number"
"","","","","","html-keyboard-response","43","141339","0.0-43.0","SS1678233631450","5b6c72f29dc5550001f8a514","6406d7f26dd5b7fc1e3377bd","6407d007fc738f05dba5405b","1280","577","","2214","","f","","","","","","","<img src=""media/stimuli/inanimate_012_right.png"" class=""coveredImage test"" style = ""width:100px; height:100px; position:fixed; top:10%;    transform: translate(-50%, -50%);left:48%""></img><img src=""media/stimuli/inanimate_005_right.png"" class=""coveredImage test"" style = ""width:100px; height:100px;position:fixed; top:25%;        transform: translate(-50%, -50%);left:38%""></img><img src=""media/stimuli/animate_003_right.png"" class=""coveredImage test"" style = ""width:100px; height:100px;position:fixed; top:25%;        transform: translate(-50%, -50%);left:58%""></img><img src=""media/f.png""style = ""width:30px x; height:30px;position:fixed; top:43%;    transform: translate(-50%, -50%);left:40%""></img><img src=""media/j.png""style = ""width:30px; height:30px;position:fixed; top:43%;    transform: translate(-50%, -50%);left:60%""></img>","media/stimuli/inanimate_012_right.png","inanimate","right","single","media/stimuli/inanimate_005_right.png","inanimate","right","single","media/stimuli/animate_003_right.png","animate","right","single","identity_animacy"
"","","","","","html-keyboard-response","44","142485","0.0-44.0","SS1678233631450","5b6c72f29dc5550001f8a514","6406d7f26dd5b7fc1e3377bd","6407d007fc738f05dba5405b","1280","577","","1129","","j","","","","","","","<img src=""media/stimuli/animate_005_right.png"" class=""coveredImage test"" style = ""width:100px; height:100px; position:fixed; top:10%;    transform: translate(-50%, -50%);left:44.5%""></img><img src=""media/stimuli/animate_005_right.png"" class=""coveredImage test"" style = ""width:100px; height:100px; position:fixed; top:10%;    transform: translate(-50%, -50%);left:51.5%""></img><img src=""media/stimuli/inanimate_001_left.png"" class=""coveredImage test"" style = ""width:100px; height:100px;position:fixed; top:25%;        transform: translate(-50%, -50%);left:38%""></img><img src=""media/stimuli/animate_005_right.png"" class=""coveredImage test"" style = ""width:100px; height:100px;position:fixed; top:25%;        transform: translate(-50%, -50%);left:58%""></img><img src=""media/f.png""style = ""width:30px x; height:30px;position:fixed; top:43%;    transform: translate(-50%, -50%);left:40%""></img><img src=""media/j.png""style = ""width:30px; height:30px;position:fixed; top:43%;    transform: translate(-50%, -50%);left:60%""></img>","media/stimuli/animate_005_right.png","animate","right","pair","media/stimuli/inanimate_001_left.png","inanimate","left","single","media/stimuli/animate_005_right.png","animate","right","single","animacy_pose"
"","","","","","html-keyboard-response","45","143255","0.0-45.0","SS1678233631450","5b6c72f29dc5550001f8a514","6406d7f26dd5b7fc1e3377bd","6407d007fc738f05dba5405b","1280","577","","757","","f","","","","","","","<img src=""media/stimuli/animate_007_left.png"" class=""coveredImage test"" style = ""width:100px; height:100px; position:fixed; top:10%;    transform: translate(-50%, -50%);left:44.5%""></img><img src=""media/stimuli/animate_007_left.png"" class=""coveredImage test"" style = ""width:100px; height:100px; position:fixed; top:10%;    transform: translate(-50%, -50%);left:51.5%""></img><img src=""media/stimuli/animate_007_right.png"" class=""coveredImage test"" style = ""width:100px; height:100px;position:fixed; top:25%;        transform: translate(-50%, -50%);left:34.5%""></img><img src=""media/stimuli/animate_007_right.png"" class=""coveredImage test"" style = ""width:100px; height:100px;position:fixed; top:25%;        transform: translate(-50%, -50%);left:41.5%""></img><img src=""media/stimuli/inanimate_011_left.png"" class=""coveredImage test"" style = ""width:100px; height:100px;position:fixed; top:25%;        transform: translate(-50%, -50%);left:54.5%""></img><img src=""media/stimuli/inanimate_011_left.png"" class=""coveredImage test"" style = ""width:100px; height:100px;position:fixed; top:25%;        transform: translate(-50%, -50%);left:61.5%""></img><img src=""media/f.png""style = ""width:30px x; height:30px;position:fixed; top:43%;    transform: translate(-50%, -50%);left:40%""></img><img src=""media/j.png""style = ""width:30px; height:30px;position:fixed; top:43%;    transform: translate(-50%, -50%);left:60%""></img>","media/stimuli/animate_007_left.png","animate","left","pair","media/stimuli/animate_007_right.png","animate","right","pair","media/stimuli/inanimate_011_left.png","inanimate","left","pair","pose_animacy"
"","","","","","html-keyboard-response","46","144069","0.0-46.0","SS1678233631450","5b6c72f29dc5550001f8a514","6406d7f26dd5b7fc1e3377bd","6407d007fc738f05dba5405b","1280","577","","807",""," ","","","","","","","","","","","","","","","","","","","",""
"","","","","","html-keyboard-response","47","145021","0.0-47.0","SS1678233631450","5b6c72f29dc5550001f8a514","6406d7f26dd5b7fc1e3377bd","6407d007fc738f05dba5405b","1280","577","","940","","j","","","","","","","<img src=""media/stimuli/animate_002_right.png"" class=""coveredImage test"" style = ""width:100px; height:100px; position:fixed; top:10%;    transform: translate(-50%, -50%);left:44.5%""></img><img src=""media/stimuli/animate_002_right.png"" class=""coveredImage test"" style = ""width:100px; height:100px; position:fixed; top:10%;    transform: translate(-50%, -50%);left:51.5%""></img><img src=""media/stimuli/animate_002_right.png"" class=""coveredImage test"" style = ""width:100px; height:100px;position:fixed; top:25%;        transform: translate(-50%, -50%);left:38%""></img><img src=""media/stimuli/animate_002_left.png"" class=""coveredImage test"" style = ""width:100px; height:100px;position:fixed; top:25%;        transform: translate(-50%, -50%);left:54.5%""></img><img src=""media/stimuli/animate_002_left.png"" class=""coveredImage test"" style = ""width:100px; height:100px;position:fixed; top:25%;        transform: translate(-50%, -50%);left:61.5%""></img><img src=""media/f.png""style = ""width:30px x; height:30px;position:fixed; top:43%;    transform: translate(-50%, -50%);left:40%""></img><img src=""media/j.png""style = ""width:30px; height:30px;position:fixed; top:43%;    transform: translate(-50%, -50%);left:60%""></img>","media/stimuli/animate_002_right.png","animate","right","pair","media/stimuli/animate_002_right.png","animate","right","single","media/stimuli/animate_002_left.png","animate","left","pair","number_pose"
"","","","","","html-keyboard-response","48","145849","0.0-48.0","SS1678233631450","5b6c72f29dc5550001f8a514","6406d7f26dd5b7fc1e3377bd","6407d007fc738f05dba5405b","1280","577","","814","","f","","","","","","","<img src=""media/stimuli/animate_011_right.png"" class=""coveredImage test"" style = ""width:100px; height:100px; position:fixed; top:10%;    transform: translate(-50%, -50%);left:48%""></img><img src=""media/stimuli/animate_011_right.png"" class=""coveredImage test"" style = ""width:100px; height:100px;position:fixed; top:25%;        transform: translate(-50%, -50%);left:34.5%""></img><img src=""media/stimuli/animate_011_right.png"" class=""coveredImage test"" style = ""width:100px; height:100px;position:fixed; top:25%;        transform: translate(-50%, -50%);left:41.5%""></img><img src=""media/stimuli/inanimate_002_right.png"" class=""coveredImage test"" style = ""width:100px; height:100px;position:fixed; top:25%;        transform: translate(-50%, -50%);left:58%""></img><img src=""media/f.png""style = ""width:30px x; height:30px;position:fixed; top:43%;    transform: translate(-50%, -50%);left:40%""></img><img src=""media/j.png""style = ""width:30px; height:30px;position:fixed; top:43%;    transform: translate(-50%, -50%);left:60%""></img>","media/stimuli/animate_011_right.png","animate","right","single","media/stimuli/animate_011_right.png","animate","right","pair","media/stimuli/inanimate_002_right.png","inanimate","right","single","number_animacy"
"","","","","","html-keyboard-response","49","146754","0.0-49.0","SS1678233631450","5b6c72f29dc5550001f8a514","6406d7f26dd5b7fc1e3377bd","6407d007fc738f05dba5405b","1280","577","","896","","j","","","","","","","<img src=""media/stimuli/inanimate_006_left.png"" class=""coveredImage test"" style = ""width:100px; height:100px; position:fixed; top:10%;    transform: translate(-50%, -50%);left:48%""></img><img src=""media/stimuli/animate_005_left.png"" class=""coveredImage test"" style = ""width:100px; height:100px;position:fixed; top:25%;        transform: translate(-50%, -50%);left:38%""></img><img src=""media/stimuli/inanimate_006_left.png"" class=""coveredImage test"" style = ""width:100px; height:100px;position:fixed; top:25%;        transform: translate(-50%, -50%);left:54.5%""></img><img src=""media/stimuli/inanimate_006_left.png"" class=""coveredImage test"" style = ""width:100px; height:100px;position:fixed; top:25%;        transform: translate(-50%, -50%);left:61.5%""></img><img src=""media/f.png""style = ""width:30px x; height:30px;position:fixed; top:43%;    transform: translate(-50%, -50%);left:40%""></img><img src=""media/j.png""style = ""width:30px; height:30px;position:fixed; top:43%;    transform: translate(-50%, -50%);left:60%""></img>","media/stimuli/inanimate_006_left.png","inanimate","left","single","media/stimuli/animate_005_left.png","animate","left","single","media/stimuli/inanimate_006_left.png","inanimate","left","pair","animacy_number"
"","","","","","html-keyboard-response","50","147998","0.0-50.0","SS1678233631450","5b6c72f29dc5550001f8a514","6406d7f26dd5b7fc1e3377bd","6407d007fc738f05dba5405b","1280","577","","1235","","f","","","","","","","<img src=""media/stimuli/inanimate_004_right.png"" class=""coveredImage test"" style = ""width:100px; height:100px; position:fixed; top:10%;    transform: translate(-50%, -50%);left:44.5%""></img><img src=""media/stimuli/inanimate_004_right.png"" class=""coveredImage test"" style = ""width:100px; height:100px; position:fixed; top:10%;    transform: translate(-50%, -50%);left:51.5%""></img><img src=""media/stimuli/inanimate_009_right.png"" class=""coveredImage test"" style = ""width:100px; height:100px;position:fixed; top:25%;        transform: translate(-50%, -50%);left:34.5%""></img><img src=""media/stimuli/inanimate_009_right.png"" class=""coveredImage test"" style = ""width:100px; height:100px;position:fixed; top:25%;        transform: translate(-50%, -50%);left:41.5%""></img><img src=""media/stimuli/animate_009_right.png"" class=""coveredImage test"" style = ""width:100px; height:100px;position:fixed; top:25%;        transform: translate(-50%, -50%);left:54.5%""></img><img src=""media/stimuli/animate_009_right.png"" class=""coveredImage test"" style = ""width:100px; height:100px;position:fixed; top:25%;        transform: translate(-50%, -50%);left:61.5%""></img><img src=""media/f.png""style = ""width:30px x; height:30px;position:fixed; top:43%;    transform: translate(-50%, -50%);left:40%""></img><img src=""media/j.png""style = ""width:30px; height:30px;position:fixed; top:43%;    transform: translate(-50%, -50%);left:60%""></img>","media/stimuli/inanimate_004_right.png","inanimate","right","pair","media/stimuli/inanimate_009_right.png","inanimate","right","pair","media/stimuli/animate_009_right.png","animate","right","pair","identity_animacy"
"","","","","","html-keyboard-response","51","148846","0.0-51.0","SS1678233631450","5b6c72f29dc5550001f8a514","6406d7f26dd5b7fc1e3377bd","6407d007fc738f05dba5405b","1280","577","","841","","j","","","","","","","<img src=""media/stimuli/animate_006_left.png"" class=""coveredImage test"" style = ""width:100px; height:100px; position:fixed; top:10%;    transform: translate(-50%, -50%);left:48%""></img><img src=""media/stimuli/animate_002_left.png"" class=""coveredImage test"" style = ""width:100px; height:100px;position:fixed; top:25%;        transform: translate(-50%, -50%);left:38%""></img><img src=""media/stimuli/animate_006_left.png"" class=""coveredImage test"" style = ""width:100px; height:100px;position:fixed; top:25%;        transform: translate(-50%, -50%);left:54.5%""></img><img src=""media/stimuli/animate_006_left.png"" class=""coveredImage test"" style = ""width:100px; height:100px;position:fixed; top:25%;        transform: translate(-50%, -50%);left:61.5%""></img><img src=""media/f.png""style = ""width:30px x; height:30px;position:fixed; top:43%;    transform: translate(-50%, -50%);left:40%""></img><img src=""media/j.png""style = ""width:30px; height:30px;position:fixed; top:43%;    transform: translate(-50%, -50%);left:60%""></img>","media/stimuli/animate_006_left.png","animate","left","single","media/stimuli/animate_002_left.png","animate","left","single","media/stimuli/animate_006_left.png","animate","left","pair","identity_number"
"","","","","","html-keyboard-response","52","150702","0.0-52.0","SS1678233631450","5b6c72f29dc5550001f8a514","6406d7f26dd5b7fc1e3377bd","6407d007fc738f05dba5405b","1280","577","","1836","","f","","","","","","","<img src=""media/stimuli/inanimate_003_right.png"" class=""coveredImage test"" style = ""width:100px; height:100px; position:fixed; top:10%;    transform: translate(-50%, -50%);left:48%""></img><img src=""media/stimuli/inanimate_003_right.png"" class=""coveredImage test"" style = ""width:100px; height:100px;position:fixed; top:25%;        transform: translate(-50%, -50%);left:34.5%""></img><img src=""media/stimuli/inanimate_003_right.png"" class=""coveredImage test"" style = ""width:100px; height:100px;position:fixed; top:25%;        transform: translate(-50%, -50%);left:41.5%""></img><img src=""media/stimuli/inanimate_007_right.png"" class=""coveredImage test"" style = ""width:100px; height:100px;position:fixed; top:25%;        transform: translate(-50%, -50%);left:58%""></img><img src=""media/f.png""style = ""width:30px x; height:30px;position:fixed; top:43%;    transform: translate(-50%, -50%);left:40%""></img><img src=""media/j.png""style = ""width:30px; height:30px;position:fixed; top:43%;    transform: translate(-50%, -50%);left:60%""></img>","media/stimuli/inanimate_003_right.png","inanimate","right","single","media/stimuli/inanimate_003_right.png","inanimate","right","pair","media/stimuli/inanimate_007_right.png","inanimate","right","single","number_identity"
"","","","","","html-keyboard-response","53","152274","0.0-53.0","SS1678233631450","5b6c72f29dc5550001f8a514","6406d7f26dd5b7fc1e3377bd","6407d007fc738f05dba5405b","1280","577","","1551","","j","","","","","","","<img src=""media/stimuli/animate_008_left.png"" class=""coveredImage test"" style = ""width:100px; height:100px; position:fixed; top:10%;    transform: translate(-50%, -50%);left:44.5%""></img><img src=""media/stimuli/animate_008_left.png"" class=""coveredImage test"" style = ""width:100px; height:100px; position:fixed; top:10%;    transform: translate(-50%, -50%);left:51.5%""></img><img src=""media/stimuli/inanimate_011_left.png"" class=""coveredImage test"" style = ""width:100px; height:100px;position:fixed; top:25%;        transform: translate(-50%, -50%);left:34.5%""></img><img src=""media/stimuli/inanimate_011_left.png"" class=""coveredImage test"" style = ""width:100px; height:100px;position:fixed; top:25%;        transform: translate(-50%, -50%);left:41.5%""></img><img src=""media/stimuli/animate_008_right.png"" class=""coveredImage test"" style = ""width:100px; height:100px;position:fixed; top:25%;        transform: translate(-50%, -50%);left:54.5%""></img><img src=""media/stimuli/animate_008_right.png"" class=""coveredImage test"" style = ""width:100px; height:100px;position:fixed; top:25%;        transform: translate(-50%, -50%);left:61.5%""></img><img src=""media/f.png""style = ""width:30px x; height:30px;position:fixed; top:43%;    transform: translate(-50%, -50%);left:40%""></img><img src=""media/j.png""style = ""width:30px; height:30px;position:fixed; top:43%;    transform: translate(-50%, -50%);left:60%""></img>","media/stimuli/animate_008_left.png","animate","left","pair","media/stimuli/inanimate_011_left.png","inanimate","left","pair","media/stimuli/animate_008_right.png","animate","right","pair","animacy_pose"
"","","","","","html-keyboard-response","54","153625","0.0-54.0","SS1678233631450","5b6c72f29dc5550001f8a514","6406d7f26dd5b7fc1e3377bd","6407d007fc738f05dba5405b","1280","577","","1337","","f","","","","","","","<img src=""media/stimuli/inanimate_007_left.png"" class=""coveredImage test"" style = ""width:100px; height:100px; position:fixed; top:10%;    transform: translate(-50%, -50%);left:48%""></img><img src=""media/stimuli/inanimate_007_left.png"" class=""coveredImage test"" style = ""width:100px; height:100px;position:fixed; top:25%;        transform: translate(-50%, -50%);left:34.5%""></img><img src=""media/stimuli/inanimate_007_left.png"" class=""coveredImage test"" style = ""width:100px; height:100px;position:fixed; top:25%;        transform: translate(-50%, -50%);left:41.5%""></img><img src=""media/stimuli/animate_010_left.png"" class=""coveredImage test"" style = ""width:100px; height:100px;position:fixed; top:25%;        transform: translate(-50%, -50%);left:58%""></img><img src=""media/f.png""style = ""width:30px x; height:30px;position:fixed; top:43%;    transform: translate(-50%, -50%);left:40%""></img><img src=""media/j.png""style = ""width:30px; height:30px;position:fixed; top:43%;    transform: translate(-50%, -50%);left:60%""></img>","media/stimuli/inanimate_007_left.png","inanimate","left","single","media/stimuli/inanimate_007_left.png","inanimate","left","pair","media/stimuli/animate_010_left.png","animate","left","single","number_animacy"
"","","","","","html-keyboard-response","55","157808","0.0-55.0","SS1678233631450","5b6c72f29dc5550001f8a514","6406d7f26dd5b7fc1e3377bd","6407d007fc738f05dba5405b","1280","577","","4170","","f","","","","","","","<img src=""media/stimuli/inanimate_001_right.png"" class=""coveredImage test"" style = ""width:100px; height:100px; position:fixed; top:10%;    transform: translate(-50%, -50%);left:44.5%""></img><img src=""media/stimuli/inanimate_001_right.png"" class=""coveredImage test"" style = ""width:100px; height:100px; position:fixed; top:10%;    transform: translate(-50%, -50%);left:51.5%""></img><img src=""media/stimuli/inanimate_006_right.png"" class=""coveredImage test"" style = ""width:100px; height:100px;position:fixed; top:25%;        transform: translate(-50%, -50%);left:34.5%""></img><img src=""media/stimuli/inanimate_006_right.png"" class=""coveredImage test"" style = ""width:100px; height:100px;position:fixed; top:25%;        transform: translate(-50%, -50%);left:41.5%""></img><img src=""media/stimuli/animate_009_right.png"" class=""coveredImage test"" style = ""width:100px; height:100px;position:fixed; top:25%;        transform: translate(-50%, -50%);left:54.5%""></img><img src=""media/stimuli/animate_009_right.png"" class=""coveredImage test"" style = ""width:100px; height:100px;position:fixed; top:25%;        transform: translate(-50%, -50%);left:61.5%""></img><img src=""media/f.png""style = ""width:30px x; height:30px;position:fixed; top:43%;    transform: translate(-50%, -50%);left:40%""></img><img src=""media/j.png""style = ""width:30px; height:30px;position:fixed; top:43%;    transform: translate(-50%, -50%);left:60%""></img>","media/stimuli/inanimate_001_right.png","inanimate","right","pair","media/stimuli/inanimate_006_right.png","inanimate","right","pair","media/stimuli/animate_009_right.png","animate","right","pair","identity_animacy"
"","","","","","html-keyboard-response","56","159048","0.0-56.0","SS1678233631450","5b6c72f29dc5550001f8a514","6406d7f26dd5b7fc1e3377bd","6407d007fc738f05dba5405b","1280","577","","1229","","f","","","","","","","<img src=""media/stimuli/animate_008_right.png"" class=""coveredImage test"" style = ""width:100px; height:100px; position:fixed; top:10%;    transform: translate(-50%, -50%);left:48%""></img><img src=""media/stimuli/animate_008_left.png"" class=""coveredImage test"" style = ""width:100px; height:100px;position:fixed; top:25%;        transform: translate(-50%, -50%);left:38%""></img><img src=""media/stimuli/animate_008_right.png"" class=""coveredImage test"" style = ""width:100px; height:100px;position:fixed; top:25%;        transform: translate(-50%, -50%);left:54.5%""></img><img src=""media/stimuli/animate_008_right.png"" class=""coveredImage test"" style = ""width:100px; height:100px;position:fixed; top:25%;        transform: translate(-50%, -50%);left:61.5%""></img><img src=""media/f.png""style = ""width:30px x; height:30px;position:fixed; top:43%;    transform: translate(-50%, -50%);left:40%""></img><img src=""media/j.png""style = ""width:30px; height:30px;position:fixed; top:43%;    transform: translate(-50%, -50%);left:60%""></img>","media/stimuli/animate_008_right.png","animate","right","single","media/stimuli/animate_008_left.png","animate","left","single","media/stimuli/animate_008_right.png","animate","right","pair","pose_number"
"","","","","","html-keyboard-response","57","159751","0.0-57.0","SS1678233631450","5b6c72f29dc5550001f8a514","6406d7f26dd5b7fc1e3377bd","6407d007fc738f05dba5405b","1280","577","","696","","j","","","","","","","<img src=""media/stimuli/animate_003_right.png"" class=""coveredImage test"" style = ""width:100px; height:100px; position:fixed; top:10%;    transform: translate(-50%, -50%);left:44.5%""></img><img src=""media/stimuli/animate_003_right.png"" class=""coveredImage test"" style = ""width:100px; height:100px; position:fixed; top:10%;    transform: translate(-50%, -50%);left:51.5%""></img><img src=""media/stimuli/animate_008_right.png"" class=""coveredImage test"" style = ""width:100px; height:100px;position:fixed; top:25%;        transform: translate(-50%, -50%);left:34.5%""></img><img src=""media/stimuli/animate_008_right.png"" class=""coveredImage test"" style = ""width:100px; height:100px;position:fixed; top:25%;        transform: translate(-50%, -50%);left:41.5%""></img><img src=""media/stimuli/animate_003_left.png"" class=""coveredImage test"" style = ""width:100px; height:100px;position:fixed; top:25%;        transform: translate(-50%, -50%);left:54.5%""></img><img src=""media/stimuli/animate_003_left.png"" class=""coveredImage test"" style = ""width:100px; height:100px;position:fixed; top:25%;        transform: translate(-50%, -50%);left:61.5%""></img><img src=""media/f.png""style = ""width:30px x; height:30px;position:fixed; top:43%;    transform: translate(-50%, -50%);left:40%""></img><img src=""media/j.png""style = ""width:30px; height:30px;position:fixed; top:43%;    transform: translate(-50%, -50%);left:60%""></img>","media/stimuli/animate_003_right.png","animate","right","pair","media/stimuli/animate_008_right.png","animate","right","pair","media/stimuli/animate_003_left.png","animate","left","pair","identity_pose"
"","","","","","html-keyboard-response","58","160546","0.0-58.0","SS1678233631450","5b6c72f29dc5550001f8a514","6406d7f26dd5b7fc1e3377bd","6407d007fc738f05dba5405b","1280","577","","773","","f","","","","","","","<img src=""media/stimuli/animate_005_right.png"" class=""coveredImage test"" style = ""width:100px; height:100px; position:fixed; top:10%;    transform: translate(-50%, -50%);left:48%""></img><img src=""media/stimuli/animate_002_right.png"" class=""coveredImage test"" style = ""width:100px; height:100px;position:fixed; top:25%;        transform: translate(-50%, -50%);left:38%""></img><img src=""media/stimuli/animate_005_right.png"" class=""coveredImage test"" style = ""width:100px; height:100px;position:fixed; top:25%;        transform: translate(-50%, -50%);left:54.5%""></img><img src=""media/stimuli/animate_005_right.png"" class=""coveredImage test"" style = ""width:100px; height:100px;position:fixed; top:25%;        transform: translate(-50%, -50%);left:61.5%""></img><img src=""media/f.png""style = ""width:30px x; height:30px;position:fixed; top:43%;    transform: translate(-50%, -50%);left:40%""></img><img src=""media/j.png""style = ""width:30px; height:30px;position:fixed; top:43%;    transform: translate(-50%, -50%);left:60%""></img>","media/stimuli/animate_005_right.png","animate","right","single","media/stimuli/animate_002_right.png","animate","right","single","media/stimuli/animate_005_right.png","animate","right","pair","identity_number"
"","","","","","html-keyboard-response","59","162032","0.0-59.0","SS1678233631450","5b6c72f29dc5550001f8a514","6406d7f26dd5b7fc1e3377bd","6407d007fc738f05dba5405b","1280","577","","1467",""," ","","","","","","","","","","","","","","","","","","","",""
"","","","","","html-keyboard-response","60","163237","0.0-60.0","SS1678233631450","5b6c72f29dc5550001f8a514","6406d7f26dd5b7fc1e3377bd","6407d007fc738f05dba5405b","1280","577","","1193","","j","","","","","","","<img src=""media/stimuli/inanimate_008_right.png"" class=""coveredImage test"" style = ""width:100px; height:100px; position:fixed; top:10%;    transform: translate(-50%, -50%);left:48%""></img><img src=""media/stimuli/animate_010_right.png"" class=""coveredImage test"" style = ""width:100px; height:100px;position:fixed; top:25%;        transform: translate(-50%, -50%);left:38%""></img><img src=""media/stimuli/inanimate_008_right.png"" class=""coveredImage test"" style = ""width:100px; height:100px;position:fixed; top:25%;        transform: translate(-50%, -50%);left:54.5%""></img><img src=""media/stimuli/inanimate_008_right.png"" class=""coveredImage test"" style = ""width:100px; height:100px;position:fixed; top:25%;        transform: translate(-50%, -50%);left:61.5%""></img><img src=""media/f.png""style = ""width:30px x; height:30px;position:fixed; top:43%;    transform: translate(-50%, -50%);left:40%""></img><img src=""media/j.png""style = ""width:30px; height:30px;position:fixed; top:43%;    transform: translate(-50%, -50%);left:60%""></img>","media/stimuli/inanimate_008_right.png","inanimate","right","single","media/stimuli/animate_010_right.png","animate","right","single","media/stimuli/inanimate_008_right.png","inanimate","right","pair","animacy_number"
"","","","","","html-keyboard-response","61","163817","0.0-61.0","SS1678233631450","5b6c72f29dc5550001f8a514","6406d7f26dd5b7fc1e3377bd","6407d007fc738f05dba5405b","1280","577","","571","","f","","","","","","","<img src=""media/stimuli/inanimate_008_right.png"" class=""coveredImage test"" style = ""width:100px; height:100px; position:fixed; top:10%;    transform: translate(-50%, -50%);left:48%""></img><img src=""media/stimuli/inanimate_008_right.png"" class=""coveredImage test"" style = ""width:100px; height:100px;position:fixed; top:25%;        transform: translate(-50%, -50%);left:34.5%""></img><img src=""media/stimuli/inanimate_008_right.png"" class=""coveredImage test"" style = ""width:100px; height:100px;position:fixed; top:25%;        transform: translate(-50%, -50%);left:41.5%""></img><img src=""media/stimuli/animate_011_right.png"" class=""coveredImage test"" style = ""width:100px; height:100px;position:fixed; top:25%;        transform: translate(-50%, -50%);left:58%""></img><img src=""media/f.png""style = ""width:30px x; height:30px;position:fixed; top:43%;    transform: translate(-50%, -50%);left:40%""></img><img src=""media/j.png""style = ""width:30px; height:30px;position:fixed; top:43%;    transform: translate(-50%, -50%);left:60%""></img>","media/stimuli/inanimate_008_right.png","inanimate","right","single","media/stimuli/inanimate_008_right.png","inanimate","right","pair","media/stimuli/animate_011_right.png","animate","right","single","number_animacy"
"","","","","","html-keyboard-response","62","164492","0.0-62.0","SS1678233631450","5b6c72f29dc5550001f8a514","6406d7f26dd5b7fc1e3377bd","6407d007fc738f05dba5405b","1280","577","","661","","f","","","","","","","<img src=""media/stimuli/inanimate_001_left.png"" class=""coveredImage test"" style = ""width:100px; height:100px; position:fixed; top:10%;    transform: translate(-50%, -50%);left:48%""></img><img src=""media/stimuli/inanimate_001_left.png"" class=""coveredImage test"" style = ""width:100px; height:100px;position:fixed; top:25%;        transform: translate(-50%, -50%);left:34.5%""></img><img src=""media/stimuli/inanimate_001_left.png"" class=""coveredImage test"" style = ""width:100px; height:100px;position:fixed; top:25%;        transform: translate(-50%, -50%);left:41.5%""></img><img src=""media/stimuli/inanimate_005_left.png"" class=""coveredImage test"" style = ""width:100px; height:100px;position:fixed; top:25%;        transform: translate(-50%, -50%);left:58%""></img><img src=""media/f.png""style = ""width:30px x; height:30px;position:fixed; top:43%;    transform: translate(-50%, -50%);left:40%""></img><img src=""media/j.png""style = ""width:30px; height:30px;position:fixed; top:43%;    transform: translate(-50%, -50%);left:60%""></img>","media/stimuli/inanimate_001_left.png","inanimate","left","single","media/stimuli/inanimate_001_left.png","inanimate","left","pair","media/stimuli/inanimate_005_left.png","inanimate","left","single","number_identity"
"","","","","","html-keyboard-response","63","165087","0.0-63.0","SS1678233631450","5b6c72f29dc5550001f8a514","6406d7f26dd5b7fc1e3377bd","6407d007fc738f05dba5405b","1280","577","","585","","j","","","","","","","<img src=""media/stimuli/animate_002_right.png"" class=""coveredImage test"" style = ""width:100px; height:100px; position:fixed; top:10%;    transform: translate(-50%, -50%);left:44.5%""></img><img src=""media/stimuli/animate_002_right.png"" class=""coveredImage test"" style = ""width:100px; height:100px; position:fixed; top:10%;    transform: translate(-50%, -50%);left:51.5%""></img><img src=""media/stimuli/animate_010_right.png"" class=""coveredImage test"" style = ""width:100px; height:100px;position:fixed; top:25%;        transform: translate(-50%, -50%);left:34.5%""></img><img src=""media/stimuli/animate_010_right.png"" class=""coveredImage test"" style = ""width:100px; height:100px;position:fixed; top:25%;        transform: translate(-50%, -50%);left:41.5%""></img><img src=""media/stimuli/animate_002_left.png"" class=""coveredImage test"" style = ""width:100px; height:100px;position:fixed; top:25%;        transform: translate(-50%, -50%);left:54.5%""></img><img src=""media/stimuli/animate_002_left.png"" class=""coveredImage test"" style = ""width:100px; height:100px;position:fixed; top:25%;        transform: translate(-50%, -50%);left:61.5%""></img><img src=""media/f.png""style = ""width:30px x; height:30px;position:fixed; top:43%;    transform: translate(-50%, -50%);left:40%""></img><img src=""media/j.png""style = ""width:30px; height:30px;position:fixed; top:43%;    transform: translate(-50%, -50%);left:60%""></img>","media/stimuli/animate_002_right.png","animate","right","pair","media/stimuli/animate_010_right.png","animate","right","pair","media/stimuli/animate_002_left.png","animate","left","pair","identity_pose"
"","","","","","html-keyboard-response","64","166700","0.0-64.0","SS1678233631450","5b6c72f29dc5550001f8a514","6406d7f26dd5b7fc1e3377bd","6407d007fc738f05dba5405b","1280","577","","1597","","f","","","","","","","<img src=""media/stimuli/animate_005_left.png"" class=""coveredImage test"" style = ""width:100px; height:100px; position:fixed; top:10%;    transform: translate(-50%, -50%);left:44.5%""></img><img src=""media/stimuli/animate_005_left.png"" class=""coveredImage test"" style = ""width:100px; height:100px; position:fixed; top:10%;    transform: translate(-50%, -50%);left:51.5%""></img><img src=""media/stimuli/animate_005_left.png"" class=""coveredImage test"" style = ""width:100px; height:100px;position:fixed; top:25%;        transform: translate(-50%, -50%);left:38%""></img><img src=""media/stimuli/inanimate_006_left.png"" class=""coveredImage test"" style = ""width:100px; height:100px;position:fixed; top:25%;        transform: translate(-50%, -50%);left:54.5%""></img><img src=""media/stimuli/inanimate_006_left.png"" class=""coveredImage test"" style = ""width:100px; height:100px;position:fixed; top:25%;        transform: translate(-50%, -50%);left:61.5%""></img><img src=""media/f.png""style = ""width:30px x; height:30px;position:fixed; top:43%;    transform: translate(-50%, -50%);left:40%""></img><img src=""media/j.png""style = ""width:30px; height:30px;position:fixed; top:43%;    transform: translate(-50%, -50%);left:60%""></img>","media/stimuli/animate_005_left.png","animate","left","pair","media/stimuli/animate_005_left.png","animate","left","single","media/stimuli/inanimate_006_left.png","inanimate","left","pair","number_animacy"
"","","","","","html-keyboard-response","65","167240","0.0-65.0","SS1678233631450","5b6c72f29dc5550001f8a514","6406d7f26dd5b7fc1e3377bd","6407d007fc738f05dba5405b","1280","577","","524","","j","","","","","","","<img src=""media/stimuli/animate_011_right.png"" class=""coveredImage test"" style = ""width:100px; height:100px; position:fixed; top:10%;    transform: translate(-50%, -50%);left:48%""></img><img src=""media/stimuli/inanimate_006_left.png"" class=""coveredImage test"" style = ""width:100px; height:100px;position:fixed; top:25%;        transform: translate(-50%, -50%);left:34.5%""></img><img src=""media/stimuli/inanimate_006_left.png"" class=""coveredImage test"" style = ""width:100px; height:100px;position:fixed; top:25%;        transform: translate(-50%, -50%);left:41.5%""></img><img src=""media/stimuli/animate_011_right.png"" class=""coveredImage test"" style = ""width:100px; height:100px;position:fixed; top:25%;        transform: translate(-50%, -50%);left:54.5%""></img><img src=""media/stimuli/animate_011_right.png"" class=""coveredImage test"" style = ""width:100px; height:100px;position:fixed; top:25%;        transform: translate(-50%, -50%);left:61.5%""></img><img src=""media/f.png""style = ""width:30px x; height:30px;position:fixed; top:43%;    transform: translate(-50%, -50%);left:40%""></img><img src=""media/j.png""style = ""width:30px; height:30px;position:fixed; top:43%;    transform: translate(-50%, -50%);left:60%""></img>","media/stimuli/animate_011_right.png","animate","right","single","media/stimuli/inanimate_006_left.png","inanimate","left","pair","media/stimuli/animate_011_right.png","animate","right","pair","animacy_pose"
"","","","","","html-keyboard-response","66","167833","0.0-66.0","SS1678233631450","5b6c72f29dc5550001f8a514","6406d7f26dd5b7fc1e3377bd","6407d007fc738f05dba5405b","1280","577","","583","","f","","","","","","","<img src=""media/stimuli/inanimate_010_right.png"" class=""coveredImage test"" style = ""width:100px; height:100px; position:fixed; top:10%;    transform: translate(-50%, -50%);left:44.5%""></img><img src=""media/stimuli/inanimate_010_right.png"" class=""coveredImage test"" style = ""width:100px; height:100px; position:fixed; top:10%;    transform: translate(-50%, -50%);left:51.5%""></img><img src=""media/stimuli/inanimate_010_right.png"" class=""coveredImage test"" style = ""width:100px; height:100px;position:fixed; top:25%;        transform: translate(-50%, -50%);left:38%""></img><img src=""media/stimuli/inanimate_002_right.png"" class=""coveredImage test"" style = ""width:100px; height:100px;position:fixed; top:25%;        transform: translate(-50%, -50%);left:54.5%""></img><img src=""media/stimuli/inanimate_002_right.png"" class=""coveredImage test"" style = ""width:100px; height:100px;position:fixed; top:25%;        transform: translate(-50%, -50%);left:61.5%""></img><img src=""media/f.png""style = ""width:30px x; height:30px;position:fixed; top:43%;    transform: translate(-50%, -50%);left:40%""></img><img src=""media/j.png""style = ""width:30px; height:30px;position:fixed; top:43%;    transform: translate(-50%, -50%);left:60%""></img>","media/stimuli/inanimate_010_right.png","inanimate","right","pair","media/stimuli/inanimate_010_right.png","inanimate","right","single","media/stimuli/inanimate_002_right.png","inanimate","right","pair","number_identity"
"","","","","","html-keyboard-response","67","168433","0.0-67.0","SS1678233631450","5b6c72f29dc5550001f8a514","6406d7f26dd5b7fc1e3377bd","6407d007fc738f05dba5405b","1280","577","","573","","f","","","","","","","<img src=""media/stimuli/inanimate_008_right.png"" class=""coveredImage test"" style = ""width:100px; height:100px; position:fixed; top:10%;    transform: translate(-50%, -50%);left:48%""></img><img src=""media/stimuli/inanimate_008_right.png"" class=""coveredImage test"" style = ""width:100px; height:100px;position:fixed; top:25%;        transform: translate(-50%, -50%);left:34.5%""></img><img src=""media/stimuli/inanimate_008_right.png"" class=""coveredImage test"" style = ""width:100px; height:100px;position:fixed; top:25%;        transform: translate(-50%, -50%);left:41.5%""></img><img src=""media/stimuli/animate_006_right.png"" class=""coveredImage test"" style = ""width:100px; height:100px;position:fixed; top:25%;        transform: translate(-50%, -50%);left:58%""></img><img src=""media/f.png""style = ""width:30px x; height:30px;position:fixed; top:43%;    transform: translate(-50%, -50%);left:40%""></img><img src=""media/j.png""style = ""width:30px; height:30px;position:fixed; top:43%;    transform: translate(-50%, -50%);left:60%""></img>","media/stimuli/inanimate_008_right.png","inanimate","right","single","media/stimuli/inanimate_008_right.png","inanimate","right","pair","media/stimuli/animate_006_right.png","animate","right","single","number_animacy"
"","","","","","html-keyboard-response","68","169769","0.0-68.0","SS1678233631450","5b6c72f29dc5550001f8a514","6406d7f26dd5b7fc1e3377bd","6407d007fc738f05dba5405b","1280","577","","1323","","j","","","","","","","<img src=""media/stimuli/inanimate_004_left.png"" class=""coveredImage test"" style = ""width:100px; height:100px; position:fixed; top:10%;    transform: translate(-50%, -50%);left:44.5%""></img><img src=""media/stimuli/inanimate_004_left.png"" class=""coveredImage test"" style = ""width:100px; height:100px; position:fixed; top:10%;    transform: translate(-50%, -50%);left:51.5%""></img><img src=""media/stimuli/inanimate_003_left.png"" class=""coveredImage test"" style = ""width:100px; height:100px;position:fixed; top:25%;        transform: translate(-50%, -50%);left:34.5%""></img><img src=""media/stimuli/inanimate_003_left.png"" class=""coveredImage test"" style = ""width:100px; height:100px;position:fixed; top:25%;        transform: translate(-50%, -50%);left:41.5%""></img><img src=""media/stimuli/inanimate_004_right.png"" class=""coveredImage test"" style = ""width:100px; height:100px;position:fixed; top:25%;        transform: translate(-50%, -50%);left:54.5%""></img><img src=""media/stimuli/inanimate_004_right.png"" class=""coveredImage test"" style = ""width:100px; height:100px;position:fixed; top:25%;        transform: translate(-50%, -50%);left:61.5%""></img><img src=""media/f.png""style = ""width:30px x; height:30px;position:fixed; top:43%;    transform: translate(-50%, -50%);left:40%""></img><img src=""media/j.png""style = ""width:30px; height:30px;position:fixed; top:43%;    transform: translate(-50%, -50%);left:60%""></img>","media/stimuli/inanimate_004_left.png","inanimate","left","pair","media/stimuli/inanimate_003_left.png","inanimate","left","pair","media/stimuli/inanimate_004_right.png","inanimate","right","pair","identity_pose"
"","","","","","html-keyboard-response","69","170819","0.0-69.0","SS1678233631450","5b6c72f29dc5550001f8a514","6406d7f26dd5b7fc1e3377bd","6407d007fc738f05dba5405b","1280","577","","1031","","f","","","","","","","<img src=""media/stimuli/animate_009_left.png"" class=""coveredImage test"" style = ""width:100px; height:100px; position:fixed; top:10%;    transform: translate(-50%, -50%);left:44.5%""></img><img src=""media/stimuli/animate_009_left.png"" class=""coveredImage test"" style = ""width:100px; height:100px; position:fixed; top:10%;    transform: translate(-50%, -50%);left:51.5%""></img><img src=""media/stimuli/animate_009_left.png"" class=""coveredImage test"" style = ""width:100px; height:100px;position:fixed; top:25%;        transform: translate(-50%, -50%);left:34.5%""></img><img src=""media/stimuli/animate_009_left.png"" class=""coveredImage test"" style = ""width:100px; height:100px;position:fixed; top:25%;        transform: translate(-50%, -50%);left:41.5%""></img><img src=""media/stimuli/inanimate_006_right.png"" class=""coveredImage test"" style = ""width:100px; height:100px;position:fixed; top:25%;        transform: translate(-50%, -50%);left:54.5%""></img><img src=""media/stimuli/inanimate_006_right.png"" class=""coveredImage test"" style = ""width:100px; height:100px;position:fixed; top:25%;        transform: translate(-50%, -50%);left:61.5%""></img><img src=""media/f.png""style = ""width:30px x; height:30px;position:fixed; top:43%;    transform: translate(-50%, -50%);left:40%""></img><img src=""media/j.png""style = ""width:30px; height:30px;position:fixed; top:43%;    transform: translate(-50%, -50%);left:60%""></img>","media/stimuli/animate_009_left.png","animate","left","pair","media/stimuli/animate_009_left.png","animate","left","pair","media/stimuli/inanimate_006_right.png","inanimate","right","pair","pose_animacy"
"","","","","","html-keyboard-response","70","171564","0.0-70.0","SS1678233631450","5b6c72f29dc5550001f8a514","6406d7f26dd5b7fc1e3377bd","6407d007fc738f05dba5405b","1280","577","","717","","f","","","","","","","<img src=""media/stimuli/inanimate_010_left.png"" class=""coveredImage test"" style = ""width:100px; height:100px; position:fixed; top:10%;    transform: translate(-50%, -50%);left:48%""></img><img src=""media/stimuli/inanimate_010_right.png"" class=""coveredImage test"" style = ""width:100px; height:100px;position:fixed; top:25%;        transform: translate(-50%, -50%);left:34.5%""></img><img src=""media/stimuli/inanimate_010_right.png"" class=""coveredImage test"" style = ""width:100px; height:100px;position:fixed; top:25%;        transform: translate(-50%, -50%);left:41.5%""></img><img src=""media/stimuli/animate_008_left.png"" class=""coveredImage test"" style = ""width:100px; height:100px;position:fixed; top:25%;        transform: translate(-50%, -50%);left:54.5%""></img><img src=""media/stimuli/animate_008_left.png"" class=""coveredImage test"" style = ""width:100px; height:100px;position:fixed; top:25%;        transform: translate(-50%, -50%);left:61.5%""></img><img src=""media/f.png""style = ""width:30px x; height:30px;position:fixed; top:43%;    transform: translate(-50%, -50%);left:40%""></img><img src=""media/j.png""style = ""width:30px; height:30px;position:fixed; top:43%;    transform: translate(-50%, -50%);left:60%""></img>","media/stimuli/inanimate_010_left.png","inanimate","left","single","media/stimuli/inanimate_010_right.png","inanimate","right","pair","media/stimuli/animate_008_left.png","animate","left","pair","pose_animacy"
"","","","","","html-keyboard-response","71","172232","0.0-71.0","SS1678233631450","5b6c72f29dc5550001f8a514","6406d7f26dd5b7fc1e3377bd","6407d007fc738f05dba5405b","1280","577","","659","","j","","","","","","","<img src=""media/stimuli/animate_004_right.png"" class=""coveredImage test"" style = ""width:100px; height:100px; position:fixed; top:10%;    transform: translate(-50%, -50%);left:48%""></img><img src=""media/stimuli/animate_008_right.png"" class=""coveredImage test"" style = ""width:100px; height:100px;position:fixed; top:25%;        transform: translate(-50%, -50%);left:38%""></img><img src=""media/stimuli/animate_004_right.png"" class=""coveredImage test"" style = ""width:100px; height:100px;position:fixed; top:25%;        transform: translate(-50%, -50%);left:54.5%""></img><img src=""media/stimuli/animate_004_right.png"" class=""coveredImage test"" style = ""width:100px; height:100px;position:fixed; top:25%;        transform: translate(-50%, -50%);left:61.5%""></img><img src=""media/f.png""style = ""width:30px x; height:30px;position:fixed; top:43%;    transform: translate(-50%, -50%);left:40%""></img><img src=""media/j.png""style = ""width:30px; height:30px;position:fixed; top:43%;    transform: translate(-50%, -50%);left:60%""></img>","media/stimuli/animate_004_right.png","animate","right","single","media/stimuli/animate_008_right.png","animate","right","single","media/stimuli/animate_004_right.png","animate","right","pair","identity_number"
"","","","","","html-keyboard-response","72","173829","0.0-72.0","SS1678233631450","5b6c72f29dc5550001f8a514","6406d7f26dd5b7fc1e3377bd","6407d007fc738f05dba5405b","1280","577","","1588",""," ","","","","","","","","","","","","","","","","","","","",""
"","","","","","survey-likert","73","180309","0.0-73.0","SS1678233631450","5b6c72f29dc5550001f8a514","6406d7f26dd5b7fc1e3377bd","6407d007fc738f05dba5405b","1280","577","","6463","","{""Q0"":2}","[0]","complexity","media/stimuli/inanimate_002_right.png","inanimate","single","right","","","","","","","","","","","","","",""
"","","","","","survey-likert","74","185296","0.0-74.0","SS1678233631450","5b6c72f29dc5550001f8a514","6406d7f26dd5b7fc1e3377bd","6407d007fc738f05dba5405b","1280","577","","4933","","{""Q0"":3}","[0]","complexity","media/stimuli/inanimate_007_right.png","inanimate","single","right","","","","","","","","","","","","","",""
"","","","","","survey-likert","75","188297","0.0-75.0","SS1678233631450","5b6c72f29dc5550001f8a514","6406d7f26dd5b7fc1e3377bd","6407d007fc738f05dba5405b","1280","577","","2926","","{""Q0"":3}","[0]","complexity","media/stimuli/animate_001_right.png","animate","pair","right","","","","","","","","","","","","","",""
"","","","","","survey-likert","76","192147","0.0-76.0","SS1678233631450","5b6c72f29dc5550001f8a514","6406d7f26dd5b7fc1e3377bd","6407d007fc738f05dba5405b","1280","577","","3802","","{""Q0"":2}","[0]","complexity","media/stimuli/animate_003_right.png","animate","single","right","","","","","","","","","","","","","",""
"","","","","","survey-likert","77","194754","0.0-77.0","SS1678233631450","5b6c72f29dc5550001f8a514","6406d7f26dd5b7fc1e3377bd","6407d007fc738f05dba5405b","1280","577","","2587","","{""Q0"":3}","[0]","complexity","media/stimuli/animate_009_right.png","animate","pair","right","","","","","","","","","","","","","",""
"","","","","","survey-likert","78","196704","0.0-78.0","SS1678233631450","5b6c72f29dc5550001f8a514","6406d7f26dd5b7fc1e3377bd","6407d007fc738f05dba5405b","1280","577","","1913","","{""Q0"":2}","[0]","complexity","media/stimuli/animate_009_left.png","animate","single","left","","","","","","","","","","","","","",""
"","","","","","survey-likert","79","199318","0.0-79.0","SS1678233631450","5b6c72f29dc5550001f8a514","6406d7f26dd5b7fc1e3377bd","6407d007fc738f05dba5405b","1280","577","","2570","","{""Q0"":2}","[0]","complexity","media/stimuli/animate_004_left.png","animate","single","left","","","","","","","","","","","","","",""
"","","","","","survey-likert","80","201045","0.0-80.0","SS1678233631450","5b6c72f29dc5550001f8a514","6406d7f26dd5b7fc1e3377bd","6407d007fc738f05dba5405b","1280","577","","1689","","{""Q0"":3}","[0]","complexity","media/stimuli/animate_007_right.png","animate","pair","right","","","","","","","","","","","","","",""
"","","","","","survey-likert","81","203549","0.0-81.0","SS1678233631450","5b6c72f29dc5550001f8a514","6406d7f26dd5b7fc1e3377bd","6407d007fc738f05dba5405b","1280","577","","2475","","{""Q0"":2}","[0]","complexity","media/stimuli/inanimate_010_right.png","inanimate","single","right","","","","","","","","","","","","","",""
"","","","","","survey-likert","82","205445","0.0-82.0","SS1678233631450","5b6c72f29dc5550001f8a514","6406d7f26dd5b7fc1e3377bd","6407d007fc738f05dba5405b","1280","577","","1839","","{""Q0"":3}","[0]","complexity","media/stimuli/inanimate_008_right.png","inanimate","pair","right","","","","","","","","","","","","","",""
"","","","","","survey-likert","83","207657","0.0-83.0","SS1678233631450","5b6c72f29dc5550001f8a514","6406d7f26dd5b7fc1e3377bd","6407d007fc738f05dba5405b","1280","577","","2152","","{""Q0"":3}","[0]","complexity","media/stimuli/inanimate_011_left.png","inanimate","single","left","","","","","","","","","","","","","",""
"","","","","","survey-likert","84","209793","0.0-84.0","SS1678233631450","5b6c72f29dc5550001f8a514","6406d7f26dd5b7fc1e3377bd","6407d007fc738f05dba5405b","1280","577","","2100","","{""Q0"":2}","[0]","complexity","media/stimuli/inanimate_003_left.png","inanimate","single","left","","","","","","","","","","","","","",""
"","","","","","html-keyboard-response","85","210601","0.0-85.0","SS1678233631450","5b6c72f29dc5550001f8a514","6406d7f26dd5b7fc1e3377bd","6407d007fc738f05dba5405b","1280","577","","762",""," ","","","","","","","","","","","","","","","","","","","",""
"","","","","","survey-likert","86","214523","0.0-86.0","SS1678233631450","5b6c72f29dc5550001f8a514","6406d7f26dd5b7fc1e3377bd","6407d007fc738f05dba5405b","1280","577","","3884","","{""Q0"":3}","[0]","complexity","media/stimuli/animate_008_right.png","animate","pair","right","","","","","","","","","","","","","",""
"","","","","","survey-likert","87","216335","0.0-87.0","SS1678233631450","5b6c72f29dc5550001f8a514","6406d7f26dd5b7fc1e3377bd","6407d007fc738f05dba5405b","1280","577","","1783","","{""Q0"":2}","[0]","complexity","media/stimuli/animate_008_right.png","animate","single","right","","","","","","","","","","","","","",""
"","","","","","survey-likert","88","218588","0.0-88.0","SS1678233631450","5b6c72f29dc5550001f8a514","6406d7f26dd5b7fc1e3377bd","6407d007fc738f05dba5405b","1280","577","","2214","","{""Q0"":2}","[0]","complexity","media/stimuli/animate_006_right.png","animate","single","right","","","","","","","","","","","","","",""
"","","","","","survey-likert","89","220390","0.0-89.0","SS1678233631450","5b6c72f29dc5550001f8a514","6406d7f26dd5b7fc1e3377bd","6407d007fc738f05dba5405b","1280","577","","1760","","{""Q0"":2}","[0]","complexity","media/stimuli/animate_001_left.png","animate","single","left","","","","","","","","","","","","","",""
"","","","","","survey-likert","90","223057","0.0-90.0","SS1678233631450","5b6c72f29dc5550001f8a514","6406d7f26dd5b7fc1e3377bd","6407d007fc738f05dba5405b","1280","577","","2604","","{""Q0"":3}","[0]","complexity","media/stimuli/inanimate_008_right.png","inanimate","single","right","","","","","","","","","","","","","",""
"","","","","","survey-likert","91","224654","0.0-91.0","SS1678233631450","5b6c72f29dc5550001f8a514","6406d7f26dd5b7fc1e3377bd","6407d007fc738f05dba5405b","1280","577","","1551","","{""Q0"":2}","[0]","complexity","media/stimuli/animate_010_left.png","animate","single","left","","","","","","","","","","","","","",""
"","","","","","survey-likert","92","227229","0.0-92.0","SS1678233631450","5b6c72f29dc5550001f8a514","6406d7f26dd5b7fc1e3377bd","6407d007fc738f05dba5405b","1280","577","","2527","","{""Q0"":3}","[0]","complexity","media/stimuli/inanimate_010_left.png","inanimate","single","left","","","","","","","","","","","","","",""
"","","","","","survey-likert","93","229176","0.0-93.0","SS1678233631450","5b6c72f29dc5550001f8a514","6406d7f26dd5b7fc1e3377bd","6407d007fc738f05dba5405b","1280","577","","1925","","{""Q0"":3}","[0]","complexity","media/stimuli/animate_011_right.png","animate","pair","right","","","","","","","","","","","","","",""
"","","","","","survey-likert","94","232209","0.0-94.0","SS1678233631450","5b6c72f29dc5550001f8a514","6406d7f26dd5b7fc1e3377bd","6407d007fc738f05dba5405b","1280","577","","3007","","{""Q0"":1}","[0]","complexity","media/stimuli/inanimate_009_left.png","inanimate","single","left","","","","","","","","","","","","","",""
"","","","","","survey-likert","95","234772","0.0-95.0","SS1678233631450","5b6c72f29dc5550001f8a514","6406d7f26dd5b7fc1e3377bd","6407d007fc738f05dba5405b","1280","577","","2511","","{""Q0"":3}","[0]","complexity","media/stimuli/animate_002_right.png","animate","pair","right","","","","","","","","","","","","","",""
"","","","","","survey-likert","96","236324","0.0-96.0","SS1678233631450","5b6c72f29dc5550001f8a514","6406d7f26dd5b7fc1e3377bd","6407d007fc738f05dba5405b","1280","577","","1501","","{""Q0"":2}","[0]","complexity","media/stimuli/animate_011_right.png","animate","single","right","","","","","","","","","","","","","",""
"","","","","","survey-likert","97","237958","0.0-97.0","SS1678233631450","5b6c72f29dc5550001f8a514","6406d7f26dd5b7fc1e3377bd","6407d007fc738f05dba5405b","1280","577","","1587","","{""Q0"":2}","[0]","complexity","media/stimuli/animate_011_left.png","animate","single","left","","","","","","","","","","","","","",""
"","","","","","html-keyboard-response","98","238725","0.0-98.0","SS1678233631450","5b6c72f29dc5550001f8a514","6406d7f26dd5b7fc1e3377bd","6407d007fc738f05dba5405b","1280","577","","723",""," ","","","","","","","","","","","","","","","","","","","",""
"","","","","","survey-likert","99","241865","0.0-99.0","SS1678233631450","5b6c72f29dc5550001f8a514","6406d7f26dd5b7fc1e3377bd","6407d007fc738f05dba5405b","1280","577","","3109","","{""Q0"":2}","[0]","complexity","media/stimuli/inanimate_002_right.png","inanimate","pair","right","","","","","","","","","","","","","",""
"","","","","","survey-likert","100","243936","0.0-100.0","SS1678233631450","5b6c72f29dc5550001f8a514","6406d7f26dd5b7fc1e3377bd","6407d007fc738f05dba5405b","1280","577","","2030","","{""Q0"":2}","[0]","complexity","media/stimuli/inanimate_003_right.png","inanimate","single","right","","","","","","","","","","","","","",""
"","","","","","survey-likert","101","246792","0.0-101.0","SS1678233631450","5b6c72f29dc5550001f8a514","6406d7f26dd5b7fc1e3377bd","6407d007fc738f05dba5405b","1280","577","","2815","","{""Q0"":3}","[0]","complexity","media/stimuli/animate_011_left.png","animate","pair","left","","","","","","","","","","","","","",""
"","","","","","survey-likert","102","248670","0.0-102.0","SS1678233631450","5b6c72f29dc5550001f8a514","6406d7f26dd5b7fc1e3377bd","6407d007fc738f05dba5405b","1280","577","","1827","","{""Q0"":3}","[0]","complexity","media/stimuli/animate_012_right.png","animate","pair","right","","","","","","","","","","","","","",""
"","","","","","survey-likert","103","250768","0.0-103.0","SS1678233631450","5b6c72f29dc5550001f8a514","6406d7f26dd5b7fc1e3377bd","6407d007fc738f05dba5405b","1280","577","","2054","","{""Q0"":2}","[0]","complexity","media/stimuli/inanimate_003_right.png","inanimate","pair","right","","","","","","","","","","","","","",""
"","","","","","survey-likert","104","252786","0.0-104.0","SS1678233631450","5b6c72f29dc5550001f8a514","6406d7f26dd5b7fc1e3377bd","6407d007fc738f05dba5405b","1280","577","","1988","","{""Q0"":3}","[0]","complexity","media/stimuli/animate_005_left.png","animate","pair","left","","","","","","","","","","","","","",""
"","","","","","survey-likert","105","254118","0.0-105.0","SS1678233631450","5b6c72f29dc5550001f8a514","6406d7f26dd5b7fc1e3377bd","6407d007fc738f05dba5405b","1280","577","","1272","","{""Q0"":3}","[0]","complexity","media/stimuli/animate_008_left.png","animate","pair","left","","","","","","","","","","","","","",""
"","","","","","survey-likert","106","255815","0.0-106.0","SS1678233631450","5b6c72f29dc5550001f8a514","6406d7f26dd5b7fc1e3377bd","6407d007fc738f05dba5405b","1280","577","","1668","","{""Q0"":2}","[0]","complexity","media/stimuli/animate_002_right.png","animate","single","right","","","","","","","","","","","","","",""
"","","","","","survey-likert","107","257341","0.0-107.0","SS1678233631450","5b6c72f29dc5550001f8a514","6406d7f26dd5b7fc1e3377bd","6407d007fc738f05dba5405b","1280","577","","1501","","{""Q0"":3}","[0]","complexity","media/stimuli/animate_005_right.png","animate","pair","right","","","","","","","","","","","","","",""
"","","","","","survey-likert","108","259258","0.0-108.0","SS1678233631450","5b6c72f29dc5550001f8a514","6406d7f26dd5b7fc1e3377bd","6407d007fc738f05dba5405b","1280","577","","1861","","{""Q0"":2}","[0]","complexity","media/stimuli/animate_008_left.png","animate","single","left","","","","","","","","","","","","","",""
"","","","","","survey-likert","109","260863","0.0-109.0","SS1678233631450","5b6c72f29dc5550001f8a514","6406d7f26dd5b7fc1e3377bd","6407d007fc738f05dba5405b","1280","577","","1555","","{""Q0"":3}","[0]","complexity","media/stimuli/animate_012_left.png","animate","pair","left","","","","","","","","","","","","","",""
"","","","","","survey-likert","110","263587","0.0-110.0","SS1678233631450","5b6c72f29dc5550001f8a514","6406d7f26dd5b7fc1e3377bd","6407d007fc738f05dba5405b","1280","577","","2700","","{""Q0"":2}","[0]","complexity","media/stimuli/animate_005_right.png","animate","single","right","","","","","","","","","","","","","",""
"","","","","","html-keyboard-response","111","264359","0.0-111.0","SS1678233631450","5b6c72f29dc5550001f8a514","6406d7f26dd5b7fc1e3377bd","6407d007fc738f05dba5405b","1280","577","","741",""," ","","","","","","","","","","","","","","","","","","","",""
"","","","","","survey-likert","112","266602","0.0-112.0","SS1678233631450","5b6c72f29dc5550001f8a514","6406d7f26dd5b7fc1e3377bd","6407d007fc738f05dba5405b","1280","577","","2220","","{""Q0"":2}","[0]","complexity","media/stimuli/inanimate_009_right.png","inanimate","single","right","","","","","","","","","","","","","",""
"","","","","","survey-likert","113","268444","0.0-113.0","SS1678233631450","5b6c72f29dc5550001f8a514","6406d7f26dd5b7fc1e3377bd","6407d007fc738f05dba5405b","1280","577","","1805","","{""Q0"":3}","[0]","complexity","media/stimuli/inanimate_008_left.png","inanimate","single","left","","","","","","","","","","","","","",""
"","","","","","survey-likert","114","269719","0.0-114.0","SS1678233631450","5b6c72f29dc5550001f8a514","6406d7f26dd5b7fc1e3377bd","6407d007fc738f05dba5405b","1280","577","","1228","","{""Q0"":3}","[0]","complexity","media/stimuli/animate_004_left.png","animate","pair","left","","","","","","","","","","","","","",""
"","","","","","survey-likert","115","270835","0.0-115.0","SS1678233631450","5b6c72f29dc5550001f8a514","6406d7f26dd5b7fc1e3377bd","6407d007fc738f05dba5405b","1280","577","","1069","","{""Q0"":3}","[0]","complexity","media/stimuli/animate_010_left.png","animate","pair","left","","","","","","","","","","","","","",""
"","","","","","survey-likert","116","273589","0.0-116.0","SS1678233631450","5b6c72f29dc5550001f8a514","6406d7f26dd5b7fc1e3377bd","6407d007fc738f05dba5405b","1280","577","","2698","","{""Q0"":3}","[0]","complexity","media/stimuli/animate_003_right.png","animate","pair","right","","","","","","","","","","","","","",""
