"success","timeout","failed_images","failed_audio","failed_video","trial_type","trial_index","time_elapsed","internal_node_id","subject","prolific_id","study","session","window_width","window_height","view_history","rt","stimulus_type","response","question_order","rating_type","rating_stimulus","rating_animacy","rating_number","rating_pose","stimulus","target","target_animacy","target_pose","target_number","left","left_animacy","left_pose","left_number","right","right_animacy","right_pose","right_number","comparison_type"
"true","false","[]","[]","[]","preload","0","3855","0.0-0.0","SS1678233248304","5ccc60abe787e000167f8143","6406d7f26dd5b7fc1e3377bd","6407ce796ca61b34e7c00f5a","1272","617","","","","","","","","","","","","","","","","","","","","","","","",""
"","","","","","instructions","1","1379973","0.0-1.0","SS1678233248304","5ccc60abe787e000167f8143","6406d7f26dd5b7fc1e3377bd","6407ce796ca61b34e7c00f5a","1272","617","[{""page_index"":0,""viewing_time"":1376116}]","1376117","","","","","","","","","","","","","","","","","","","","","",""
"","","","","","instructions","2","1390671","0.0-2.0","SS1678233248304","5ccc60abe787e000167f8143","6406d7f26dd5b7fc1e3377bd","6407ce796ca61b34e7c00f5a","1272","617","[{""page_index"":0,""viewing_time"":8410}]","8410","instructions","","","","","","","","","","","","","","","","","","","","",""
"","","","","","instructions","3","1392285","0.0-3.0","SS1678233248304","5ccc60abe787e000167f8143","6406d7f26dd5b7fc1e3377bd","6407ce796ca61b34e7c00f5a","1272","617","[{""page_index"":0,""viewing_time"":1613}]","1613","instructions","","","","","","","","","","","","","","","","","","","","",""
"","","","","","survey-likert","4","1405032","0.0-4.0","SS1678233248304","5ccc60abe787e000167f8143","6406d7f26dd5b7fc1e3377bd","6407ce796ca61b34e7c00f5a","1272","617","","12746","","{""Q0"":1}","[0]","anchoring","","","","","","","","","","","","","","","","","",""
"","","","","","survey-likert","5","1415701","0.0-5.0","SS1678233248304","5ccc60abe787e000167f8143","6406d7f26dd5b7fc1e3377bd","6407ce796ca61b34e7c00f5a","1272","617","","10667","","{""Q0"":1}","[0]","anchoring","","","","","","","","","","","","","","","","","",""
"","","","","","instructions","6","1417169","0.0-6.0","SS1678233248304","5ccc60abe787e000167f8143","6406d7f26dd5b7fc1e3377bd","6407ce796ca61b34e7c00f5a","1272","617","[{""page_index"":0,""viewing_time"":1466}]","1466","instructions","","","","","","","","","","","","","","","","","","","","",""
"true","","","","","fullscreen","7","1419144","0.0-7.0","SS1678233248304","5ccc60abe787e000167f8143","6406d7f26dd5b7fc1e3377bd","6407ce796ca61b34e7c00f5a","1272","617","","","","","","","","","","","","","","","","","","","","","","","",""
"","","","","","survey-likert","8","1424189","0.0-8.0","SS1678233248304","5ccc60abe787e000167f8143","6406d7f26dd5b7fc1e3377bd","6407ce796ca61b34e7c00f5a","1272","617","","5043","","{""Q0"":2}","[0]","complexity","media/stimuli/animate_012_left.png","animate","single","left","","","","","","","","","","","","","",""
"","","","","","survey-likert","9","1431782","0.0-9.0","SS1678233248304","5ccc60abe787e000167f8143","6406d7f26dd5b7fc1e3377bd","6407ce796ca61b34e7c00f5a","1272","617","","7592","","{""Q0"":0}","[0]","complexity","media/stimuli/animate_001_left.png","animate","pair","left","","","","","","","","","","","","","",""
"","","","","","survey-likert","10","1441488","0.0-10.0","SS1678233248304","5ccc60abe787e000167f8143","6406d7f26dd5b7fc1e3377bd","6407ce796ca61b34e7c00f5a","1272","617","","9704","","{""Q0"":4}","[0]","complexity","media/stimuli/inanimate_010_left.png","inanimate","pair","left","","","","","","","","","","","","","",""
"","","","","","survey-likert","11","1446313","0.0-11.0","SS1678233248304","5ccc60abe787e000167f8143","6406d7f26dd5b7fc1e3377bd","6407ce796ca61b34e7c00f5a","1272","617","","4824","","{""Q0"":4}","[0]","complexity","media/stimuli/animate_010_left.png","animate","single","left","","","","","","","","","","","","","",""
"","","","","","survey-likert","12","1449909","0.0-12.0","SS1678233248304","5ccc60abe787e000167f8143","6406d7f26dd5b7fc1e3377bd","6407ce796ca61b34e7c00f5a","1272","617","","3594","","{""Q0"":0}","[0]","complexity","media/stimuli/animate_008_right.png","animate","pair","right","","","","","","","","","","","","","",""
"","","","","","survey-likert","13","1452587","0.0-13.0","SS1678233248304","5ccc60abe787e000167f8143","6406d7f26dd5b7fc1e3377bd","6407ce796ca61b34e7c00f5a","1272","617","","2676","","{""Q0"":4}","[0]","complexity","media/stimuli/inanimate_008_left.png","inanimate","pair","left","","","","","","","","","","","","","",""
"","","","","","survey-likert","14","1457016","0.0-14.0","SS1678233248304","5ccc60abe787e000167f8143","6406d7f26dd5b7fc1e3377bd","6407ce796ca61b34e7c00f5a","1272","617","","4428","","{""Q0"":4}","[0]","complexity","media/stimuli/animate_008_left.png","animate","pair","left","","","","","","","","","","","","","",""
"","","","","","survey-likert","15","1460878","0.0-15.0","SS1678233248304","5ccc60abe787e000167f8143","6406d7f26dd5b7fc1e3377bd","6407ce796ca61b34e7c00f5a","1272","617","","3860","","{""Q0"":4}","[0]","complexity","media/stimuli/animate_005_left.png","animate","pair","left","","","","","","","","","","","","","",""
"","","","","","survey-likert","16","1464426","0.0-16.0","SS1678233248304","5ccc60abe787e000167f8143","6406d7f26dd5b7fc1e3377bd","6407ce796ca61b34e7c00f5a","1272","617","","3546","","{""Q0"":0}","[0]","complexity","media/stimuli/animate_004_left.png","animate","single","left","","","","","","","","","","","","","",""
"","","","","","survey-likert","17","1470381","0.0-17.0","SS1678233248304","5ccc60abe787e000167f8143","6406d7f26dd5b7fc1e3377bd","6407ce796ca61b34e7c00f5a","1272","617","","5954","","{""Q0"":1}","[0]","complexity","media/stimuli/animate_011_left.png","animate","single","left","","","","","","","","","","","","","",""
"","","","","","survey-likert","18","1475919","0.0-18.0","SS1678233248304","5ccc60abe787e000167f8143","6406d7f26dd5b7fc1e3377bd","6407ce796ca61b34e7c00f5a","1272","617","","5536","","{""Q0"":4}","[0]","complexity","media/stimuli/animate_007_left.png","animate","pair","left","","","","","","","","","","","","","",""
"","","","","","survey-likert","19","1481929","0.0-19.0","SS1678233248304","5ccc60abe787e000167f8143","6406d7f26dd5b7fc1e3377bd","6407ce796ca61b34e7c00f5a","1272","617","","6008","","{""Q0"":2}","[0]","complexity","media/stimuli/inanimate_004_right.png","inanimate","pair","right","","","","","","","","","","","","","",""
"","","","","","html-keyboard-response","20","1483721","0.0-20.0","SS1678233248304","5ccc60abe787e000167f8143","6406d7f26dd5b7fc1e3377bd","6407ce796ca61b34e7c00f5a","1272","617","","1790",""," ","","","","","","","","","","","","","","","","","","","",""
"","","","","","survey-likert","21","1487332","0.0-21.0","SS1678233248304","5ccc60abe787e000167f8143","6406d7f26dd5b7fc1e3377bd","6407ce796ca61b34e7c00f5a","1272","617","","3610","","{""Q0"":4}","[0]","complexity","media/stimuli/inanimate_010_right.png","inanimate","single","right","","","","","","","","","","","","","",""
"","","","","","survey-likert","22","1490280","0.0-22.0","SS1678233248304","5ccc60abe787e000167f8143","6406d7f26dd5b7fc1e3377bd","6407ce796ca61b34e7c00f5a","1272","617","","2946","","{""Q0"":0}","[0]","complexity","media/stimuli/animate_003_left.png","animate","pair","left","","","","","","","","","","","","","",""
"","","","","","survey-likert","23","1493556","0.0-23.0","SS1678233248304","5ccc60abe787e000167f8143","6406d7f26dd5b7fc1e3377bd","6407ce796ca61b34e7c00f5a","1272","617","","3274","","{""Q0"":2}","[0]","complexity","media/stimuli/animate_006_right.png","animate","single","right","","","","","","","","","","","","","",""
"","","","","","survey-likert","24","1500485","0.0-24.0","SS1678233248304","5ccc60abe787e000167f8143","6406d7f26dd5b7fc1e3377bd","6407ce796ca61b34e7c00f5a","1272","617","","6927","","{""Q0"":2}","[0]","complexity","media/stimuli/animate_006_right.png","animate","pair","right","","","","","","","","","","","","","",""
"","","","","","survey-likert","25","1503739","0.0-25.0","SS1678233248304","5ccc60abe787e000167f8143","6406d7f26dd5b7fc1e3377bd","6407ce796ca61b34e7c00f5a","1272","617","","3252","","{""Q0"":2}","[0]","complexity","media/stimuli/animate_003_left.png","animate","single","left","","","","","","","","","","","","","",""
"","","","","","survey-likert","26","1506465","0.0-26.0","SS1678233248304","5ccc60abe787e000167f8143","6406d7f26dd5b7fc1e3377bd","6407ce796ca61b34e7c00f5a","1272","617","","2724","","{""Q0"":4}","[0]","complexity","media/stimuli/inanimate_012_right.png","inanimate","single","right","","","","","","","","","","","","","",""
"","","","","","survey-likert","27","1509075","0.0-27.0","SS1678233248304","5ccc60abe787e000167f8143","6406d7f26dd5b7fc1e3377bd","6407ce796ca61b34e7c00f5a","1272","617","","2608","","{""Q0"":4}","[0]","complexity","media/stimuli/inanimate_007_left.png","inanimate","pair","left","","","","","","","","","","","","","",""
"","","","","","survey-likert","28","1511221","0.0-28.0","SS1678233248304","5ccc60abe787e000167f8143","6406d7f26dd5b7fc1e3377bd","6407ce796ca61b34e7c00f5a","1272","617","","2144","","{""Q0"":2}","[0]","complexity","media/stimuli/inanimate_012_right.png","inanimate","pair","right","","","","","","","","","","","","","",""
"","","","","","survey-likert","29","1516386","0.0-29.0","SS1678233248304","5ccc60abe787e000167f8143","6406d7f26dd5b7fc1e3377bd","6407ce796ca61b34e7c00f5a","1272","617","","5164","","{""Q0"":4}","[0]","complexity","media/stimuli/inanimate_005_left.png","inanimate","pair","left","","","","","","","","","","","","","",""
"","","","","","survey-likert","30","1520614","0.0-30.0","SS1678233248304","5ccc60abe787e000167f8143","6406d7f26dd5b7fc1e3377bd","6407ce796ca61b34e7c00f5a","1272","617","","4226","","{""Q0"":4}","[0]","complexity","media/stimuli/inanimate_007_right.png","inanimate","pair","right","","","","","","","","","","","","","",""
"","","","","","survey-likert","31","1524410","0.0-31.0","SS1678233248304","5ccc60abe787e000167f8143","6406d7f26dd5b7fc1e3377bd","6407ce796ca61b34e7c00f5a","1272","617","","3794","","{""Q0"":4}","[0]","complexity","media/stimuli/animate_001_right.png","animate","single","right","","","","","","","","","","","","","",""
"","","","","","survey-likert","32","1528151","0.0-32.0","SS1678233248304","5ccc60abe787e000167f8143","6406d7f26dd5b7fc1e3377bd","6407ce796ca61b34e7c00f5a","1272","617","","3740","","{""Q0"":4}","[0]","complexity","media/stimuli/inanimate_005_right.png","inanimate","single","right","","","","","","","","","","","","","",""
"","","","","","html-keyboard-response","33","1529629","0.0-33.0","SS1678233248304","5ccc60abe787e000167f8143","6406d7f26dd5b7fc1e3377bd","6407ce796ca61b34e7c00f5a","1272","617","","1476",""," ","","","","","","","","","","","","","","","","","","","",""
"","","","","","survey-likert","34","1534417","0.0-34.0","SS1678233248304","5ccc60abe787e000167f8143","6406d7f26dd5b7fc1e3377bd","6407ce796ca61b34e7c00f5a","1272","617","","4787","","{""Q0"":2}","[0]","complexity","media/stimuli/inanimate_004_right.png","inanimate","single","right","","","","","","","","","","","","","",""
"","","","","","survey-likert","35","1536727","0.0-35.0","SS1678233248304","5ccc60abe787e000167f8143","6406d7f26dd5b7fc1e3377bd","6407ce796ca61b34e7c00f5a","1272","617","","2308","","{""Q0"":4}","[0]","complexity","media/stimuli/inanimate_005_left.png","inanimate","single","left","","","","","","","","","","","","","",""
"","","","","","survey-likert","36","1540059","0.0-36.0","SS1678233248304","5ccc60abe787e000167f8143","6406d7f26dd5b7fc1e3377bd","6407ce796ca61b34e7c00f5a","1272","617","","3330","","{""Q0"":4}","[0]","complexity","media/stimuli/animate_010_left.png","animate","pair","left","","","","","","","","","","","","","",""
"","","","","","survey-likert","37","1542904","0.0-37.0","SS1678233248304","5ccc60abe787e000167f8143","6406d7f26dd5b7fc1e3377bd","6407ce796ca61b34e7c00f5a","1272","617","","2844","","{""Q0"":4}","[0]","complexity","media/stimuli/animate_011_left.png","animate","pair","left","","","","","","","","","","","","","",""
"","","","","","survey-likert","38","1548204","0.0-38.0","SS1678233248304","5ccc60abe787e000167f8143","6406d7f26dd5b7fc1e3377bd","6407ce796ca61b34e7c00f5a","1272","617","","5298","","{""Q0"":4}","[0]","complexity","media/stimuli/animate_010_right.png","animate","single","right","","","","","","","","","","","","","",""
"","","","","","survey-likert","39","1552434","0.0-39.0","SS1678233248304","5ccc60abe787e000167f8143","6406d7f26dd5b7fc1e3377bd","6407ce796ca61b34e7c00f5a","1272","617","","4228","","{""Q0"":4}","[0]","complexity","media/stimuli/inanimate_008_right.png","inanimate","single","right","","","","","","","","","","","","","",""
"","","","","","survey-likert","40","1555924","0.0-40.0","SS1678233248304","5ccc60abe787e000167f8143","6406d7f26dd5b7fc1e3377bd","6407ce796ca61b34e7c00f5a","1272","617","","3488","","{""Q0"":4}","[0]","complexity","media/stimuli/inanimate_010_right.png","inanimate","pair","right","","","","","","","","","","","","","",""
"","","","","","survey-likert","41","1559587","0.0-41.0","SS1678233248304","5ccc60abe787e000167f8143","6406d7f26dd5b7fc1e3377bd","6407ce796ca61b34e7c00f5a","1272","617","","3662","","{""Q0"":2}","[0]","complexity","media/stimuli/animate_007_right.png","animate","single","right","","","","","","","","","","","","","",""
"","","","","","survey-likert","42","1562407","0.0-42.0","SS1678233248304","5ccc60abe787e000167f8143","6406d7f26dd5b7fc1e3377bd","6407ce796ca61b34e7c00f5a","1272","617","","2818","","{""Q0"":2}","[0]","complexity","media/stimuli/animate_001_left.png","animate","single","left","","","","","","","","","","","","","",""
"","","","","","survey-likert","43","1565887","0.0-43.0","SS1678233248304","5ccc60abe787e000167f8143","6406d7f26dd5b7fc1e3377bd","6407ce796ca61b34e7c00f5a","1272","617","","3478","","{""Q0"":4}","[0]","complexity","media/stimuli/animate_011_right.png","animate","single","right","","","","","","","","","","","","","",""
"","","","","","survey-likert","44","1568999","0.0-44.0","SS1678233248304","5ccc60abe787e000167f8143","6406d7f26dd5b7fc1e3377bd","6407ce796ca61b34e7c00f5a","1272","617","","3110","","{""Q0"":4}","[0]","complexity","media/stimuli/animate_010_right.png","animate","pair","right","","","","","","","","","","","","","",""
"","","","","","survey-likert","45","1572608","0.0-45.0","SS1678233248304","5ccc60abe787e000167f8143","6406d7f26dd5b7fc1e3377bd","6407ce796ca61b34e7c00f5a","1272","617","","3608","","{""Q0"":4}","[0]","complexity","media/stimuli/animate_011_right.png","animate","pair","right","","","","","","","","","","","","","",""
"","","","","","html-keyboard-response","46","1573906","0.0-46.0","SS1678233248304","5ccc60abe787e000167f8143","6406d7f26dd5b7fc1e3377bd","6407ce796ca61b34e7c00f5a","1272","617","","1296",""," ","","","","","","","","","","","","","","","","","","","",""
"","","","","","survey-likert","47","1581362","0.0-47.0","SS1678233248304","5ccc60abe787e000167f8143","6406d7f26dd5b7fc1e3377bd","6407ce796ca61b34e7c00f5a","1272","617","","7454","","{""Q0"":4}","[0]","complexity","media/stimuli/inanimate_006_left.png","inanimate","pair","left","","","","","","","","","","","","","",""
"","","","","","survey-likert","48","1585987","0.0-48.0","SS1678233248304","5ccc60abe787e000167f8143","6406d7f26dd5b7fc1e3377bd","6407ce796ca61b34e7c00f5a","1272","617","","4623","","{""Q0"":2}","[0]","complexity","media/stimuli/animate_002_left.png","animate","single","left","","","","","","","","","","","","","",""
"","","","","","survey-likert","49","1590101","0.0-49.0","SS1678233248304","5ccc60abe787e000167f8143","6406d7f26dd5b7fc1e3377bd","6407ce796ca61b34e7c00f5a","1272","617","","4112","","{""Q0"":2}","[0]","complexity","media/stimuli/animate_006_left.png","animate","pair","left","","","","","","","","","","","","","",""
"","","","","","survey-likert","50","1594241","0.0-50.0","SS1678233248304","5ccc60abe787e000167f8143","6406d7f26dd5b7fc1e3377bd","6407ce796ca61b34e7c00f5a","1272","617","","4137","","{""Q0"":4}","[0]","complexity","media/stimuli/inanimate_006_right.png","inanimate","pair","right","","","","","","","","","","","","","",""
"","","","","","survey-likert","51","1596365","0.0-51.0","SS1678233248304","5ccc60abe787e000167f8143","6406d7f26dd5b7fc1e3377bd","6407ce796ca61b34e7c00f5a","1272","617","","2122","","{""Q0"":2}","[0]","complexity","media/stimuli/inanimate_005_right.png","inanimate","pair","right","","","","","","","","","","","","","",""
"","","","","","survey-likert","52","1599152","0.0-52.0","SS1678233248304","5ccc60abe787e000167f8143","6406d7f26dd5b7fc1e3377bd","6407ce796ca61b34e7c00f5a","1272","617","","2786","","{""Q0"":2}","[0]","complexity","media/stimuli/inanimate_012_left.png","inanimate","single","left","","","","","","","","","","","","","",""
"","","","","","survey-likert","53","1602602","0.0-53.0","SS1678233248304","5ccc60abe787e000167f8143","6406d7f26dd5b7fc1e3377bd","6407ce796ca61b34e7c00f5a","1272","617","","3448","","{""Q0"":4}","[0]","complexity","media/stimuli/animate_004_left.png","animate","pair","left","","","","","","","","","","","","","",""
"","","","","","survey-likert","54","1607508","0.0-54.0","SS1678233248304","5ccc60abe787e000167f8143","6406d7f26dd5b7fc1e3377bd","6407ce796ca61b34e7c00f5a","1272","617","","4903","","{""Q0"":4}","[0]","complexity","media/stimuli/animate_012_left.png","animate","pair","left","","","","","","","","","","","","","",""
"","","","","","survey-likert","55","1612791","0.0-55.0","SS1678233248304","5ccc60abe787e000167f8143","6406d7f26dd5b7fc1e3377bd","6407ce796ca61b34e7c00f5a","1272","617","","5281","","{""Q0"":0}","[0]","complexity","media/stimuli/inanimate_001_right.png","inanimate","single","right","","","","","","","","","","","","","",""
"","","","","","survey-likert","56","1617840","0.0-56.0","SS1678233248304","5ccc60abe787e000167f8143","6406d7f26dd5b7fc1e3377bd","6407ce796ca61b34e7c00f5a","1272","617","","5048","","{""Q0"":1}","[0]","complexity","media/stimuli/inanimate_009_right.png","inanimate","pair","right","","","","","","","","","","","","","",""
"","","","","","survey-likert","57","1621612","0.0-57.0","SS1678233248304","5ccc60abe787e000167f8143","6406d7f26dd5b7fc1e3377bd","6407ce796ca61b34e7c00f5a","1272","617","","3769","","{""Q0"":4}","[0]","complexity","media/stimuli/animate_008_left.png","animate","single","left","","","","","","","","","","","","","",""
"","","","","","survey-likert","58","1624158","0.0-58.0","SS1678233248304","5ccc60abe787e000167f8143","6406d7f26dd5b7fc1e3377bd","6407ce796ca61b34e7c00f5a","1272","617","","2543","","{""Q0"":2}","[0]","complexity","media/stimuli/inanimate_011_right.png","inanimate","single","right","","","","","","","","","","","","","",""
"","","","","","html-keyboard-response","59","1625509","0.0-59.0","SS1678233248304","5ccc60abe787e000167f8143","6406d7f26dd5b7fc1e3377bd","6407ce796ca61b34e7c00f5a","1272","617","","1350",""," ","","","","","","","","","","","","","","","","","","","",""
"","","","","","survey-likert","60","1633199","0.0-60.0","SS1678233248304","5ccc60abe787e000167f8143","6406d7f26dd5b7fc1e3377bd","6407ce796ca61b34e7c00f5a","1272","617","","7688","","{""Q0"":5}","[0]","complexity","media/stimuli/inanimate_001_right.png","inanimate","pair","right","","","","","","","","","","","","","",""
"","","","","","survey-likert","61","1635989","0.0-61.0","SS1678233248304","5ccc60abe787e000167f8143","6406d7f26dd5b7fc1e3377bd","6407ce796ca61b34e7c00f5a","1272","617","","2787","","{""Q0"":5}","[0]","complexity","media/stimuli/inanimate_008_right.png","inanimate","pair","right","","","","","","","","","","","","","",""
"","","","","","survey-likert","62","1639295","0.0-62.0","SS1678233248304","5ccc60abe787e000167f8143","6406d7f26dd5b7fc1e3377bd","6407ce796ca61b34e7c00f5a","1272","617","","3304","","{""Q0"":5}","[0]","complexity","media/stimuli/animate_009_right.png","animate","single","right","","","","","","","","","","","","","",""
"","","","","","survey-likert","63","1645132","0.0-63.0","SS1678233248304","5ccc60abe787e000167f8143","6406d7f26dd5b7fc1e3377bd","6407ce796ca61b34e7c00f5a","1272","617","","5835","","{""Q0"":4}","[0]","complexity","media/stimuli/animate_007_left.png","animate","single","left","","","","","","","","","","","","","",""
"","","","","","survey-likert","64","1648228","0.0-64.0","SS1678233248304","5ccc60abe787e000167f8143","6406d7f26dd5b7fc1e3377bd","6407ce796ca61b34e7c00f5a","1272","617","","3094","","{""Q0"":4}","[0]","complexity","media/stimuli/inanimate_007_left.png","inanimate","single","left","","","","","","","","","","","","","",""
"","","","","","survey-likert","65","1652600","0.0-65.0","SS1678233248304","5ccc60abe787e000167f8143","6406d7f26dd5b7fc1e3377bd","6407ce796ca61b34e7c00f5a","1272","617","","4369","","{""Q0"":4}","[0]","complexity","media/stimuli/animate_002_right.png","animate","pair","right","","","","","","","","","","","","","",""
"","","","","","survey-likert","66","1655504","0.0-66.0","SS1678233248304","5ccc60abe787e000167f8143","6406d7f26dd5b7fc1e3377bd","6407ce796ca61b34e7c00f5a","1272","617","","2901","","{""Q0"":2}","[0]","complexity","media/stimuli/inanimate_011_left.png","inanimate","single","left","","","","","","","","","","","","","",""
"","","","","","survey-likert","67","1658821","0.0-67.0","SS1678233248304","5ccc60abe787e000167f8143","6406d7f26dd5b7fc1e3377bd","6407ce796ca61b34e7c00f5a","1272","617","","3315","","{""Q0"":4}","[0]","complexity","media/stimuli/inanimate_003_right.png","inanimate","pair","right","","","","","","","","","","","","","",""
"","","","","","survey-likert","68","1664905","0.0-68.0","SS1678233248304","5ccc60abe787e000167f8143","6406d7f26dd5b7fc1e3377bd","6407ce796ca61b34e7c00f5a","1272","617","","6081","","{""Q0"":4}","[0]","complexity","media/stimuli/animate_009_right.png","animate","pair","right","","","","","","","","","","","","","",""
"","","","","","survey-likert","69","1668198","0.0-69.0","SS1678233248304","5ccc60abe787e000167f8143","6406d7f26dd5b7fc1e3377bd","6407ce796ca61b34e7c00f5a","1272","617","","3291","","{""Q0"":4}","[0]","complexity","media/stimuli/animate_005_left.png","animate","single","left","","","","","","","","","","","","","",""
"","","","","","survey-likert","70","1671858","0.0-70.0","SS1678233248304","5ccc60abe787e000167f8143","6406d7f26dd5b7fc1e3377bd","6407ce796ca61b34e7c00f5a","1272","617","","3657","","{""Q0"":4}","[0]","complexity","media/stimuli/inanimate_003_right.png","inanimate","single","right","","","","","","","","","","","","","",""
"","","","","","survey-likert","71","1678806","0.0-71.0","SS1678233248304","5ccc60abe787e000167f8143","6406d7f26dd5b7fc1e3377bd","6407ce796ca61b34e7c00f5a","1272","617","","6945","","{""Q0"":4}","[0]","complexity","media/stimuli/animate_003_right.png","animate","single","right","","","","","","","","","","","","","",""
"","","","","","html-keyboard-response","72","1680090","0.0-72.0","SS1678233248304","5ccc60abe787e000167f8143","6406d7f26dd5b7fc1e3377bd","6407ce796ca61b34e7c00f5a","1272","617","","1282",""," ","","","","","","","","","","","","","","","","","","","",""
"","","","","","html-keyboard-response","73","1683841","0.0-73.0","SS1678233248304","5ccc60abe787e000167f8143","6406d7f26dd5b7fc1e3377bd","6407ce796ca61b34e7c00f5a","1272","617","","3750","","f","","","","","","","<img src=""media/stimuli/animate_006_right.png"" class=""coveredImage test"" style = ""width:100px; height:100px; position:fixed; top:10%;    transform: translate(-50%, -50%);left:44.5%""></img><img src=""media/stimuli/animate_006_right.png"" class=""coveredImage test"" style = ""width:100px; height:100px; position:fixed; top:10%;    transform: translate(-50%, -50%);left:51.5%""></img><img src=""media/stimuli/animate_006_left.png"" class=""coveredImage test"" style = ""width:100px; height:100px;position:fixed; top:25%;        transform: translate(-50%, -50%);left:34.5%""></img><img src=""media/stimuli/animate_006_left.png"" class=""coveredImage test"" style = ""width:100px; height:100px;position:fixed; top:25%;        transform: translate(-50%, -50%);left:41.5%""></img><img src=""media/stimuli/inanimate_001_right.png"" class=""coveredImage test"" style = ""width:100px; height:100px;position:fixed; top:25%;        transform: translate(-50%, -50%);left:54.5%""></img><img src=""media/stimuli/inanimate_001_right.png"" class=""coveredImage test"" style = ""width:100px; height:100px;position:fixed; top:25%;        transform: translate(-50%, -50%);left:61.5%""></img><img src=""media/f.png""style = ""width:30px x; height:30px;position:fixed; top:43%;    transform: translate(-50%, -50%);left:40%""></img><img src=""media/j.png""style = ""width:30px; height:30px;position:fixed; top:43%;    transform: translate(-50%, -50%);left:60%""></img>","media/stimuli/animate_006_right.png","animate","right","pair","media/stimuli/animate_006_left.png","animate","left","pair","media/stimuli/inanimate_001_right.png","inanimate","right","pair","pose_animacy"
"","","","","","html-keyboard-response","74","1691161","0.0-74.0","SS1678233248304","5ccc60abe787e000167f8143","6406d7f26dd5b7fc1e3377bd","6407ce796ca61b34e7c00f5a","1272","617","","7318","","j","","","","","","","<img src=""media/stimuli/inanimate_006_left.png"" class=""coveredImage test"" style = ""width:100px; height:100px; position:fixed; top:10%;    transform: translate(-50%, -50%);left:44.5%""></img><img src=""media/stimuli/inanimate_006_left.png"" class=""coveredImage test"" style = ""width:100px; height:100px; position:fixed; top:10%;    transform: translate(-50%, -50%);left:51.5%""></img><img src=""media/stimuli/inanimate_006_right.png"" class=""coveredImage test"" style = ""width:100px; height:100px;position:fixed; top:25%;        transform: translate(-50%, -50%);left:38%""></img><img src=""media/stimuli/animate_004_left.png"" class=""coveredImage test"" style = ""width:100px; height:100px;position:fixed; top:25%;        transform: translate(-50%, -50%);left:58%""></img><img src=""media/f.png""style = ""width:30px x; height:30px;position:fixed; top:43%;    transform: translate(-50%, -50%);left:40%""></img><img src=""media/j.png""style = ""width:30px; height:30px;position:fixed; top:43%;    transform: translate(-50%, -50%);left:60%""></img>","media/stimuli/inanimate_006_left.png","inanimate","left","pair","media/stimuli/inanimate_006_right.png","inanimate","right","single","media/stimuli/animate_004_left.png","animate","left","single","pose_animacy"
"","","","","","html-keyboard-response","75","1696432","0.0-75.0","SS1678233248304","5ccc60abe787e000167f8143","6406d7f26dd5b7fc1e3377bd","6407ce796ca61b34e7c00f5a","1272","617","","5269","","j","","","","","","","<img src=""media/stimuli/animate_012_right.png"" class=""coveredImage test"" style = ""width:100px; height:100px; position:fixed; top:10%;    transform: translate(-50%, -50%);left:48%""></img><img src=""media/stimuli/animate_004_right.png"" class=""coveredImage test"" style = ""width:100px; height:100px;position:fixed; top:25%;        transform: translate(-50%, -50%);left:38%""></img><img src=""media/stimuli/animate_012_right.png"" class=""coveredImage test"" style = ""width:100px; height:100px;position:fixed; top:25%;        transform: translate(-50%, -50%);left:54.5%""></img><img src=""media/stimuli/animate_012_right.png"" class=""coveredImage test"" style = ""width:100px; height:100px;position:fixed; top:25%;        transform: translate(-50%, -50%);left:61.5%""></img><img src=""media/f.png""style = ""width:30px x; height:30px;position:fixed; top:43%;    transform: translate(-50%, -50%);left:40%""></img><img src=""media/j.png""style = ""width:30px; height:30px;position:fixed; top:43%;    transform: translate(-50%, -50%);left:60%""></img>","media/stimuli/animate_012_right.png","animate","right","single","media/stimuli/animate_004_right.png","animate","right","single","media/stimuli/animate_012_right.png","animate","right","pair","identity_number"
"","","","","","html-keyboard-response","76","1702808","0.0-76.0","SS1678233248304","5ccc60abe787e000167f8143","6406d7f26dd5b7fc1e3377bd","6407ce796ca61b34e7c00f5a","1272","617","","6374","","f","","","","","","","<img src=""media/stimuli/inanimate_004_right.png"" class=""coveredImage test"" style = ""width:100px; height:100px; position:fixed; top:10%;    transform: translate(-50%, -50%);left:44.5%""></img><img src=""media/stimuli/inanimate_004_right.png"" class=""coveredImage test"" style = ""width:100px; height:100px; position:fixed; top:10%;    transform: translate(-50%, -50%);left:51.5%""></img><img src=""media/stimuli/inanimate_004_right.png"" class=""coveredImage test"" style = ""width:100px; height:100px;position:fixed; top:25%;        transform: translate(-50%, -50%);left:38%""></img><img src=""media/stimuli/animate_005_right.png"" class=""coveredImage test"" style = ""width:100px; height:100px;position:fixed; top:25%;        transform: translate(-50%, -50%);left:54.5%""></img><img src=""media/stimuli/animate_005_right.png"" class=""coveredImage test"" style = ""width:100px; height:100px;position:fixed; top:25%;        transform: translate(-50%, -50%);left:61.5%""></img><img src=""media/f.png""style = ""width:30px x; height:30px;position:fixed; top:43%;    transform: translate(-50%, -50%);left:40%""></img><img src=""media/j.png""style = ""width:30px; height:30px;position:fixed; top:43%;    transform: translate(-50%, -50%);left:60%""></img>","media/stimuli/inanimate_004_right.png","inanimate","right","pair","media/stimuli/inanimate_004_right.png","inanimate","right","single","media/stimuli/animate_005_right.png","animate","right","pair","number_animacy"
"","","","","","html-keyboard-response","77","1709175","0.0-77.0","SS1678233248304","5ccc60abe787e000167f8143","6406d7f26dd5b7fc1e3377bd","6407ce796ca61b34e7c00f5a","1272","617","","6365","","j","","","","","","","<img src=""media/stimuli/animate_010_right.png"" class=""coveredImage test"" style = ""width:100px; height:100px; position:fixed; top:10%;    transform: translate(-50%, -50%);left:48%""></img><img src=""media/stimuli/animate_010_right.png"" class=""coveredImage test"" style = ""width:100px; height:100px;position:fixed; top:25%;        transform: translate(-50%, -50%);left:34.5%""></img><img src=""media/stimuli/animate_010_right.png"" class=""coveredImage test"" style = ""width:100px; height:100px;position:fixed; top:25%;        transform: translate(-50%, -50%);left:41.5%""></img><img src=""media/stimuli/animate_010_right.png"" class=""coveredImage test"" style = ""width:100px; height:100px;position:fixed; top:25%;        transform: translate(-50%, -50%);left:58%""></img><img src=""media/f.png""style = ""width:30px x; height:30px;position:fixed; top:43%;    transform: translate(-50%, -50%);left:40%""></img><img src=""media/j.png""style = ""width:30px; height:30px;position:fixed; top:43%;    transform: translate(-50%, -50%);left:60%""></img>","media/stimuli/animate_010_right.png","animate","right","single","media/stimuli/animate_010_right.png","animate","right","pair","media/stimuli/animate_010_right.png","animate","right","single","number_filler"
"","","","","","html-keyboard-response","78","1716967","0.0-78.0","SS1678233248304","5ccc60abe787e000167f8143","6406d7f26dd5b7fc1e3377bd","6407ce796ca61b34e7c00f5a","1272","617","","7790","","j","","","","","","","<img src=""media/stimuli/animate_012_right.png"" class=""coveredImage test"" style = ""width:100px; height:100px; position:fixed; top:10%;    transform: translate(-50%, -50%);left:48%""></img><img src=""media/stimuli/animate_012_left.png"" class=""coveredImage test"" style = ""width:100px; height:100px;position:fixed; top:25%;        transform: translate(-50%, -50%);left:38%""></img><img src=""media/stimuli/animate_012_right.png"" class=""coveredImage test"" style = ""width:100px; height:100px;position:fixed; top:25%;        transform: translate(-50%, -50%);left:54.5%""></img><img src=""media/stimuli/animate_012_right.png"" class=""coveredImage test"" style = ""width:100px; height:100px;position:fixed; top:25%;        transform: translate(-50%, -50%);left:61.5%""></img><img src=""media/f.png""style = ""width:30px x; height:30px;position:fixed; top:43%;    transform: translate(-50%, -50%);left:40%""></img><img src=""media/j.png""style = ""width:30px; height:30px;position:fixed; top:43%;    transform: translate(-50%, -50%);left:60%""></img>","media/stimuli/animate_012_right.png","animate","right","single","media/stimuli/animate_012_left.png","animate","left","single","media/stimuli/animate_012_right.png","animate","right","pair","pose_number"
"","","","","","html-keyboard-response","79","1727630","0.0-79.0","SS1678233248304","5ccc60abe787e000167f8143","6406d7f26dd5b7fc1e3377bd","6407ce796ca61b34e7c00f5a","1272","617","","10661","","f","","","","","","","<img src=""media/stimuli/inanimate_004_left.png"" class=""coveredImage test"" style = ""width:100px; height:100px; position:fixed; top:10%;    transform: translate(-50%, -50%);left:48%""></img><img src=""media/stimuli/inanimate_004_left.png"" class=""coveredImage test"" style = ""width:100px; height:100px;position:fixed; top:25%;        transform: translate(-50%, -50%);left:38%""></img><img src=""media/stimuli/inanimate_004_right.png"" class=""coveredImage test"" style = ""width:100px; height:100px;position:fixed; top:25%;        transform: translate(-50%, -50%);left:58%""></img><img src=""media/f.png""style = ""width:30px x; height:30px;position:fixed; top:43%;    transform: translate(-50%, -50%);left:40%""></img><img src=""media/j.png""style = ""width:30px; height:30px;position:fixed; top:43%;    transform: translate(-50%, -50%);left:60%""></img>","media/stimuli/inanimate_004_left.png","inanimate","left","single","media/stimuli/inanimate_004_left.png","inanimate","left","single","media/stimuli/inanimate_004_right.png","inanimate","right","single","filler_pose"
"","","","","","html-keyboard-response","80","1736190","0.0-80.0","SS1678233248304","5ccc60abe787e000167f8143","6406d7f26dd5b7fc1e3377bd","6407ce796ca61b34e7c00f5a","1272","617","","8557","","f","","","","","","","<img src=""media/stimuli/inanimate_009_left.png"" class=""coveredImage test"" style = ""width:100px; height:100px; position:fixed; top:10%;    transform: translate(-50%, -50%);left:44.5%""></img><img src=""media/stimuli/inanimate_009_left.png"" class=""coveredImage test"" style = ""width:100px; height:100px; position:fixed; top:10%;    transform: translate(-50%, -50%);left:51.5%""></img><img src=""media/stimuli/animate_009_left.png"" class=""coveredImage test"" style = ""width:100px; height:100px;position:fixed; top:25%;        transform: translate(-50%, -50%);left:38%""></img><img src=""media/stimuli/inanimate_009_right.png"" class=""coveredImage test"" style = ""width:100px; height:100px;position:fixed; top:25%;        transform: translate(-50%, -50%);left:58%""></img><img src=""media/f.png""style = ""width:30px x; height:30px;position:fixed; top:43%;    transform: translate(-50%, -50%);left:40%""></img><img src=""media/j.png""style = ""width:30px; height:30px;position:fixed; top:43%;    transform: translate(-50%, -50%);left:60%""></img>","media/stimuli/inanimate_009_left.png","inanimate","left","pair","media/stimuli/animate_009_left.png","animate","left","single","media/stimuli/inanimate_009_right.png","inanimate","right","single","animacy_pose"
"","","","","","html-keyboard-response","81","1744270","0.0-81.0","SS1678233248304","5ccc60abe787e000167f8143","6406d7f26dd5b7fc1e3377bd","6407ce796ca61b34e7c00f5a","1272","617","","8078","","f","","","","","","","<img src=""media/stimuli/inanimate_002_right.png"" class=""coveredImage test"" style = ""width:100px; height:100px; position:fixed; top:10%;    transform: translate(-50%, -50%);left:48%""></img><img src=""media/stimuli/inanimate_002_right.png"" class=""coveredImage test"" style = ""width:100px; height:100px;position:fixed; top:25%;        transform: translate(-50%, -50%);left:34.5%""></img><img src=""media/stimuli/inanimate_002_right.png"" class=""coveredImage test"" style = ""width:100px; height:100px;position:fixed; top:25%;        transform: translate(-50%, -50%);left:41.5%""></img><img src=""media/stimuli/animate_007_right.png"" class=""coveredImage test"" style = ""width:100px; height:100px;position:fixed; top:25%;        transform: translate(-50%, -50%);left:58%""></img><img src=""media/f.png""style = ""width:30px x; height:30px;position:fixed; top:43%;    transform: translate(-50%, -50%);left:40%""></img><img src=""media/j.png""style = ""width:30px; height:30px;position:fixed; top:43%;    transform: translate(-50%, -50%);left:60%""></img>","media/stimuli/inanimate_002_right.png","inanimate","right","single","media/stimuli/inanimate_002_right.png","inanimate","right","pair","media/stimuli/animate_007_right.png","animate","right","single","number_animacy"
"","","","","","html-keyboard-response","82","1747149","0.0-82.0","SS1678233248304","5ccc60abe787e000167f8143","6406d7f26dd5b7fc1e3377bd","6407ce796ca61b34e7c00f5a","1272","617","","2877","","j","","","","","","","<img src=""media/stimuli/animate_012_right.png"" class=""coveredImage test"" style = ""width:100px; height:100px; position:fixed; top:10%;    transform: translate(-50%, -50%);left:48%""></img><img src=""media/stimuli/inanimate_007_left.png"" class=""coveredImage test"" style = ""width:100px; height:100px;position:fixed; top:25%;        transform: translate(-50%, -50%);left:34.5%""></img><img src=""media/stimuli/inanimate_007_left.png"" class=""coveredImage test"" style = ""width:100px; height:100px;position:fixed; top:25%;        transform: translate(-50%, -50%);left:41.5%""></img><img src=""media/stimuli/animate_012_right.png"" class=""coveredImage test"" style = ""width:100px; height:100px;position:fixed; top:25%;        transform: translate(-50%, -50%);left:54.5%""></img><img src=""media/stimuli/animate_012_right.png"" class=""coveredImage test"" style = ""width:100px; height:100px;position:fixed; top:25%;        transform: translate(-50%, -50%);left:61.5%""></img><img src=""media/f.png""style = ""width:30px x; height:30px;position:fixed; top:43%;    transform: translate(-50%, -50%);left:40%""></img><img src=""media/j.png""style = ""width:30px; height:30px;position:fixed; top:43%;    transform: translate(-50%, -50%);left:60%""></img>","media/stimuli/animate_012_right.png","animate","right","single","media/stimuli/inanimate_007_left.png","inanimate","left","pair","media/stimuli/animate_012_right.png","animate","right","pair","animacy_pose"
"","","","","","html-keyboard-response","83","1750213","0.0-83.0","SS1678233248304","5ccc60abe787e000167f8143","6406d7f26dd5b7fc1e3377bd","6407ce796ca61b34e7c00f5a","1272","617","","3062","","j","","","","","","","<img src=""media/stimuli/animate_005_left.png"" class=""coveredImage test"" style = ""width:100px; height:100px; position:fixed; top:10%;    transform: translate(-50%, -50%);left:44.5%""></img><img src=""media/stimuli/animate_005_left.png"" class=""coveredImage test"" style = ""width:100px; height:100px; position:fixed; top:10%;    transform: translate(-50%, -50%);left:51.5%""></img><img src=""media/stimuli/inanimate_010_left.png"" class=""coveredImage test"" style = ""width:100px; height:100px;position:fixed; top:25%;        transform: translate(-50%, -50%);left:34.5%""></img><img src=""media/stimuli/inanimate_010_left.png"" class=""coveredImage test"" style = ""width:100px; height:100px;position:fixed; top:25%;        transform: translate(-50%, -50%);left:41.5%""></img><img src=""media/stimuli/animate_005_left.png"" class=""coveredImage test"" style = ""width:100px; height:100px;position:fixed; top:25%;        transform: translate(-50%, -50%);left:58%""></img><img src=""media/f.png""style = ""width:30px x; height:30px;position:fixed; top:43%;    transform: translate(-50%, -50%);left:40%""></img><img src=""media/j.png""style = ""width:30px; height:30px;position:fixed; top:43%;    transform: translate(-50%, -50%);left:60%""></img>","media/stimuli/animate_005_left.png","animate","left","pair","media/stimuli/inanimate_010_left.png","inanimate","left","pair","media/stimuli/animate_005_left.png","animate","left","single","animacy_number"
"","","","","","html-keyboard-response","84","1752893","0.0-84.0","SS1678233248304","5ccc60abe787e000167f8143","6406d7f26dd5b7fc1e3377bd","6407ce796ca61b34e7c00f5a","1272","617","","2678","","j","","","","","","","<img src=""media/stimuli/animate_010_left.png"" class=""coveredImage test"" style = ""width:100px; height:100px; position:fixed; top:10%;    transform: translate(-50%, -50%);left:48%""></img><img src=""media/stimuli/animate_010_right.png"" class=""coveredImage test"" style = ""width:100px; height:100px;position:fixed; top:25%;        transform: translate(-50%, -50%);left:38%""></img><img src=""media/stimuli/animate_010_left.png"" class=""coveredImage test"" style = ""width:100px; height:100px;position:fixed; top:25%;        transform: translate(-50%, -50%);left:54.5%""></img><img src=""media/stimuli/animate_010_left.png"" class=""coveredImage test"" style = ""width:100px; height:100px;position:fixed; top:25%;        transform: translate(-50%, -50%);left:61.5%""></img><img src=""media/f.png""style = ""width:30px x; height:30px;position:fixed; top:43%;    transform: translate(-50%, -50%);left:40%""></img><img src=""media/j.png""style = ""width:30px; height:30px;position:fixed; top:43%;    transform: translate(-50%, -50%);left:60%""></img>","media/stimuli/animate_010_left.png","animate","left","single","media/stimuli/animate_010_right.png","animate","right","single","media/stimuli/animate_010_left.png","animate","left","pair","pose_number"
"","","","","","html-keyboard-response","85","1753861","0.0-85.0","SS1678233248304","5ccc60abe787e000167f8143","6406d7f26dd5b7fc1e3377bd","6407ce796ca61b34e7c00f5a","1272","617","","966",""," ","","","","","","","","","","","","","","","","","","","",""
"","","","","","survey-likert","86","1758037","0.0-86.0","SS1678233248304","5ccc60abe787e000167f8143","6406d7f26dd5b7fc1e3377bd","6407ce796ca61b34e7c00f5a","1272","617","","4174","","{""Q0"":4}","[0]","complexity","media/stimuli/animate_005_right.png","animate","pair","right","","","","","","","","","","","","","",""
"","","","","","survey-likert","87","1760340","0.0-87.0","SS1678233248304","5ccc60abe787e000167f8143","6406d7f26dd5b7fc1e3377bd","6407ce796ca61b34e7c00f5a","1272","617","","2300","","{""Q0"":2}","[0]","complexity","media/stimuli/animate_008_right.png","animate","single","right","","","","","","","","","","","","","",""
"","","","","","survey-likert","88","1764234","0.0-88.0","SS1678233248304","5ccc60abe787e000167f8143","6406d7f26dd5b7fc1e3377bd","6407ce796ca61b34e7c00f5a","1272","617","","3891","","{""Q0"":4}","[0]","complexity","media/stimuli/inanimate_006_right.png","inanimate","single","right","","","","","","","","","","","","","",""
"","","","","","survey-likert","89","1768816","0.0-89.0","SS1678233248304","5ccc60abe787e000167f8143","6406d7f26dd5b7fc1e3377bd","6407ce796ca61b34e7c00f5a","1272","617","","4578","","{""Q0"":4}","[0]","complexity","media/stimuli/animate_007_right.png","animate","pair","right","","","","","","","","","","","","","",""
"","","","","","survey-likert","90","1811212","0.0-90.0","SS1678233248304","5ccc60abe787e000167f8143","6406d7f26dd5b7fc1e3377bd","6407ce796ca61b34e7c00f5a","1272","617","","42394","","{""Q0"":2}","[0]","complexity","media/stimuli/animate_009_left.png","animate","pair","left","","","","","","","","","","","","","",""
"","","","","","survey-likert","91","1814858","0.0-91.0","SS1678233248304","5ccc60abe787e000167f8143","6406d7f26dd5b7fc1e3377bd","6407ce796ca61b34e7c00f5a","1272","617","","3642","","{""Q0"":4}","[0]","complexity","media/stimuli/inanimate_003_left.png","inanimate","single","left","","","","","","","","","","","","","",""
"","","","","","survey-likert","92","1817942","0.0-92.0","SS1678233248304","5ccc60abe787e000167f8143","6406d7f26dd5b7fc1e3377bd","6407ce796ca61b34e7c00f5a","1272","617","","3081","","{""Q0"":5}","[0]","complexity","media/stimuli/animate_002_left.png","animate","pair","left","","","","","","","","","","","","","",""
"","","","","","survey-likert","93","1821514","0.0-93.0","SS1678233248304","5ccc60abe787e000167f8143","6406d7f26dd5b7fc1e3377bd","6407ce796ca61b34e7c00f5a","1272","617","","3568","","{""Q0"":2}","[0]","complexity","media/stimuli/inanimate_009_left.png","inanimate","single","left","","","","","","","","","","","","","",""
"","","","","","survey-likert","94","1826469","0.0-94.0","SS1678233248304","5ccc60abe787e000167f8143","6406d7f26dd5b7fc1e3377bd","6407ce796ca61b34e7c00f5a","1272","617","","4952","","{""Q0"":2}","[0]","complexity","media/stimuli/inanimate_004_left.png","inanimate","pair","left","","","","","","","","","","","","","",""
"","","","","","survey-likert","95","1830973","0.0-95.0","SS1678233248304","5ccc60abe787e000167f8143","6406d7f26dd5b7fc1e3377bd","6407ce796ca61b34e7c00f5a","1272","617","","4500","","{""Q0"":2}","[0]","complexity","media/stimuli/animate_012_right.png","animate","single","right","","","","","","","","","","","","","",""
"","","","","","survey-likert","96","1835885","0.0-96.0","SS1678233248304","5ccc60abe787e000167f8143","6406d7f26dd5b7fc1e3377bd","6407ce796ca61b34e7c00f5a","1272","617","","4908","","{""Q0"":4}","[0]","complexity","media/stimuli/inanimate_002_left.png","inanimate","pair","left","","","","","","","","","","","","","",""
"","","","","","survey-likert","97","1846072","0.0-97.0","SS1678233248304","5ccc60abe787e000167f8143","6406d7f26dd5b7fc1e3377bd","6407ce796ca61b34e7c00f5a","1272","617","","10183","","{""Q0"":2}","[0]","complexity","media/stimuli/inanimate_009_right.png","inanimate","single","right","","","","","","","","","","","","","",""
"","","","","","html-keyboard-response","98","1846917","0.0-98.0","SS1678233248304","5ccc60abe787e000167f8143","6406d7f26dd5b7fc1e3377bd","6407ce796ca61b34e7c00f5a","1272","617","","843",""," ","","","","","","","","","","","","","","","","","","","",""
"","","","","","html-keyboard-response","99","1855549","0.0-99.0","SS1678233248304","5ccc60abe787e000167f8143","6406d7f26dd5b7fc1e3377bd","6407ce796ca61b34e7c00f5a","1272","617","","8629","","j","","","","","","","<img src=""media/stimuli/animate_002_left.png"" class=""coveredImage test"" style = ""width:100px; height:100px; position:fixed; top:10%;    transform: translate(-50%, -50%);left:44.5%""></img><img src=""media/stimuli/animate_002_left.png"" class=""coveredImage test"" style = ""width:100px; height:100px; position:fixed; top:10%;    transform: translate(-50%, -50%);left:51.5%""></img><img src=""media/stimuli/inanimate_011_left.png"" class=""coveredImage test"" style = ""width:100px; height:100px;position:fixed; top:25%;        transform: translate(-50%, -50%);left:34.5%""></img><img src=""media/stimuli/inanimate_011_left.png"" class=""coveredImage test"" style = ""width:100px; height:100px;position:fixed; top:25%;        transform: translate(-50%, -50%);left:41.5%""></img><img src=""media/stimuli/animate_010_left.png"" class=""coveredImage test"" style = ""width:100px; height:100px;position:fixed; top:25%;        transform: translate(-50%, -50%);left:54.5%""></img><img src=""media/stimuli/animate_010_left.png"" class=""coveredImage test"" style = ""width:100px; height:100px;position:fixed; top:25%;        transform: translate(-50%, -50%);left:61.5%""></img><img src=""media/f.png""style = ""width:30px x; height:30px;position:fixed; top:43%;    transform: translate(-50%, -50%);left:40%""></img><img src=""media/j.png""style = ""width:30px; height:30px;position:fixed; top:43%;    transform: translate(-50%, -50%);left:60%""></img>","media/stimuli/animate_002_left.png","animate","left","pair","media/stimuli/inanimate_011_left.png","inanimate","left","pair","media/stimuli/animate_010_left.png","animate","left","pair","animacy_identity"
"","","","","","html-keyboard-response","100","1858532","0.0-100.0","SS1678233248304","5ccc60abe787e000167f8143","6406d7f26dd5b7fc1e3377bd","6407ce796ca61b34e7c00f5a","1272","617","","2981","","j","","","","","","","<img src=""media/stimuli/animate_001_right.png"" class=""coveredImage test"" style = ""width:100px; height:100px; position:fixed; top:10%;    transform: translate(-50%, -50%);left:48%""></img><img src=""media/stimuli/inanimate_012_right.png"" class=""coveredImage test"" style = ""width:100px; height:100px;position:fixed; top:25%;        transform: translate(-50%, -50%);left:38%""></img><img src=""media/stimuli/animate_001_right.png"" class=""coveredImage test"" style = ""width:100px; height:100px;position:fixed; top:25%;        transform: translate(-50%, -50%);left:54.5%""></img><img src=""media/stimuli/animate_001_right.png"" class=""coveredImage test"" style = ""width:100px; height:100px;position:fixed; top:25%;        transform: translate(-50%, -50%);left:61.5%""></img><img src=""media/f.png""style = ""width:30px x; height:30px;position:fixed; top:43%;    transform: translate(-50%, -50%);left:40%""></img><img src=""media/j.png""style = ""width:30px; height:30px;position:fixed; top:43%;    transform: translate(-50%, -50%);left:60%""></img>","media/stimuli/animate_001_right.png","animate","right","single","media/stimuli/inanimate_012_right.png","inanimate","right","single","media/stimuli/animate_001_right.png","animate","right","pair","animacy_number"
"","","","","","html-keyboard-response","101","1859924","0.0-101.0","SS1678233248304","5ccc60abe787e000167f8143","6406d7f26dd5b7fc1e3377bd","6407ce796ca61b34e7c00f5a","1272","617","","1389","","j","","","","","","","<img src=""media/stimuli/animate_012_left.png"" class=""coveredImage test"" style = ""width:100px; height:100px; position:fixed; top:10%;    transform: translate(-50%, -50%);left:44.5%""></img><img src=""media/stimuli/animate_012_left.png"" class=""coveredImage test"" style = ""width:100px; height:100px; position:fixed; top:10%;    transform: translate(-50%, -50%);left:51.5%""></img><img src=""media/stimuli/animate_003_left.png"" class=""coveredImage test"" style = ""width:100px; height:100px;position:fixed; top:25%;        transform: translate(-50%, -50%);left:34.5%""></img><img src=""media/stimuli/animate_003_left.png"" class=""coveredImage test"" style = ""width:100px; height:100px;position:fixed; top:25%;        transform: translate(-50%, -50%);left:41.5%""></img><img src=""media/stimuli/animate_012_left.png"" class=""coveredImage test"" style = ""width:100px; height:100px;position:fixed; top:25%;        transform: translate(-50%, -50%);left:54.5%""></img><img src=""media/stimuli/animate_012_left.png"" class=""coveredImage test"" style = ""width:100px; height:100px;position:fixed; top:25%;        transform: translate(-50%, -50%);left:61.5%""></img><img src=""media/f.png""style = ""width:30px x; height:30px;position:fixed; top:43%;    transform: translate(-50%, -50%);left:40%""></img><img src=""media/j.png""style = ""width:30px; height:30px;position:fixed; top:43%;    transform: translate(-50%, -50%);left:60%""></img>","media/stimuli/animate_012_left.png","animate","left","pair","media/stimuli/animate_003_left.png","animate","left","pair","media/stimuli/animate_012_left.png","animate","left","pair","identity_filler"
"","","","","","html-keyboard-response","102","1866580","0.0-102.0","SS1678233248304","5ccc60abe787e000167f8143","6406d7f26dd5b7fc1e3377bd","6407ce796ca61b34e7c00f5a","1272","617","","6654","","f","","","","","","","<img src=""media/stimuli/inanimate_003_right.png"" class=""coveredImage test"" style = ""width:100px; height:100px; position:fixed; top:10%;    transform: translate(-50%, -50%);left:48%""></img><img src=""media/stimuli/inanimate_004_right.png"" class=""coveredImage test"" style = ""width:100px; height:100px;position:fixed; top:25%;        transform: translate(-50%, -50%);left:38%""></img><img src=""media/stimuli/animate_007_right.png"" class=""coveredImage test"" style = ""width:100px; height:100px;position:fixed; top:25%;        transform: translate(-50%, -50%);left:58%""></img><img src=""media/f.png""style = ""width:30px x; height:30px;position:fixed; top:43%;    transform: translate(-50%, -50%);left:40%""></img><img src=""media/j.png""style = ""width:30px; height:30px;position:fixed; top:43%;    transform: translate(-50%, -50%);left:60%""></img>","media/stimuli/inanimate_003_right.png","inanimate","right","single","media/stimuli/inanimate_004_right.png","inanimate","right","single","media/stimuli/animate_007_right.png","animate","right","single","identity_animacy"
"","","","","","html-keyboard-response","103","1869915","0.0-103.0","SS1678233248304","5ccc60abe787e000167f8143","6406d7f26dd5b7fc1e3377bd","6407ce796ca61b34e7c00f5a","1272","617","","3333","","f","","","","","","","<img src=""media/stimuli/animate_010_right.png"" class=""coveredImage test"" style = ""width:100px; height:100px; position:fixed; top:10%;    transform: translate(-50%, -50%);left:48%""></img><img src=""media/stimuli/animate_011_right.png"" class=""coveredImage test"" style = ""width:100px; height:100px;position:fixed; top:25%;        transform: translate(-50%, -50%);left:38%""></img><img src=""media/stimuli/animate_010_left.png"" class=""coveredImage test"" style = ""width:100px; height:100px;position:fixed; top:25%;        transform: translate(-50%, -50%);left:58%""></img><img src=""media/f.png""style = ""width:30px x; height:30px;position:fixed; top:43%;    transform: translate(-50%, -50%);left:40%""></img><img src=""media/j.png""style = ""width:30px; height:30px;position:fixed; top:43%;    transform: translate(-50%, -50%);left:60%""></img>","media/stimuli/animate_010_right.png","animate","right","single","media/stimuli/animate_011_right.png","animate","right","single","media/stimuli/animate_010_left.png","animate","left","single","identity_pose"
"","","","","","html-keyboard-response","104","1872195","0.0-104.0","SS1678233248304","5ccc60abe787e000167f8143","6406d7f26dd5b7fc1e3377bd","6407ce796ca61b34e7c00f5a","1272","617","","2278","","j","","","","","","","<img src=""media/stimuli/inanimate_007_left.png"" class=""coveredImage test"" style = ""width:100px; height:100px; position:fixed; top:10%;    transform: translate(-50%, -50%);left:48%""></img><img src=""media/stimuli/animate_005_right.png"" class=""coveredImage test"" style = ""width:100px; height:100px;position:fixed; top:25%;        transform: translate(-50%, -50%);left:38%""></img><img src=""media/stimuli/inanimate_007_left.png"" class=""coveredImage test"" style = ""width:100px; height:100px;position:fixed; top:25%;        transform: translate(-50%, -50%);left:58%""></img><img src=""media/f.png""style = ""width:30px x; height:30px;position:fixed; top:43%;    transform: translate(-50%, -50%);left:40%""></img><img src=""media/j.png""style = ""width:30px; height:30px;position:fixed; top:43%;    transform: translate(-50%, -50%);left:60%""></img>","media/stimuli/inanimate_007_left.png","inanimate","left","single","media/stimuli/animate_005_right.png","animate","right","single","media/stimuli/inanimate_007_left.png","inanimate","left","single","animacy_pose"
"","","","","","html-keyboard-response","105","1877731","0.0-105.0","SS1678233248304","5ccc60abe787e000167f8143","6406d7f26dd5b7fc1e3377bd","6407ce796ca61b34e7c00f5a","1272","617","","5534","","f","","","","","","","<img src=""media/stimuli/inanimate_010_left.png"" class=""coveredImage test"" style = ""width:100px; height:100px; position:fixed; top:10%;    transform: translate(-50%, -50%);left:44.5%""></img><img src=""media/stimuli/inanimate_010_left.png"" class=""coveredImage test"" style = ""width:100px; height:100px; position:fixed; top:10%;    transform: translate(-50%, -50%);left:51.5%""></img><img src=""media/stimuli/animate_004_left.png"" class=""coveredImage test"" style = ""width:100px; height:100px;position:fixed; top:25%;        transform: translate(-50%, -50%);left:34.5%""></img><img src=""media/stimuli/animate_004_left.png"" class=""coveredImage test"" style = ""width:100px; height:100px;position:fixed; top:25%;        transform: translate(-50%, -50%);left:41.5%""></img><img src=""media/stimuli/inanimate_003_left.png"" class=""coveredImage test"" style = ""width:100px; height:100px;position:fixed; top:25%;        transform: translate(-50%, -50%);left:54.5%""></img><img src=""media/stimuli/inanimate_003_left.png"" class=""coveredImage test"" style = ""width:100px; height:100px;position:fixed; top:25%;        transform: translate(-50%, -50%);left:61.5%""></img><img src=""media/f.png""style = ""width:30px x; height:30px;position:fixed; top:43%;    transform: translate(-50%, -50%);left:40%""></img><img src=""media/j.png""style = ""width:30px; height:30px;position:fixed; top:43%;    transform: translate(-50%, -50%);left:60%""></img>","media/stimuli/inanimate_010_left.png","inanimate","left","pair","media/stimuli/animate_004_left.png","animate","left","pair","media/stimuli/inanimate_003_left.png","inanimate","left","pair","animacy_identity"
"","","","","","html-keyboard-response","106","1883634","0.0-106.0","SS1678233248304","5ccc60abe787e000167f8143","6406d7f26dd5b7fc1e3377bd","6407ce796ca61b34e7c00f5a","1272","617","","5901","","j","","","","","","","<img src=""media/stimuli/animate_007_right.png"" class=""coveredImage test"" style = ""width:100px; height:100px; position:fixed; top:10%;    transform: translate(-50%, -50%);left:48%""></img><img src=""media/stimuli/animate_007_left.png"" class=""coveredImage test"" style = ""width:100px; height:100px;position:fixed; top:25%;        transform: translate(-50%, -50%);left:38%""></img><img src=""media/stimuli/animate_008_right.png"" class=""coveredImage test"" style = ""width:100px; height:100px;position:fixed; top:25%;        transform: translate(-50%, -50%);left:58%""></img><img src=""media/f.png""style = ""width:30px x; height:30px;position:fixed; top:43%;    transform: translate(-50%, -50%);left:40%""></img><img src=""media/j.png""style = ""width:30px; height:30px;position:fixed; top:43%;    transform: translate(-50%, -50%);left:60%""></img>","media/stimuli/animate_007_right.png","animate","right","single","media/stimuli/animate_007_left.png","animate","left","single","media/stimuli/animate_008_right.png","animate","right","single","pose_identity"
"","","","","","html-keyboard-response","107","1885106","0.0-107.0","SS1678233248304","5ccc60abe787e000167f8143","6406d7f26dd5b7fc1e3377bd","6407ce796ca61b34e7c00f5a","1272","617","","1470","","j","","","","","","","<img src=""media/stimuli/inanimate_003_left.png"" class=""coveredImage test"" style = ""width:100px; height:100px; position:fixed; top:10%;    transform: translate(-50%, -50%);left:44.5%""></img><img src=""media/stimuli/inanimate_003_left.png"" class=""coveredImage test"" style = ""width:100px; height:100px; position:fixed; top:10%;    transform: translate(-50%, -50%);left:51.5%""></img><img src=""media/stimuli/animate_012_left.png"" class=""coveredImage test"" style = ""width:100px; height:100px;position:fixed; top:25%;        transform: translate(-50%, -50%);left:34.5%""></img><img src=""media/stimuli/animate_012_left.png"" class=""coveredImage test"" style = ""width:100px; height:100px;position:fixed; top:25%;        transform: translate(-50%, -50%);left:41.5%""></img><img src=""media/stimuli/inanimate_003_left.png"" class=""coveredImage test"" style = ""width:100px; height:100px;position:fixed; top:25%;        transform: translate(-50%, -50%);left:58%""></img><img src=""media/f.png""style = ""width:30px x; height:30px;position:fixed; top:43%;    transform: translate(-50%, -50%);left:40%""></img><img src=""media/j.png""style = ""width:30px; height:30px;position:fixed; top:43%;    transform: translate(-50%, -50%);left:60%""></img>","media/stimuli/inanimate_003_left.png","inanimate","left","pair","media/stimuli/animate_012_left.png","animate","left","pair","media/stimuli/inanimate_003_left.png","inanimate","left","single","animacy_number"
"","","","","","html-keyboard-response","108","1887458","0.0-108.0","SS1678233248304","5ccc60abe787e000167f8143","6406d7f26dd5b7fc1e3377bd","6407ce796ca61b34e7c00f5a","1272","617","","2350","","j","","","","","","","<img src=""media/stimuli/animate_009_right.png"" class=""coveredImage test"" style = ""width:100px; height:100px; position:fixed; top:10%;    transform: translate(-50%, -50%);left:48%""></img><img src=""media/stimuli/animate_009_left.png"" class=""coveredImage test"" style = ""width:100px; height:100px;position:fixed; top:25%;        transform: translate(-50%, -50%);left:38%""></img><img src=""media/stimuli/animate_010_right.png"" class=""coveredImage test"" style = ""width:100px; height:100px;position:fixed; top:25%;        transform: translate(-50%, -50%);left:58%""></img><img src=""media/f.png""style = ""width:30px x; height:30px;position:fixed; top:43%;    transform: translate(-50%, -50%);left:40%""></img><img src=""media/j.png""style = ""width:30px; height:30px;position:fixed; top:43%;    transform: translate(-50%, -50%);left:60%""></img>","media/stimuli/animate_009_right.png","animate","right","single","media/stimuli/animate_009_left.png","animate","left","single","media/stimuli/animate_010_right.png","animate","right","single","pose_identity"
"","","","","","html-keyboard-response","109","1892930","0.0-109.0","SS1678233248304","5ccc60abe787e000167f8143","6406d7f26dd5b7fc1e3377bd","6407ce796ca61b34e7c00f5a","1272","617","","5470","","j","","","","","","","<img src=""media/stimuli/inanimate_009_right.png"" class=""coveredImage test"" style = ""width:100px; height:100px; position:fixed; top:10%;    transform: translate(-50%, -50%);left:44.5%""></img><img src=""media/stimuli/inanimate_009_right.png"" class=""coveredImage test"" style = ""width:100px; height:100px; position:fixed; top:10%;    transform: translate(-50%, -50%);left:51.5%""></img><img src=""media/stimuli/inanimate_009_left.png"" class=""coveredImage test"" style = ""width:100px; height:100px;position:fixed; top:25%;        transform: translate(-50%, -50%);left:34.5%""></img><img src=""media/stimuli/inanimate_009_left.png"" class=""coveredImage test"" style = ""width:100px; height:100px;position:fixed; top:25%;        transform: translate(-50%, -50%);left:41.5%""></img><img src=""media/stimuli/inanimate_005_right.png"" class=""coveredImage test"" style = ""width:100px; height:100px;position:fixed; top:25%;        transform: translate(-50%, -50%);left:54.5%""></img><img src=""media/stimuli/inanimate_005_right.png"" class=""coveredImage test"" style = ""width:100px; height:100px;position:fixed; top:25%;        transform: translate(-50%, -50%);left:61.5%""></img><img src=""media/f.png""style = ""width:30px x; height:30px;position:fixed; top:43%;    transform: translate(-50%, -50%);left:40%""></img><img src=""media/j.png""style = ""width:30px; height:30px;position:fixed; top:43%;    transform: translate(-50%, -50%);left:60%""></img>","media/stimuli/inanimate_009_right.png","inanimate","right","pair","media/stimuli/inanimate_009_left.png","inanimate","left","pair","media/stimuli/inanimate_005_right.png","inanimate","right","pair","pose_identity"
"","","","","","html-keyboard-response","110","1897273","0.0-110.0","SS1678233248304","5ccc60abe787e000167f8143","6406d7f26dd5b7fc1e3377bd","6407ce796ca61b34e7c00f5a","1272","617","","4342","","j","","","","","","","<img src=""media/stimuli/animate_007_right.png"" class=""coveredImage test"" style = ""width:100px; height:100px; position:fixed; top:10%;    transform: translate(-50%, -50%);left:48%""></img><img src=""media/stimuli/inanimate_001_right.png"" class=""coveredImage test"" style = ""width:100px; height:100px;position:fixed; top:25%;        transform: translate(-50%, -50%);left:38%""></img><img src=""media/stimuli/animate_007_right.png"" class=""coveredImage test"" style = ""width:100px; height:100px;position:fixed; top:25%;        transform: translate(-50%, -50%);left:54.5%""></img><img src=""media/stimuli/animate_007_right.png"" class=""coveredImage test"" style = ""width:100px; height:100px;position:fixed; top:25%;        transform: translate(-50%, -50%);left:61.5%""></img><img src=""media/f.png""style = ""width:30px x; height:30px;position:fixed; top:43%;    transform: translate(-50%, -50%);left:40%""></img><img src=""media/j.png""style = ""width:30px; height:30px;position:fixed; top:43%;    transform: translate(-50%, -50%);left:60%""></img>","media/stimuli/animate_007_right.png","animate","right","single","media/stimuli/inanimate_001_right.png","inanimate","right","single","media/stimuli/animate_007_right.png","animate","right","pair","animacy_number"
"","","","","","html-keyboard-response","111","1898129","0.0-111.0","SS1678233248304","5ccc60abe787e000167f8143","6406d7f26dd5b7fc1e3377bd","6407ce796ca61b34e7c00f5a","1272","617","","853",""," ","","","","","","","","","","","","","","","","","","","",""
"","","","","","html-keyboard-response","112","1903321","0.0-112.0","SS1678233248304","5ccc60abe787e000167f8143","6406d7f26dd5b7fc1e3377bd","6407ce796ca61b34e7c00f5a","1272","617","","5189","","f","","","","","","","<img src=""media/stimuli/animate_007_right.png"" class=""coveredImage test"" style = ""width:100px; height:100px; position:fixed; top:10%;    transform: translate(-50%, -50%);left:48%""></img><img src=""media/stimuli/animate_007_right.png"" class=""coveredImage test"" style = ""width:100px; height:100px;position:fixed; top:25%;        transform: translate(-50%, -50%);left:34.5%""></img><img src=""media/stimuli/animate_007_right.png"" class=""coveredImage test"" style = ""width:100px; height:100px;position:fixed; top:25%;        transform: translate(-50%, -50%);left:41.5%""></img><img src=""media/stimuli/animate_007_left.png"" class=""coveredImage test"" style = ""width:100px; height:100px;position:fixed; top:25%;        transform: translate(-50%, -50%);left:58%""></img><img src=""media/f.png""style = ""width:30px x; height:30px;position:fixed; top:43%;    transform: translate(-50%, -50%);left:40%""></img><img src=""media/j.png""style = ""width:30px; height:30px;position:fixed; top:43%;    transform: translate(-50%, -50%);left:60%""></img>","media/stimuli/animate_007_right.png","animate","right","single","media/stimuli/animate_007_right.png","animate","right","pair","media/stimuli/animate_007_left.png","animate","left","single","number_pose"
"","","","","","html-keyboard-response","113","1906601","0.0-113.0","SS1678233248304","5ccc60abe787e000167f8143","6406d7f26dd5b7fc1e3377bd","6407ce796ca61b34e7c00f5a","1272","617","","3277","","j","","","","","","","<img src=""media/stimuli/animate_005_left.png"" class=""coveredImage test"" style = ""width:100px; height:100px; position:fixed; top:10%;    transform: translate(-50%, -50%);left:44.5%""></img><img src=""media/stimuli/animate_005_left.png"" class=""coveredImage test"" style = ""width:100px; height:100px; position:fixed; top:10%;    transform: translate(-50%, -50%);left:51.5%""></img><img src=""media/stimuli/inanimate_003_left.png"" class=""coveredImage test"" style = ""width:100px; height:100px;position:fixed; top:25%;        transform: translate(-50%, -50%);left:34.5%""></img><img src=""media/stimuli/inanimate_003_left.png"" class=""coveredImage test"" style = ""width:100px; height:100px;position:fixed; top:25%;        transform: translate(-50%, -50%);left:41.5%""></img><img src=""media/stimuli/animate_005_left.png"" class=""coveredImage test"" style = ""width:100px; height:100px;position:fixed; top:25%;        transform: translate(-50%, -50%);left:58%""></img><img src=""media/f.png""style = ""width:30px x; height:30px;position:fixed; top:43%;    transform: translate(-50%, -50%);left:40%""></img><img src=""media/j.png""style = ""width:30px; height:30px;position:fixed; top:43%;    transform: translate(-50%, -50%);left:60%""></img>","media/stimuli/animate_005_left.png","animate","left","pair","media/stimuli/inanimate_003_left.png","inanimate","left","pair","media/stimuli/animate_005_left.png","animate","left","single","animacy_number"
"","","","","","html-keyboard-response","114","1911832","0.0-114.0","SS1678233248304","5ccc60abe787e000167f8143","6406d7f26dd5b7fc1e3377bd","6407ce796ca61b34e7c00f5a","1272","617","","5229","","f","","","","","","","<img src=""media/stimuli/inanimate_006_right.png"" class=""coveredImage test"" style = ""width:100px; height:100px; position:fixed; top:10%;    transform: translate(-50%, -50%);left:48%""></img><img src=""media/stimuli/inanimate_004_right.png"" class=""coveredImage test"" style = ""width:100px; height:100px;position:fixed; top:25%;        transform: translate(-50%, -50%);left:38%""></img><img src=""media/stimuli/inanimate_006_left.png"" class=""coveredImage test"" style = ""width:100px; height:100px;position:fixed; top:25%;        transform: translate(-50%, -50%);left:58%""></img><img src=""media/f.png""style = ""width:30px x; height:30px;position:fixed; top:43%;    transform: translate(-50%, -50%);left:40%""></img><img src=""media/j.png""style = ""width:30px; height:30px;position:fixed; top:43%;    transform: translate(-50%, -50%);left:60%""></img>","media/stimuli/inanimate_006_right.png","inanimate","right","single","media/stimuli/inanimate_004_right.png","inanimate","right","single","media/stimuli/inanimate_006_left.png","inanimate","left","single","identity_pose"
"","","","","","html-keyboard-response","115","1914785","0.0-115.0","SS1678233248304","5ccc60abe787e000167f8143","6406d7f26dd5b7fc1e3377bd","6407ce796ca61b34e7c00f5a","1272","617","","2950","","f","","","","","","","<img src=""media/stimuli/inanimate_003_right.png"" class=""coveredImage test"" style = ""width:100px; height:100px; position:fixed; top:10%;    transform: translate(-50%, -50%);left:44.5%""></img><img src=""media/stimuli/inanimate_003_right.png"" class=""coveredImage test"" style = ""width:100px; height:100px; position:fixed; top:10%;    transform: translate(-50%, -50%);left:51.5%""></img><img src=""media/stimuli/inanimate_003_right.png"" class=""coveredImage test"" style = ""width:100px; height:100px;position:fixed; top:25%;        transform: translate(-50%, -50%);left:38%""></img><img src=""media/stimuli/inanimate_003_left.png"" class=""coveredImage test"" style = ""width:100px; height:100px;position:fixed; top:25%;        transform: translate(-50%, -50%);left:54.5%""></img><img src=""media/stimuli/inanimate_003_left.png"" class=""coveredImage test"" style = ""width:100px; height:100px;position:fixed; top:25%;        transform: translate(-50%, -50%);left:61.5%""></img><img src=""media/f.png""style = ""width:30px x; height:30px;position:fixed; top:43%;    transform: translate(-50%, -50%);left:40%""></img><img src=""media/j.png""style = ""width:30px; height:30px;position:fixed; top:43%;    transform: translate(-50%, -50%);left:60%""></img>","media/stimuli/inanimate_003_right.png","inanimate","right","pair","media/stimuli/inanimate_003_right.png","inanimate","right","single","media/stimuli/inanimate_003_left.png","inanimate","left","pair","number_pose"
"","","","","","html-keyboard-response","116","1917056","0.0-116.0","SS1678233248304","5ccc60abe787e000167f8143","6406d7f26dd5b7fc1e3377bd","6407ce796ca61b34e7c00f5a","1272","617","","2269","","f","","","","","","","<img src=""media/stimuli/inanimate_010_right.png"" class=""coveredImage test"" style = ""width:100px; height:100px; position:fixed; top:10%;    transform: translate(-50%, -50%);left:44.5%""></img><img src=""media/stimuli/inanimate_010_right.png"" class=""coveredImage test"" style = ""width:100px; height:100px; position:fixed; top:10%;    transform: translate(-50%, -50%);left:51.5%""></img><img src=""media/stimuli/inanimate_010_right.png"" class=""coveredImage test"" style = ""width:100px; height:100px;position:fixed; top:25%;        transform: translate(-50%, -50%);left:38%""></img><img src=""media/stimuli/inanimate_003_right.png"" class=""coveredImage test"" style = ""width:100px; height:100px;position:fixed; top:25%;        transform: translate(-50%, -50%);left:54.5%""></img><img src=""media/stimuli/inanimate_003_right.png"" class=""coveredImage test"" style = ""width:100px; height:100px;position:fixed; top:25%;        transform: translate(-50%, -50%);left:61.5%""></img><img src=""media/f.png""style = ""width:30px x; height:30px;position:fixed; top:43%;    transform: translate(-50%, -50%);left:40%""></img><img src=""media/j.png""style = ""width:30px; height:30px;position:fixed; top:43%;    transform: translate(-50%, -50%);left:60%""></img>","media/stimuli/inanimate_010_right.png","inanimate","right","pair","media/stimuli/inanimate_010_right.png","inanimate","right","single","media/stimuli/inanimate_003_right.png","inanimate","right","pair","number_identity"
"","","","","","html-keyboard-response","117","1918552","0.0-117.0","SS1678233248304","5ccc60abe787e000167f8143","6406d7f26dd5b7fc1e3377bd","6407ce796ca61b34e7c00f5a","1272","617","","1493","","f","","","","","","","<img src=""media/stimuli/inanimate_005_right.png"" class=""coveredImage test"" style = ""width:100px; height:100px; position:fixed; top:10%;    transform: translate(-50%, -50%);left:48%""></img><img src=""media/stimuli/inanimate_005_right.png"" class=""coveredImage test"" style = ""width:100px; height:100px;position:fixed; top:25%;        transform: translate(-50%, -50%);left:38%""></img><img src=""media/stimuli/animate_010_right.png"" class=""coveredImage test"" style = ""width:100px; height:100px;position:fixed; top:25%;        transform: translate(-50%, -50%);left:58%""></img><img src=""media/f.png""style = ""width:30px x; height:30px;position:fixed; top:43%;    transform: translate(-50%, -50%);left:40%""></img><img src=""media/j.png""style = ""width:30px; height:30px;position:fixed; top:43%;    transform: translate(-50%, -50%);left:60%""></img>","media/stimuli/inanimate_005_right.png","inanimate","right","single","media/stimuli/inanimate_005_right.png","inanimate","right","single","media/stimuli/animate_010_right.png","animate","right","single","filler_animacy"
"","","","","","html-keyboard-response","118","1921472","0.0-118.0","SS1678233248304","5ccc60abe787e000167f8143","6406d7f26dd5b7fc1e3377bd","6407ce796ca61b34e7c00f5a","1272","617","","2917","","f","","","","","","","<img src=""media/stimuli/inanimate_010_left.png"" class=""coveredImage test"" style = ""width:100px; height:100px; position:fixed; top:10%;    transform: translate(-50%, -50%);left:48%""></img><img src=""media/stimuli/inanimate_010_left.png"" class=""coveredImage test"" style = ""width:100px; height:100px;position:fixed; top:25%;        transform: translate(-50%, -50%);left:34.5%""></img><img src=""media/stimuli/inanimate_010_left.png"" class=""coveredImage test"" style = ""width:100px; height:100px;position:fixed; top:25%;        transform: translate(-50%, -50%);left:41.5%""></img><img src=""media/stimuli/inanimate_010_right.png"" class=""coveredImage test"" style = ""width:100px; height:100px;position:fixed; top:25%;        transform: translate(-50%, -50%);left:58%""></img><img src=""media/f.png""style = ""width:30px x; height:30px;position:fixed; top:43%;    transform: translate(-50%, -50%);left:40%""></img><img src=""media/j.png""style = ""width:30px; height:30px;position:fixed; top:43%;    transform: translate(-50%, -50%);left:60%""></img>","media/stimuli/inanimate_010_left.png","inanimate","left","single","media/stimuli/inanimate_010_left.png","inanimate","left","pair","media/stimuli/inanimate_010_right.png","inanimate","right","single","number_pose"
"","","","","","html-keyboard-response","119","1923392","0.0-119.0","SS1678233248304","5ccc60abe787e000167f8143","6406d7f26dd5b7fc1e3377bd","6407ce796ca61b34e7c00f5a","1272","617","","1918","","j","","","","","","","<img src=""media/stimuli/animate_004_left.png"" class=""coveredImage test"" style = ""width:100px; height:100px; position:fixed; top:10%;    transform: translate(-50%, -50%);left:48%""></img><img src=""media/stimuli/inanimate_007_left.png"" class=""coveredImage test"" style = ""width:100px; height:100px;position:fixed; top:25%;        transform: translate(-50%, -50%);left:38%""></img><img src=""media/stimuli/animate_003_left.png"" class=""coveredImage test"" style = ""width:100px; height:100px;position:fixed; top:25%;        transform: translate(-50%, -50%);left:58%""></img><img src=""media/f.png""style = ""width:30px x; height:30px;position:fixed; top:43%;    transform: translate(-50%, -50%);left:40%""></img><img src=""media/j.png""style = ""width:30px; height:30px;position:fixed; top:43%;    transform: translate(-50%, -50%);left:60%""></img>","media/stimuli/animate_004_left.png","animate","left","single","media/stimuli/inanimate_007_left.png","inanimate","left","single","media/stimuli/animate_003_left.png","animate","left","single","animacy_identity"
"","","","","","html-keyboard-response","120","1927680","0.0-120.0","SS1678233248304","5ccc60abe787e000167f8143","6406d7f26dd5b7fc1e3377bd","6407ce796ca61b34e7c00f5a","1272","617","","4286","","f","","","","","","","<img src=""media/stimuli/inanimate_007_right.png"" class=""coveredImage test"" style = ""width:100px; height:100px; position:fixed; top:10%;    transform: translate(-50%, -50%);left:48%""></img><img src=""media/stimuli/inanimate_010_right.png"" class=""coveredImage test"" style = ""width:100px; height:100px;position:fixed; top:25%;        transform: translate(-50%, -50%);left:38%""></img><img src=""media/stimuli/inanimate_007_right.png"" class=""coveredImage test"" style = ""width:100px; height:100px;position:fixed; top:25%;        transform: translate(-50%, -50%);left:54.5%""></img><img src=""media/stimuli/inanimate_007_right.png"" class=""coveredImage test"" style = ""width:100px; height:100px;position:fixed; top:25%;        transform: translate(-50%, -50%);left:61.5%""></img><img src=""media/f.png""style = ""width:30px x; height:30px;position:fixed; top:43%;    transform: translate(-50%, -50%);left:40%""></img><img src=""media/j.png""style = ""width:30px; height:30px;position:fixed; top:43%;    transform: translate(-50%, -50%);left:60%""></img>","media/stimuli/inanimate_007_right.png","inanimate","right","single","media/stimuli/inanimate_010_right.png","inanimate","right","single","media/stimuli/inanimate_007_right.png","inanimate","right","pair","identity_number"
"","","","","","html-keyboard-response","121","1929743","0.0-121.0","SS1678233248304","5ccc60abe787e000167f8143","6406d7f26dd5b7fc1e3377bd","6407ce796ca61b34e7c00f5a","1272","617","","2061","","f","","","","","","","<img src=""media/stimuli/inanimate_007_right.png"" class=""coveredImage test"" style = ""width:100px; height:100px; position:fixed; top:10%;    transform: translate(-50%, -50%);left:48%""></img><img src=""media/stimuli/inanimate_007_right.png"" class=""coveredImage test"" style = ""width:100px; height:100px;position:fixed; top:25%;        transform: translate(-50%, -50%);left:34.5%""></img><img src=""media/stimuli/inanimate_007_right.png"" class=""coveredImage test"" style = ""width:100px; height:100px;position:fixed; top:25%;        transform: translate(-50%, -50%);left:41.5%""></img><img src=""media/stimuli/inanimate_007_left.png"" class=""coveredImage test"" style = ""width:100px; height:100px;position:fixed; top:25%;        transform: translate(-50%, -50%);left:58%""></img><img src=""media/f.png""style = ""width:30px x; height:30px;position:fixed; top:43%;    transform: translate(-50%, -50%);left:40%""></img><img src=""media/j.png""style = ""width:30px; height:30px;position:fixed; top:43%;    transform: translate(-50%, -50%);left:60%""></img>","media/stimuli/inanimate_007_right.png","inanimate","right","single","media/stimuli/inanimate_007_right.png","inanimate","right","pair","media/stimuli/inanimate_007_left.png","inanimate","left","single","number_pose"
"","","","","","html-keyboard-response","122","1931407","0.0-122.0","SS1678233248304","5ccc60abe787e000167f8143","6406d7f26dd5b7fc1e3377bd","6407ce796ca61b34e7c00f5a","1272","617","","1662","","j","","","","","","","<img src=""media/stimuli/inanimate_001_left.png"" class=""coveredImage test"" style = ""width:100px; height:100px; position:fixed; top:10%;    transform: translate(-50%, -50%);left:44.5%""></img><img src=""media/stimuli/inanimate_001_left.png"" class=""coveredImage test"" style = ""width:100px; height:100px; position:fixed; top:10%;    transform: translate(-50%, -50%);left:51.5%""></img><img src=""media/stimuli/inanimate_005_left.png"" class=""coveredImage test"" style = ""width:100px; height:100px;position:fixed; top:25%;        transform: translate(-50%, -50%);left:34.5%""></img><img src=""media/stimuli/inanimate_005_left.png"" class=""coveredImage test"" style = ""width:100px; height:100px;position:fixed; top:25%;        transform: translate(-50%, -50%);left:41.5%""></img><img src=""media/stimuli/inanimate_001_left.png"" class=""coveredImage test"" style = ""width:100px; height:100px;position:fixed; top:25%;        transform: translate(-50%, -50%);left:58%""></img><img src=""media/f.png""style = ""width:30px x; height:30px;position:fixed; top:43%;    transform: translate(-50%, -50%);left:40%""></img><img src=""media/j.png""style = ""width:30px; height:30px;position:fixed; top:43%;    transform: translate(-50%, -50%);left:60%""></img>","media/stimuli/inanimate_001_left.png","inanimate","left","pair","media/stimuli/inanimate_005_left.png","inanimate","left","pair","media/stimuli/inanimate_001_left.png","inanimate","left","single","identity_number"
"","","","","","html-keyboard-response","123","1933359","0.0-123.0","SS1678233248304","5ccc60abe787e000167f8143","6406d7f26dd5b7fc1e3377bd","6407ce796ca61b34e7c00f5a","1272","617","","1949","","j","","","","","","","<img src=""media/stimuli/inanimate_009_left.png"" class=""coveredImage test"" style = ""width:100px; height:100px; position:fixed; top:10%;    transform: translate(-50%, -50%);left:44.5%""></img><img src=""media/stimuli/inanimate_009_left.png"" class=""coveredImage test"" style = ""width:100px; height:100px; position:fixed; top:10%;    transform: translate(-50%, -50%);left:51.5%""></img><img src=""media/stimuli/inanimate_009_right.png"" class=""coveredImage test"" style = ""width:100px; height:100px;position:fixed; top:25%;        transform: translate(-50%, -50%);left:38%""></img><img src=""media/stimuli/animate_002_left.png"" class=""coveredImage test"" style = ""width:100px; height:100px;position:fixed; top:25%;        transform: translate(-50%, -50%);left:58%""></img><img src=""media/f.png""style = ""width:30px x; height:30px;position:fixed; top:43%;    transform: translate(-50%, -50%);left:40%""></img><img src=""media/j.png""style = ""width:30px; height:30px;position:fixed; top:43%;    transform: translate(-50%, -50%);left:60%""></img>","media/stimuli/inanimate_009_left.png","inanimate","left","pair","media/stimuli/inanimate_009_right.png","inanimate","right","single","media/stimuli/animate_002_left.png","animate","left","single","pose_animacy"
"","","","","","html-keyboard-response","124","1934191","0.0-124.0","SS1678233248304","5ccc60abe787e000167f8143","6406d7f26dd5b7fc1e3377bd","6407ce796ca61b34e7c00f5a","1272","617","","830",""," ","","","","","","","","","","","","","","","","","","","",""
"","","","","","html-keyboard-response","125","1936055","0.0-125.0","SS1678233248304","5ccc60abe787e000167f8143","6406d7f26dd5b7fc1e3377bd","6407ce796ca61b34e7c00f5a","1272","617","","1862","","f","","","","","","","<img src=""media/stimuli/inanimate_008_left.png"" class=""coveredImage test"" style = ""width:100px; height:100px; position:fixed; top:10%;    transform: translate(-50%, -50%);left:48%""></img><img src=""media/stimuli/inanimate_005_left.png"" class=""coveredImage test"" style = ""width:100px; height:100px;position:fixed; top:25%;        transform: translate(-50%, -50%);left:38%""></img><img src=""media/stimuli/inanimate_008_right.png"" class=""coveredImage test"" style = ""width:100px; height:100px;position:fixed; top:25%;        transform: translate(-50%, -50%);left:58%""></img><img src=""media/f.png""style = ""width:30px x; height:30px;position:fixed; top:43%;    transform: translate(-50%, -50%);left:40%""></img><img src=""media/j.png""style = ""width:30px; height:30px;position:fixed; top:43%;    transform: translate(-50%, -50%);left:60%""></img>","media/stimuli/inanimate_008_left.png","inanimate","left","single","media/stimuli/inanimate_005_left.png","inanimate","left","single","media/stimuli/inanimate_008_right.png","inanimate","right","single","identity_pose"
"","","","","","html-keyboard-response","126","1937743","0.0-126.0","SS1678233248304","5ccc60abe787e000167f8143","6406d7f26dd5b7fc1e3377bd","6407ce796ca61b34e7c00f5a","1272","617","","1686","","f","","","","","","","<img src=""media/stimuli/inanimate_005_left.png"" class=""coveredImage test"" style = ""width:100px; height:100px; position:fixed; top:10%;    transform: translate(-50%, -50%);left:48%""></img><img src=""media/stimuli/inanimate_002_left.png"" class=""coveredImage test"" style = ""width:100px; height:100px;position:fixed; top:25%;        transform: translate(-50%, -50%);left:38%""></img><img src=""media/stimuli/inanimate_005_right.png"" class=""coveredImage test"" style = ""width:100px; height:100px;position:fixed; top:25%;        transform: translate(-50%, -50%);left:58%""></img><img src=""media/f.png""style = ""width:30px x; height:30px;position:fixed; top:43%;    transform: translate(-50%, -50%);left:40%""></img><img src=""media/j.png""style = ""width:30px; height:30px;position:fixed; top:43%;    transform: translate(-50%, -50%);left:60%""></img>","media/stimuli/inanimate_005_left.png","inanimate","left","single","media/stimuli/inanimate_002_left.png","inanimate","left","single","media/stimuli/inanimate_005_right.png","inanimate","right","single","identity_pose"
"","","","","","html-keyboard-response","127","1938959","0.0-127.0","SS1678233248304","5ccc60abe787e000167f8143","6406d7f26dd5b7fc1e3377bd","6407ce796ca61b34e7c00f5a","1272","617","","1213","","j","","","","","","","<img src=""media/stimuli/inanimate_001_right.png"" class=""coveredImage test"" style = ""width:100px; height:100px; position:fixed; top:10%;    transform: translate(-50%, -50%);left:44.5%""></img><img src=""media/stimuli/inanimate_001_right.png"" class=""coveredImage test"" style = ""width:100px; height:100px; position:fixed; top:10%;    transform: translate(-50%, -50%);left:51.5%""></img><img src=""media/stimuli/animate_003_right.png"" class=""coveredImage test"" style = ""width:100px; height:100px;position:fixed; top:25%;        transform: translate(-50%, -50%);left:34.5%""></img><img src=""media/stimuli/animate_003_right.png"" class=""coveredImage test"" style = ""width:100px; height:100px;position:fixed; top:25%;        transform: translate(-50%, -50%);left:41.5%""></img><img src=""media/stimuli/inanimate_001_right.png"" class=""coveredImage test"" style = ""width:100px; height:100px;position:fixed; top:25%;        transform: translate(-50%, -50%);left:58%""></img><img src=""media/f.png""style = ""width:30px x; height:30px;position:fixed; top:43%;    transform: translate(-50%, -50%);left:40%""></img><img src=""media/j.png""style = ""width:30px; height:30px;position:fixed; top:43%;    transform: translate(-50%, -50%);left:60%""></img>","media/stimuli/inanimate_001_right.png","inanimate","right","pair","media/stimuli/animate_003_right.png","animate","right","pair","media/stimuli/inanimate_001_right.png","inanimate","right","single","animacy_number"
"","","","","","html-keyboard-response","128","1944046","0.0-128.0","SS1678233248304","5ccc60abe787e000167f8143","6406d7f26dd5b7fc1e3377bd","6407ce796ca61b34e7c00f5a","1272","617","","5085","","f","","","","","","","<img src=""media/stimuli/inanimate_003_left.png"" class=""coveredImage test"" style = ""width:100px; height:100px; position:fixed; top:10%;    transform: translate(-50%, -50%);left:48%""></img><img src=""media/stimuli/animate_005_left.png"" class=""coveredImage test"" style = ""width:100px; height:100px;position:fixed; top:25%;        transform: translate(-50%, -50%);left:38%""></img><img src=""media/stimuli/inanimate_003_right.png"" class=""coveredImage test"" style = ""width:100px; height:100px;position:fixed; top:25%;        transform: translate(-50%, -50%);left:58%""></img><img src=""media/f.png""style = ""width:30px x; height:30px;position:fixed; top:43%;    transform: translate(-50%, -50%);left:40%""></img><img src=""media/j.png""style = ""width:30px; height:30px;position:fixed; top:43%;    transform: translate(-50%, -50%);left:60%""></img>","media/stimuli/inanimate_003_left.png","inanimate","left","single","media/stimuli/animate_005_left.png","animate","left","single","media/stimuli/inanimate_003_right.png","inanimate","right","single","animacy_pose"
"","","","","","html-keyboard-response","129","1948502","0.0-129.0","SS1678233248304","5ccc60abe787e000167f8143","6406d7f26dd5b7fc1e3377bd","6407ce796ca61b34e7c00f5a","1272","617","","4453","","j","","","","","","","<img src=""media/stimuli/animate_001_right.png"" class=""coveredImage test"" style = ""width:100px; height:100px; position:fixed; top:10%;    transform: translate(-50%, -50%);left:48%""></img><img src=""media/stimuli/inanimate_001_right.png"" class=""coveredImage test"" style = ""width:100px; height:100px;position:fixed; top:25%;        transform: translate(-50%, -50%);left:38%""></img><img src=""media/stimuli/animate_001_right.png"" class=""coveredImage test"" style = ""width:100px; height:100px;position:fixed; top:25%;        transform: translate(-50%, -50%);left:54.5%""></img><img src=""media/stimuli/animate_001_right.png"" class=""coveredImage test"" style = ""width:100px; height:100px;position:fixed; top:25%;        transform: translate(-50%, -50%);left:61.5%""></img><img src=""media/f.png""style = ""width:30px x; height:30px;position:fixed; top:43%;    transform: translate(-50%, -50%);left:40%""></img><img src=""media/j.png""style = ""width:30px; height:30px;position:fixed; top:43%;    transform: translate(-50%, -50%);left:60%""></img>","media/stimuli/animate_001_right.png","animate","right","single","media/stimuli/inanimate_001_right.png","inanimate","right","single","media/stimuli/animate_001_right.png","animate","right","pair","animacy_number"
"","","","","","html-keyboard-response","130","1950790","0.0-130.0","SS1678233248304","5ccc60abe787e000167f8143","6406d7f26dd5b7fc1e3377bd","6407ce796ca61b34e7c00f5a","1272","617","","2285","","f","","","","","","","<img src=""media/stimuli/animate_005_left.png"" class=""coveredImage test"" style = ""width:100px; height:100px; position:fixed; top:10%;    transform: translate(-50%, -50%);left:44.5%""></img><img src=""media/stimuli/animate_005_left.png"" class=""coveredImage test"" style = ""width:100px; height:100px; position:fixed; top:10%;    transform: translate(-50%, -50%);left:51.5%""></img><img src=""media/stimuli/animate_005_left.png"" class=""coveredImage test"" style = ""width:100px; height:100px;position:fixed; top:25%;        transform: translate(-50%, -50%);left:38%""></img><img src=""media/stimuli/inanimate_011_left.png"" class=""coveredImage test"" style = ""width:100px; height:100px;position:fixed; top:25%;        transform: translate(-50%, -50%);left:54.5%""></img><img src=""media/stimuli/inanimate_011_left.png"" class=""coveredImage test"" style = ""width:100px; height:100px;position:fixed; top:25%;        transform: translate(-50%, -50%);left:61.5%""></img><img src=""media/f.png""style = ""width:30px x; height:30px;position:fixed; top:43%;    transform: translate(-50%, -50%);left:40%""></img><img src=""media/j.png""style = ""width:30px; height:30px;position:fixed; top:43%;    transform: translate(-50%, -50%);left:60%""></img>","media/stimuli/animate_005_left.png","animate","left","pair","media/stimuli/animate_005_left.png","animate","left","single","media/stimuli/inanimate_011_left.png","inanimate","left","pair","number_animacy"
"","","","","","html-keyboard-response","131","1954341","0.0-131.0","SS1678233248304","5ccc60abe787e000167f8143","6406d7f26dd5b7fc1e3377bd","6407ce796ca61b34e7c00f5a","1272","617","","3549","","j","","","","","","","<img src=""media/stimuli/inanimate_007_right.png"" class=""coveredImage test"" style = ""width:100px; height:100px; position:fixed; top:10%;    transform: translate(-50%, -50%);left:44.5%""></img><img src=""media/stimuli/inanimate_007_right.png"" class=""coveredImage test"" style = ""width:100px; height:100px; position:fixed; top:10%;    transform: translate(-50%, -50%);left:51.5%""></img><img src=""media/stimuli/inanimate_007_left.png"" class=""coveredImage test"" style = ""width:100px; height:100px;position:fixed; top:25%;        transform: translate(-50%, -50%);left:34.5%""></img><img src=""media/stimuli/inanimate_007_left.png"" class=""coveredImage test"" style = ""width:100px; height:100px;position:fixed; top:25%;        transform: translate(-50%, -50%);left:41.5%""></img><img src=""media/stimuli/inanimate_012_right.png"" class=""coveredImage test"" style = ""width:100px; height:100px;position:fixed; top:25%;        transform: translate(-50%, -50%);left:54.5%""></img><img src=""media/stimuli/inanimate_012_right.png"" class=""coveredImage test"" style = ""width:100px; height:100px;position:fixed; top:25%;        transform: translate(-50%, -50%);left:61.5%""></img><img src=""media/f.png""style = ""width:30px x; height:30px;position:fixed; top:43%;    transform: translate(-50%, -50%);left:40%""></img><img src=""media/j.png""style = ""width:30px; height:30px;position:fixed; top:43%;    transform: translate(-50%, -50%);left:60%""></img>","media/stimuli/inanimate_007_right.png","inanimate","right","pair","media/stimuli/inanimate_007_left.png","inanimate","left","pair","media/stimuli/inanimate_012_right.png","inanimate","right","pair","pose_identity"
"","","","","","html-keyboard-response","132","1957621","0.0-132.0","SS1678233248304","5ccc60abe787e000167f8143","6406d7f26dd5b7fc1e3377bd","6407ce796ca61b34e7c00f5a","1272","617","","3277","","j","","","","","","","<img src=""media/stimuli/animate_007_left.png"" class=""coveredImage test"" style = ""width:100px; height:100px; position:fixed; top:10%;    transform: translate(-50%, -50%);left:44.5%""></img><img src=""media/stimuli/animate_007_left.png"" class=""coveredImage test"" style = ""width:100px; height:100px; position:fixed; top:10%;    transform: translate(-50%, -50%);left:51.5%""></img><img src=""media/stimuli/inanimate_007_left.png"" class=""coveredImage test"" style = ""width:100px; height:100px;position:fixed; top:25%;        transform: translate(-50%, -50%);left:34.5%""></img><img src=""media/stimuli/inanimate_007_left.png"" class=""coveredImage test"" style = ""width:100px; height:100px;position:fixed; top:25%;        transform: translate(-50%, -50%);left:41.5%""></img><img src=""media/stimuli/animate_001_left.png"" class=""coveredImage test"" style = ""width:100px; height:100px;position:fixed; top:25%;        transform: translate(-50%, -50%);left:54.5%""></img><img src=""media/stimuli/animate_001_left.png"" class=""coveredImage test"" style = ""width:100px; height:100px;position:fixed; top:25%;        transform: translate(-50%, -50%);left:61.5%""></img><img src=""media/f.png""style = ""width:30px x; height:30px;position:fixed; top:43%;    transform: translate(-50%, -50%);left:40%""></img><img src=""media/j.png""style = ""width:30px; height:30px;position:fixed; top:43%;    transform: translate(-50%, -50%);left:60%""></img>","media/stimuli/animate_007_left.png","animate","left","pair","media/stimuli/inanimate_007_left.png","inanimate","left","pair","media/stimuli/animate_001_left.png","animate","left","pair","animacy_identity"
"","","","","","html-keyboard-response","133","1959973","0.0-133.0","SS1678233248304","5ccc60abe787e000167f8143","6406d7f26dd5b7fc1e3377bd","6407ce796ca61b34e7c00f5a","1272","617","","2349","","f","","","","","","","<img src=""media/stimuli/inanimate_007_right.png"" class=""coveredImage test"" style = ""width:100px; height:100px; position:fixed; top:10%;    transform: translate(-50%, -50%);left:44.5%""></img><img src=""media/stimuli/inanimate_007_right.png"" class=""coveredImage test"" style = ""width:100px; height:100px; position:fixed; top:10%;    transform: translate(-50%, -50%);left:51.5%""></img><img src=""media/stimuli/inanimate_004_right.png"" class=""coveredImage test"" style = ""width:100px; height:100px;position:fixed; top:25%;        transform: translate(-50%, -50%);left:34.5%""></img><img src=""media/stimuli/inanimate_004_right.png"" class=""coveredImage test"" style = ""width:100px; height:100px;position:fixed; top:25%;        transform: translate(-50%, -50%);left:41.5%""></img><img src=""media/stimuli/inanimate_007_left.png"" class=""coveredImage test"" style = ""width:100px; height:100px;position:fixed; top:25%;        transform: translate(-50%, -50%);left:54.5%""></img><img src=""media/stimuli/inanimate_007_left.png"" class=""coveredImage test"" style = ""width:100px; height:100px;position:fixed; top:25%;        transform: translate(-50%, -50%);left:61.5%""></img><img src=""media/f.png""style = ""width:30px x; height:30px;position:fixed; top:43%;    transform: translate(-50%, -50%);left:40%""></img><img src=""media/j.png""style = ""width:30px; height:30px;position:fixed; top:43%;    transform: translate(-50%, -50%);left:60%""></img>","media/stimuli/inanimate_007_right.png","inanimate","right","pair","media/stimuli/inanimate_004_right.png","inanimate","right","pair","media/stimuli/inanimate_007_left.png","inanimate","left","pair","identity_pose"
"","","","","","html-keyboard-response","134","1962037","0.0-134.0","SS1678233248304","5ccc60abe787e000167f8143","6406d7f26dd5b7fc1e3377bd","6407ce796ca61b34e7c00f5a","1272","617","","2061","","f","","","","","","","<img src=""media/stimuli/inanimate_008_right.png"" class=""coveredImage test"" style = ""width:100px; height:100px; position:fixed; top:10%;    transform: translate(-50%, -50%);left:48%""></img><img src=""media/stimuli/inanimate_008_right.png"" class=""coveredImage test"" style = ""width:100px; height:100px;position:fixed; top:25%;        transform: translate(-50%, -50%);left:34.5%""></img><img src=""media/stimuli/inanimate_008_right.png"" class=""coveredImage test"" style = ""width:100px; height:100px;position:fixed; top:25%;        transform: translate(-50%, -50%);left:41.5%""></img><img src=""media/stimuli/animate_006_right.png"" class=""coveredImage test"" style = ""width:100px; height:100px;position:fixed; top:25%;        transform: translate(-50%, -50%);left:58%""></img><img src=""media/f.png""style = ""width:30px x; height:30px;position:fixed; top:43%;    transform: translate(-50%, -50%);left:40%""></img><img src=""media/j.png""style = ""width:30px; height:30px;position:fixed; top:43%;    transform: translate(-50%, -50%);left:60%""></img>","media/stimuli/inanimate_008_right.png","inanimate","right","single","media/stimuli/inanimate_008_right.png","inanimate","right","pair","media/stimuli/animate_006_right.png","animate","right","single","number_animacy"
