"success","timeout","failed_images","failed_audio","failed_video","trial_type","trial_index","time_elapsed","internal_node_id","subject","prolific_id","study","session","window_width","window_height","view_history","rt","stimulus_type","response","question_order","rating_type","rating_stimulus","rating_animacy","rating_number","rating_pose","stimulus","target","target_animacy","target_pose","target_number","left","left_animacy","left_pose","left_number","right","right_animacy","right_pose","right_number","comparison_type"
"true","false","[]","[]","[]","preload","0","4300","0.0-0.0","SS1678233198223","5baa535fa3c9170001156197","6406d7f26dd5b7fc1e3377bd","6407ce62a1290db6e721459c","1210","849","","","","","","","","","","","","","","","","","","","","","","","",""
"","","","","","instructions","1","33206","0.0-1.0","SS1678233198223","5baa535fa3c9170001156197","6406d7f26dd5b7fc1e3377bd","6407ce62a1290db6e721459c","1210","849","[{""page_index"":0,""viewing_time"":28904}]","28904","","","","","","","","","","","","","","","","","","","","","",""
"","","","","","instructions","2","109220","0.0-2.0","SS1678233198223","5baa535fa3c9170001156197","6406d7f26dd5b7fc1e3377bd","6407ce62a1290db6e721459c","1210","849","[{""page_index"":0,""viewing_time"":74006}]","74006","instructions","","","","","","","","","","","","","","","","","","","","",""
"","","","","","instructions","3","122084","0.0-3.0","SS1678233198223","5baa535fa3c9170001156197","6406d7f26dd5b7fc1e3377bd","6407ce62a1290db6e721459c","1210","849","[{""page_index"":0,""viewing_time"":12860}]","12860","instructions","","","","","","","","","","","","","","","","","","","","",""
"","","","","","survey-likert","4","139242","0.0-4.0","SS1678233198223","5baa535fa3c9170001156197","6406d7f26dd5b7fc1e3377bd","6407ce62a1290db6e721459c","1210","849","","17156","","{""Q0"":5}","[0]","anchoring","","","","","","","","","","","","","","","","","",""
"","","","","","survey-likert","5","145585","0.0-5.0","SS1678233198223","5baa535fa3c9170001156197","6406d7f26dd5b7fc1e3377bd","6407ce62a1290db6e721459c","1210","849","","6342","","{""Q0"":1}","[0]","anchoring","","","","","","","","","","","","","","","","","",""
"","","","","","instructions","6","153680","0.0-6.0","SS1678233198223","5baa535fa3c9170001156197","6406d7f26dd5b7fc1e3377bd","6407ce62a1290db6e721459c","1210","849","[{""page_index"":0,""viewing_time"":8094}]","8094","instructions","","","","","","","","","","","","","","","","","","","","",""
"true","","","","","fullscreen","7","158328","0.0-7.0","SS1678233198223","5baa535fa3c9170001156197","6406d7f26dd5b7fc1e3377bd","6407ce62a1290db6e721459c","1210","849","","","","","","","","","","","","","","","","","","","","","","","",""
"","","","","","survey-likert","8","166866","0.0-8.0","SS1678233198223","5baa535fa3c9170001156197","6406d7f26dd5b7fc1e3377bd","6407ce62a1290db6e721459c","1210","849","","8534","","{""Q0"":2}","[0]","complexity","media/stimuli/animate_005_right.png","animate","pair","right","","","","","","","","","","","","","",""
"","","","","","survey-likert","9","173913","0.0-9.0","SS1678233198223","5baa535fa3c9170001156197","6406d7f26dd5b7fc1e3377bd","6407ce62a1290db6e721459c","1210","849","","7045","","{""Q0"":3}","[0]","complexity","media/stimuli/animate_008_right.png","animate","pair","right","","","","","","","","","","","","","",""
"","","","","","survey-likert","10","179818","0.0-10.0","SS1678233198223","5baa535fa3c9170001156197","6406d7f26dd5b7fc1e3377bd","6407ce62a1290db6e721459c","1210","849","","5902","","{""Q0"":1}","[0]","complexity","media/stimuli/inanimate_012_right.png","inanimate","single","right","","","","","","","","","","","","","",""
"","","","","","survey-likert","11","185056","0.0-11.0","SS1678233198223","5baa535fa3c9170001156197","6406d7f26dd5b7fc1e3377bd","6407ce62a1290db6e721459c","1210","849","","5237","","{""Q0"":1}","[0]","complexity","media/stimuli/animate_010_right.png","animate","single","right","","","","","","","","","","","","","",""
"","","","","","survey-likert","12","193684","0.0-12.0","SS1678233198223","5baa535fa3c9170001156197","6406d7f26dd5b7fc1e3377bd","6407ce62a1290db6e721459c","1210","849","","8625","","{""Q0"":2}","[0]","complexity","media/stimuli/inanimate_003_left.png","inanimate","pair","left","","","","","","","","","","","","","",""
"","","","","","survey-likert","13","196376","0.0-13.0","SS1678233198223","5baa535fa3c9170001156197","6406d7f26dd5b7fc1e3377bd","6407ce62a1290db6e721459c","1210","849","","2690","","{""Q0"":2}","[0]","complexity","media/stimuli/animate_006_right.png","animate","pair","right","","","","","","","","","","","","","",""
"","","","","","survey-likert","14","200972","0.0-14.0","SS1678233198223","5baa535fa3c9170001156197","6406d7f26dd5b7fc1e3377bd","6407ce62a1290db6e721459c","1210","849","","4593","","{""Q0"":2}","[0]","complexity","media/stimuli/animate_003_left.png","animate","single","left","","","","","","","","","","","","","",""
"","","","","","survey-likert","15","204583","0.0-15.0","SS1678233198223","5baa535fa3c9170001156197","6406d7f26dd5b7fc1e3377bd","6407ce62a1290db6e721459c","1210","849","","3609","","{""Q0"":0}","[0]","complexity","media/stimuli/inanimate_005_right.png","inanimate","single","right","","","","","","","","","","","","","",""
"","","","","","survey-likert","16","208222","0.0-16.0","SS1678233198223","5baa535fa3c9170001156197","6406d7f26dd5b7fc1e3377bd","6407ce62a1290db6e721459c","1210","849","","3637","","{""Q0"":2}","[0]","complexity","media/stimuli/inanimate_008_right.png","inanimate","pair","right","","","","","","","","","","","","","",""
"","","","","","survey-likert","17","212152","0.0-17.0","SS1678233198223","5baa535fa3c9170001156197","6406d7f26dd5b7fc1e3377bd","6407ce62a1290db6e721459c","1210","849","","3928","","{""Q0"":2}","[0]","complexity","media/stimuli/inanimate_012_left.png","inanimate","pair","left","","","","","","","","","","","","","",""
"","","","","","survey-likert","18","215340","0.0-18.0","SS1678233198223","5baa535fa3c9170001156197","6406d7f26dd5b7fc1e3377bd","6407ce62a1290db6e721459c","1210","849","","3186","","{""Q0"":1}","[0]","complexity","media/stimuli/inanimate_003_left.png","inanimate","single","left","","","","","","","","","","","","","",""
"","","","","","survey-likert","19","221399","0.0-19.0","SS1678233198223","5baa535fa3c9170001156197","6406d7f26dd5b7fc1e3377bd","6407ce62a1290db6e721459c","1210","849","","6057","","{""Q0"":3}","[0]","complexity","media/stimuli/animate_001_left.png","animate","pair","left","","","","","","","","","","","","","",""
"","","","","","html-keyboard-response","20","227130","0.0-20.0","SS1678233198223","5baa535fa3c9170001156197","6406d7f26dd5b7fc1e3377bd","6407ce62a1290db6e721459c","1210","849","","5728","","f","","","","","","","","","","","","","","","","","","","",""
"","","","","","survey-likert","21","232855","0.0-21.0","SS1678233198223","5baa535fa3c9170001156197","6406d7f26dd5b7fc1e3377bd","6407ce62a1290db6e721459c","1210","849","","5723","","{""Q0"":1}","[0]","complexity","media/stimuli/inanimate_009_right.png","inanimate","pair","right","","","","","","","","","","","","","",""
"","","","","","survey-likert","22","236252","0.0-22.0","SS1678233198223","5baa535fa3c9170001156197","6406d7f26dd5b7fc1e3377bd","6407ce62a1290db6e721459c","1210","849","","3397","","{""Q0"":1}","[0]","complexity","media/stimuli/inanimate_006_right.png","inanimate","single","right","","","","","","","","","","","","","",""
"","","","","","survey-likert","23","238971","0.0-23.0","SS1678233198223","5baa535fa3c9170001156197","6406d7f26dd5b7fc1e3377bd","6407ce62a1290db6e721459c","1210","849","","2716","","{""Q0"":2}","[0]","complexity","media/stimuli/inanimate_001_right.png","inanimate","pair","right","","","","","","","","","","","","","",""
"","","","","","survey-likert","24","241930","0.0-24.0","SS1678233198223","5baa535fa3c9170001156197","6406d7f26dd5b7fc1e3377bd","6407ce62a1290db6e721459c","1210","849","","2956","","{""Q0"":1}","[0]","complexity","media/stimuli/inanimate_007_left.png","inanimate","single","left","","","","","","","","","","","","","",""
"","","","","","survey-likert","25","245415","0.0-25.0","SS1678233198223","5baa535fa3c9170001156197","6406d7f26dd5b7fc1e3377bd","6407ce62a1290db6e721459c","1210","849","","3482","","{""Q0"":2}","[0]","complexity","media/stimuli/animate_012_left.png","animate","pair","left","","","","","","","","","","","","","",""
"","","","","","survey-likert","26","248020","0.0-26.0","SS1678233198223","5baa535fa3c9170001156197","6406d7f26dd5b7fc1e3377bd","6407ce62a1290db6e721459c","1210","849","","2603","","{""Q0"":1}","[0]","complexity","media/stimuli/animate_010_left.png","animate","single","left","","","","","","","","","","","","","",""
"","","","","","survey-likert","27","250683","0.0-27.0","SS1678233198223","5baa535fa3c9170001156197","6406d7f26dd5b7fc1e3377bd","6407ce62a1290db6e721459c","1210","849","","2662","","{""Q0"":1}","[0]","complexity","media/stimuli/inanimate_008_right.png","inanimate","single","right","","","","","","","","","","","","","",""
"","","","","","survey-likert","28","253297","0.0-28.0","SS1678233198223","5baa535fa3c9170001156197","6406d7f26dd5b7fc1e3377bd","6407ce62a1290db6e721459c","1210","849","","2612","","{""Q0"":2}","[0]","complexity","media/stimuli/animate_012_right.png","animate","pair","right","","","","","","","","","","","","","",""
"","","","","","survey-likert","29","257718","0.0-29.0","SS1678233198223","5baa535fa3c9170001156197","6406d7f26dd5b7fc1e3377bd","6407ce62a1290db6e721459c","1210","849","","4418","","{""Q0"":2}","[0]","complexity","media/stimuli/inanimate_012_right.png","inanimate","pair","right","","","","","","","","","","","","","",""
"","","","","","survey-likert","30","260639","0.0-30.0","SS1678233198223","5baa535fa3c9170001156197","6406d7f26dd5b7fc1e3377bd","6407ce62a1290db6e721459c","1210","849","","2920","","{""Q0"":1}","[0]","complexity","media/stimuli/inanimate_010_right.png","inanimate","single","right","","","","","","","","","","","","","",""
"","","","","","survey-likert","31","263583","0.0-31.0","SS1678233198223","5baa535fa3c9170001156197","6406d7f26dd5b7fc1e3377bd","6407ce62a1290db6e721459c","1210","849","","2941","","{""Q0"":1}","[0]","complexity","media/stimuli/animate_003_right.png","animate","single","right","","","","","","","","","","","","","",""
"","","","","","survey-likert","32","266057","0.0-32.0","SS1678233198223","5baa535fa3c9170001156197","6406d7f26dd5b7fc1e3377bd","6407ce62a1290db6e721459c","1210","849","","2472","","{""Q0"":2}","[0]","complexity","media/stimuli/animate_007_left.png","animate","pair","left","","","","","","","","","","","","","",""
"","","","","","html-keyboard-response","33","268610","0.0-33.0","SS1678233198223","5baa535fa3c9170001156197","6406d7f26dd5b7fc1e3377bd","6407ce62a1290db6e721459c","1210","849","","2552","","w","","","","","","","","","","","","","","","","","","","",""
"","","","","","survey-likert","34","272775","0.0-34.0","SS1678233198223","5baa535fa3c9170001156197","6406d7f26dd5b7fc1e3377bd","6407ce62a1290db6e721459c","1210","849","","4163","","{""Q0"":1}","[0]","complexity","media/stimuli/inanimate_005_right.png","inanimate","pair","right","","","","","","","","","","","","","",""
"","","","","","survey-likert","35","275626","0.0-35.0","SS1678233198223","5baa535fa3c9170001156197","6406d7f26dd5b7fc1e3377bd","6407ce62a1290db6e721459c","1210","849","","2850","","{""Q0"":1}","[0]","complexity","media/stimuli/inanimate_012_left.png","inanimate","single","left","","","","","","","","","","","","","",""
"","","","","","survey-likert","36","278687","0.0-36.0","SS1678233198223","5baa535fa3c9170001156197","6406d7f26dd5b7fc1e3377bd","6407ce62a1290db6e721459c","1210","849","","3058","","{""Q0"":1}","[0]","complexity","media/stimuli/animate_002_right.png","animate","single","right","","","","","","","","","","","","","",""
"","","","","","survey-likert","37","281224","0.0-37.0","SS1678233198223","5baa535fa3c9170001156197","6406d7f26dd5b7fc1e3377bd","6407ce62a1290db6e721459c","1210","849","","2534","","{""Q0"":2}","[0]","complexity","media/stimuli/inanimate_006_left.png","inanimate","pair","left","","","","","","","","","","","","","",""
"","","","","","survey-likert","38","283766","0.0-38.0","SS1678233198223","5baa535fa3c9170001156197","6406d7f26dd5b7fc1e3377bd","6407ce62a1290db6e721459c","1210","849","","2542","","{""Q0"":2}","[0]","complexity","media/stimuli/animate_009_right.png","animate","pair","right","","","","","","","","","","","","","",""
"","","","","","survey-likert","39","286367","0.0-39.0","SS1678233198223","5baa535fa3c9170001156197","6406d7f26dd5b7fc1e3377bd","6407ce62a1290db6e721459c","1210","849","","2598","","{""Q0"":2}","[0]","complexity","media/stimuli/animate_004_right.png","animate","pair","right","","","","","","","","","","","","","",""
"","","","","","survey-likert","40","289664","0.0-40.0","SS1678233198223","5baa535fa3c9170001156197","6406d7f26dd5b7fc1e3377bd","6407ce62a1290db6e721459c","1210","849","","3295","","{""Q0"":1}","[0]","complexity","media/stimuli/inanimate_007_right.png","inanimate","single","right","","","","","","","","","","","","","",""
"","","","","","survey-likert","41","293618","0.0-41.0","SS1678233198223","5baa535fa3c9170001156197","6406d7f26dd5b7fc1e3377bd","6407ce62a1290db6e721459c","1210","849","","3953","","{""Q0"":2}","[0]","complexity","media/stimuli/animate_011_right.png","animate","pair","right","","","","","","","","","","","","","",""
"","","","","","survey-likert","42","296718","0.0-42.0","SS1678233198223","5baa535fa3c9170001156197","6406d7f26dd5b7fc1e3377bd","6407ce62a1290db6e721459c","1210","849","","3097","","{""Q0"":2}","[0]","complexity","media/stimuli/animate_011_left.png","animate","pair","left","","","","","","","","","","","","","",""
"","","","","","survey-likert","43","301291","0.0-43.0","SS1678233198223","5baa535fa3c9170001156197","6406d7f26dd5b7fc1e3377bd","6407ce62a1290db6e721459c","1210","849","","4571","","{""Q0"":2}","[0]","complexity","media/stimuli/animate_001_right.png","animate","single","right","","","","","","","","","","","","","",""
"","","","","","survey-likert","44","303991","0.0-44.0","SS1678233198223","5baa535fa3c9170001156197","6406d7f26dd5b7fc1e3377bd","6407ce62a1290db6e721459c","1210","849","","2698","","{""Q0"":1}","[0]","complexity","media/stimuli/inanimate_010_left.png","inanimate","single","left","","","","","","","","","","","","","",""
"","","","","","survey-likert","45","307460","0.0-45.0","SS1678233198223","5baa535fa3c9170001156197","6406d7f26dd5b7fc1e3377bd","6407ce62a1290db6e721459c","1210","849","","3466","","{""Q0"":0}","[0]","complexity","media/stimuli/inanimate_009_right.png","inanimate","single","right","","","","","","","","","","","","","",""
"","","","","","html-keyboard-response","46","324901","0.0-46.0","SS1678233198223","5baa535fa3c9170001156197","6406d7f26dd5b7fc1e3377bd","6407ce62a1290db6e721459c","1210","849","","17439","","d","","","","","","","","","","","","","","","","","","","",""
"","","","","","survey-likert","47","332634","0.0-47.0","SS1678233198223","5baa535fa3c9170001156197","6406d7f26dd5b7fc1e3377bd","6407ce62a1290db6e721459c","1210","849","","7731","","{""Q0"":1}","[0]","complexity","media/stimuli/inanimate_007_left.png","inanimate","pair","left","","","","","","","","","","","","","",""
"","","","","","survey-likert","48","335758","0.0-48.0","SS1678233198223","5baa535fa3c9170001156197","6406d7f26dd5b7fc1e3377bd","6407ce62a1290db6e721459c","1210","849","","3123","","{""Q0"":0}","[0]","complexity","media/stimuli/inanimate_005_left.png","inanimate","single","left","","","","","","","","","","","","","",""
"","","","","","survey-likert","49","338043","0.0-49.0","SS1678233198223","5baa535fa3c9170001156197","6406d7f26dd5b7fc1e3377bd","6407ce62a1290db6e721459c","1210","849","","2282","","{""Q0"":1}","[0]","complexity","media/stimuli/inanimate_008_left.png","inanimate","single","left","","","","","","","","","","","","","",""
"","","","","","survey-likert","50","343214","0.0-50.0","SS1678233198223","5baa535fa3c9170001156197","6406d7f26dd5b7fc1e3377bd","6407ce62a1290db6e721459c","1210","849","","5168","","{""Q0"":2}","[0]","complexity","media/stimuli/animate_002_right.png","animate","pair","right","","","","","","","","","","","","","",""
"","","","","","survey-likert","51","346405","0.0-51.0","SS1678233198223","5baa535fa3c9170001156197","6406d7f26dd5b7fc1e3377bd","6407ce62a1290db6e721459c","1210","849","","3190","","{""Q0"":1}","[0]","complexity","media/stimuli/inanimate_010_right.png","inanimate","pair","right","","","","","","","","","","","","","",""
"","","","","","survey-likert","52","349640","0.0-52.0","SS1678233198223","5baa535fa3c9170001156197","6406d7f26dd5b7fc1e3377bd","6407ce62a1290db6e721459c","1210","849","","3232","","{""Q0"":2}","[0]","complexity","media/stimuli/animate_010_right.png","animate","pair","right","","","","","","","","","","","","","",""
"","","","","","survey-likert","53","352333","0.0-53.0","SS1678233198223","5baa535fa3c9170001156197","6406d7f26dd5b7fc1e3377bd","6407ce62a1290db6e721459c","1210","849","","2690","","{""Q0"":1}","[0]","complexity","media/stimuli/animate_004_left.png","animate","single","left","","","","","","","","","","","","","",""
"","","","","","survey-likert","54","355285","0.0-54.0","SS1678233198223","5baa535fa3c9170001156197","6406d7f26dd5b7fc1e3377bd","6407ce62a1290db6e721459c","1210","849","","2951","","{""Q0"":1}","[0]","complexity","media/stimuli/inanimate_003_right.png","inanimate","pair","right","","","","","","","","","","","","","",""
"","","","","","survey-likert","55","358302","0.0-55.0","SS1678233198223","5baa535fa3c9170001156197","6406d7f26dd5b7fc1e3377bd","6407ce62a1290db6e721459c","1210","849","","3015","","{""Q0"":2}","[0]","complexity","media/stimuli/animate_007_right.png","animate","pair","right","","","","","","","","","","","","","",""
"","","","","","survey-likert","56","360727","0.0-56.0","SS1678233198223","5baa535fa3c9170001156197","6406d7f26dd5b7fc1e3377bd","6407ce62a1290db6e721459c","1210","849","","2424","","{""Q0"":1}","[0]","complexity","media/stimuli/inanimate_011_right.png","inanimate","single","right","","","","","","","","","","","","","",""
"","","","","","survey-likert","57","364204","0.0-57.0","SS1678233198223","5baa535fa3c9170001156197","6406d7f26dd5b7fc1e3377bd","6407ce62a1290db6e721459c","1210","849","","3473","","{""Q0"":3}","[0]","complexity","media/stimuli/animate_001_right.png","animate","pair","right","","","","","","","","","","","","","",""
"","","","","","survey-likert","58","366959","0.0-58.0","SS1678233198223","5baa535fa3c9170001156197","6406d7f26dd5b7fc1e3377bd","6407ce62a1290db6e721459c","1210","849","","2754","","{""Q0"":1}","[0]","complexity","media/stimuli/inanimate_007_right.png","inanimate","pair","right","","","","","","","","","","","","","",""
"","","","","","html-keyboard-response","59","369246","0.0-59.0","SS1678233198223","5baa535fa3c9170001156197","6406d7f26dd5b7fc1e3377bd","6407ce62a1290db6e721459c","1210","849","","2286","","s","","","","","","","","","","","","","","","","","","","",""
"","","","","","html-keyboard-response","60","390848","0.0-60.0","SS1678233198223","5baa535fa3c9170001156197","6406d7f26dd5b7fc1e3377bd","6407ce62a1290db6e721459c","1210","849","","21599","","j","","","","","","","<img src=""media/stimuli/inanimate_012_left.png"" class=""coveredImage test"" style = ""width:100px; height:100px; position:fixed; top:10%;    transform: translate(-50%, -50%);left:48%""></img><img src=""media/stimuli/inanimate_012_left.png"" class=""coveredImage test"" style = ""width:100px; height:100px;position:fixed; top:25%;        transform: translate(-50%, -50%);left:34.5%""></img><img src=""media/stimuli/inanimate_012_left.png"" class=""coveredImage test"" style = ""width:100px; height:100px;position:fixed; top:25%;        transform: translate(-50%, -50%);left:41.5%""></img><img src=""media/stimuli/inanimate_012_right.png"" class=""coveredImage test"" style = ""width:100px; height:100px;position:fixed; top:25%;        transform: translate(-50%, -50%);left:58%""></img><img src=""media/f.png""style = ""width:30px x; height:30px;position:fixed; top:43%;    transform: translate(-50%, -50%);left:40%""></img><img src=""media/j.png""style = ""width:30px; height:30px;position:fixed; top:43%;    transform: translate(-50%, -50%);left:60%""></img>","media/stimuli/inanimate_012_left.png","inanimate","left","single","media/stimuli/inanimate_012_left.png","inanimate","left","pair","media/stimuli/inanimate_012_right.png","inanimate","right","single","number_pose"
"","","","","","html-keyboard-response","61","397391","0.0-61.0","SS1678233198223","5baa535fa3c9170001156197","6406d7f26dd5b7fc1e3377bd","6407ce62a1290db6e721459c","1210","849","","6543","","f","","","","","","","<img src=""media/stimuli/animate_003_left.png"" class=""coveredImage test"" style = ""width:100px; height:100px; position:fixed; top:10%;    transform: translate(-50%, -50%);left:44.5%""></img><img src=""media/stimuli/animate_003_left.png"" class=""coveredImage test"" style = ""width:100px; height:100px; position:fixed; top:10%;    transform: translate(-50%, -50%);left:51.5%""></img><img src=""media/stimuli/animate_008_left.png"" class=""coveredImage test"" style = ""width:100px; height:100px;position:fixed; top:25%;        transform: translate(-50%, -50%);left:34.5%""></img><img src=""media/stimuli/animate_008_left.png"" class=""coveredImage test"" style = ""width:100px; height:100px;position:fixed; top:25%;        transform: translate(-50%, -50%);left:41.5%""></img><img src=""media/stimuli/inanimate_004_left.png"" class=""coveredImage test"" style = ""width:100px; height:100px;position:fixed; top:25%;        transform: translate(-50%, -50%);left:54.5%""></img><img src=""media/stimuli/inanimate_004_left.png"" class=""coveredImage test"" style = ""width:100px; height:100px;position:fixed; top:25%;        transform: translate(-50%, -50%);left:61.5%""></img><img src=""media/f.png""style = ""width:30px x; height:30px;position:fixed; top:43%;    transform: translate(-50%, -50%);left:40%""></img><img src=""media/j.png""style = ""width:30px; height:30px;position:fixed; top:43%;    transform: translate(-50%, -50%);left:60%""></img>","media/stimuli/animate_003_left.png","animate","left","pair","media/stimuli/animate_008_left.png","animate","left","pair","media/stimuli/inanimate_004_left.png","inanimate","left","pair","identity_animacy"
"","","","","","html-keyboard-response","62","405254","0.0-62.0","SS1678233198223","5baa535fa3c9170001156197","6406d7f26dd5b7fc1e3377bd","6407ce62a1290db6e721459c","1210","849","","7862","","j","","","","","","","<img src=""media/stimuli/inanimate_009_left.png"" class=""coveredImage test"" style = ""width:100px; height:100px; position:fixed; top:10%;    transform: translate(-50%, -50%);left:44.5%""></img><img src=""media/stimuli/inanimate_009_left.png"" class=""coveredImage test"" style = ""width:100px; height:100px; position:fixed; top:10%;    transform: translate(-50%, -50%);left:51.5%""></img><img src=""media/stimuli/inanimate_009_left.png"" class=""coveredImage test"" style = ""width:100px; height:100px;position:fixed; top:25%;        transform: translate(-50%, -50%);left:38%""></img><img src=""media/stimuli/inanimate_009_right.png"" class=""coveredImage test"" style = ""width:100px; height:100px;position:fixed; top:25%;        transform: translate(-50%, -50%);left:54.5%""></img><img src=""media/stimuli/inanimate_009_right.png"" class=""coveredImage test"" style = ""width:100px; height:100px;position:fixed; top:25%;        transform: translate(-50%, -50%);left:61.5%""></img><img src=""media/f.png""style = ""width:30px x; height:30px;position:fixed; top:43%;    transform: translate(-50%, -50%);left:40%""></img><img src=""media/j.png""style = ""width:30px; height:30px;position:fixed; top:43%;    transform: translate(-50%, -50%);left:60%""></img>","media/stimuli/inanimate_009_left.png","inanimate","left","pair","media/stimuli/inanimate_009_left.png","inanimate","left","single","media/stimuli/inanimate_009_right.png","inanimate","right","pair","number_pose"
"","","","","","html-keyboard-response","63","407144","0.0-63.0","SS1678233198223","5baa535fa3c9170001156197","6406d7f26dd5b7fc1e3377bd","6407ce62a1290db6e721459c","1210","849","","1887","","f","","","","","","","<img src=""media/stimuli/animate_003_left.png"" class=""coveredImage test"" style = ""width:100px; height:100px; position:fixed; top:10%;    transform: translate(-50%, -50%);left:44.5%""></img><img src=""media/stimuli/animate_003_left.png"" class=""coveredImage test"" style = ""width:100px; height:100px; position:fixed; top:10%;    transform: translate(-50%, -50%);left:51.5%""></img><img src=""media/stimuli/animate_009_left.png"" class=""coveredImage test"" style = ""width:100px; height:100px;position:fixed; top:25%;        transform: translate(-50%, -50%);left:34.5%""></img><img src=""media/stimuli/animate_009_left.png"" class=""coveredImage test"" style = ""width:100px; height:100px;position:fixed; top:25%;        transform: translate(-50%, -50%);left:41.5%""></img><img src=""media/stimuli/inanimate_010_left.png"" class=""coveredImage test"" style = ""width:100px; height:100px;position:fixed; top:25%;        transform: translate(-50%, -50%);left:54.5%""></img><img src=""media/stimuli/inanimate_010_left.png"" class=""coveredImage test"" style = ""width:100px; height:100px;position:fixed; top:25%;        transform: translate(-50%, -50%);left:61.5%""></img><img src=""media/f.png""style = ""width:30px x; height:30px;position:fixed; top:43%;    transform: translate(-50%, -50%);left:40%""></img><img src=""media/j.png""style = ""width:30px; height:30px;position:fixed; top:43%;    transform: translate(-50%, -50%);left:60%""></img>","media/stimuli/animate_003_left.png","animate","left","pair","media/stimuli/animate_009_left.png","animate","left","pair","media/stimuli/inanimate_010_left.png","inanimate","left","pair","identity_animacy"
"","","","","","html-keyboard-response","64","410687","0.0-64.0","SS1678233198223","5baa535fa3c9170001156197","6406d7f26dd5b7fc1e3377bd","6407ce62a1290db6e721459c","1210","849","","3540","","f","","","","","","","<img src=""media/stimuli/inanimate_006_right.png"" class=""coveredImage test"" style = ""width:100px; height:100px; position:fixed; top:10%;    transform: translate(-50%, -50%);left:44.5%""></img><img src=""media/stimuli/inanimate_006_right.png"" class=""coveredImage test"" style = ""width:100px; height:100px; position:fixed; top:10%;    transform: translate(-50%, -50%);left:51.5%""></img><img src=""media/stimuli/inanimate_006_right.png"" class=""coveredImage test"" style = ""width:100px; height:100px;position:fixed; top:25%;        transform: translate(-50%, -50%);left:38%""></img><img src=""media/stimuli/animate_004_right.png"" class=""coveredImage test"" style = ""width:100px; height:100px;position:fixed; top:25%;        transform: translate(-50%, -50%);left:54.5%""></img><img src=""media/stimuli/animate_004_right.png"" class=""coveredImage test"" style = ""width:100px; height:100px;position:fixed; top:25%;        transform: translate(-50%, -50%);left:61.5%""></img><img src=""media/f.png""style = ""width:30px x; height:30px;position:fixed; top:43%;    transform: translate(-50%, -50%);left:40%""></img><img src=""media/j.png""style = ""width:30px; height:30px;position:fixed; top:43%;    transform: translate(-50%, -50%);left:60%""></img>","media/stimuli/inanimate_006_right.png","inanimate","right","pair","media/stimuli/inanimate_006_right.png","inanimate","right","single","media/stimuli/animate_004_right.png","animate","right","pair","number_animacy"
"","","","","","html-keyboard-response","65","412007","0.0-65.0","SS1678233198223","5baa535fa3c9170001156197","6406d7f26dd5b7fc1e3377bd","6407ce62a1290db6e721459c","1210","849","","1319","","f","","","","","","","<img src=""media/stimuli/inanimate_001_left.png"" class=""coveredImage test"" style = ""width:100px; height:100px; position:fixed; top:10%;    transform: translate(-50%, -50%);left:44.5%""></img><img src=""media/stimuli/inanimate_001_left.png"" class=""coveredImage test"" style = ""width:100px; height:100px; position:fixed; top:10%;    transform: translate(-50%, -50%);left:51.5%""></img><img src=""media/stimuli/inanimate_001_left.png"" class=""coveredImage test"" style = ""width:100px; height:100px;position:fixed; top:25%;        transform: translate(-50%, -50%);left:38%""></img><img src=""media/stimuli/animate_009_left.png"" class=""coveredImage test"" style = ""width:100px; height:100px;position:fixed; top:25%;        transform: translate(-50%, -50%);left:54.5%""></img><img src=""media/stimuli/animate_009_left.png"" class=""coveredImage test"" style = ""width:100px; height:100px;position:fixed; top:25%;        transform: translate(-50%, -50%);left:61.5%""></img><img src=""media/f.png""style = ""width:30px x; height:30px;position:fixed; top:43%;    transform: translate(-50%, -50%);left:40%""></img><img src=""media/j.png""style = ""width:30px; height:30px;position:fixed; top:43%;    transform: translate(-50%, -50%);left:60%""></img>","media/stimuli/inanimate_001_left.png","inanimate","left","pair","media/stimuli/inanimate_001_left.png","inanimate","left","single","media/stimuli/animate_009_left.png","animate","left","pair","number_animacy"
"","","","","","html-keyboard-response","66","413183","0.0-66.0","SS1678233198223","5baa535fa3c9170001156197","6406d7f26dd5b7fc1e3377bd","6407ce62a1290db6e721459c","1210","849","","1174","","j","","","","","","","<img src=""media/stimuli/animate_002_right.png"" class=""coveredImage test"" style = ""width:100px; height:100px; position:fixed; top:10%;    transform: translate(-50%, -50%);left:44.5%""></img><img src=""media/stimuli/animate_002_right.png"" class=""coveredImage test"" style = ""width:100px; height:100px; position:fixed; top:10%;    transform: translate(-50%, -50%);left:51.5%""></img><img src=""media/stimuli/animate_007_right.png"" class=""coveredImage test"" style = ""width:100px; height:100px;position:fixed; top:25%;        transform: translate(-50%, -50%);left:34.5%""></img><img src=""media/stimuli/animate_007_right.png"" class=""coveredImage test"" style = ""width:100px; height:100px;position:fixed; top:25%;        transform: translate(-50%, -50%);left:41.5%""></img><img src=""media/stimuli/animate_002_right.png"" class=""coveredImage test"" style = ""width:100px; height:100px;position:fixed; top:25%;        transform: translate(-50%, -50%);left:58%""></img><img src=""media/f.png""style = ""width:30px x; height:30px;position:fixed; top:43%;    transform: translate(-50%, -50%);left:40%""></img><img src=""media/j.png""style = ""width:30px; height:30px;position:fixed; top:43%;    transform: translate(-50%, -50%);left:60%""></img>","media/stimuli/animate_002_right.png","animate","right","pair","media/stimuli/animate_007_right.png","animate","right","pair","media/stimuli/animate_002_right.png","animate","right","single","identity_number"
"","","","","","html-keyboard-response","67","414136","0.0-67.0","SS1678233198223","5baa535fa3c9170001156197","6406d7f26dd5b7fc1e3377bd","6407ce62a1290db6e721459c","1210","849","","950","","f","","","","","","","<img src=""media/stimuli/animate_009_left.png"" class=""coveredImage test"" style = ""width:100px; height:100px; position:fixed; top:10%;    transform: translate(-50%, -50%);left:44.5%""></img><img src=""media/stimuli/animate_009_left.png"" class=""coveredImage test"" style = ""width:100px; height:100px; position:fixed; top:10%;    transform: translate(-50%, -50%);left:51.5%""></img><img src=""media/stimuli/animate_009_left.png"" class=""coveredImage test"" style = ""width:100px; height:100px;position:fixed; top:25%;        transform: translate(-50%, -50%);left:38%""></img><img src=""media/stimuli/animate_008_left.png"" class=""coveredImage test"" style = ""width:100px; height:100px;position:fixed; top:25%;        transform: translate(-50%, -50%);left:54.5%""></img><img src=""media/stimuli/animate_008_left.png"" class=""coveredImage test"" style = ""width:100px; height:100px;position:fixed; top:25%;        transform: translate(-50%, -50%);left:61.5%""></img><img src=""media/f.png""style = ""width:30px x; height:30px;position:fixed; top:43%;    transform: translate(-50%, -50%);left:40%""></img><img src=""media/j.png""style = ""width:30px; height:30px;position:fixed; top:43%;    transform: translate(-50%, -50%);left:60%""></img>","media/stimuli/animate_009_left.png","animate","left","pair","media/stimuli/animate_009_left.png","animate","left","single","media/stimuli/animate_008_left.png","animate","left","pair","number_identity"
"","","","","","html-keyboard-response","68","414991","0.0-68.0","SS1678233198223","5baa535fa3c9170001156197","6406d7f26dd5b7fc1e3377bd","6407ce62a1290db6e721459c","1210","849","","854","","f","","","","","","","<img src=""media/stimuli/animate_002_right.png"" class=""coveredImage test"" style = ""width:100px; height:100px; position:fixed; top:10%;    transform: translate(-50%, -50%);left:44.5%""></img><img src=""media/stimuli/animate_002_right.png"" class=""coveredImage test"" style = ""width:100px; height:100px; position:fixed; top:10%;    transform: translate(-50%, -50%);left:51.5%""></img><img src=""media/stimuli/animate_002_right.png"" class=""coveredImage test"" style = ""width:100px; height:100px;position:fixed; top:25%;        transform: translate(-50%, -50%);left:38%""></img><img src=""media/stimuli/animate_004_right.png"" class=""coveredImage test"" style = ""width:100px; height:100px;position:fixed; top:25%;        transform: translate(-50%, -50%);left:54.5%""></img><img src=""media/stimuli/animate_004_right.png"" class=""coveredImage test"" style = ""width:100px; height:100px;position:fixed; top:25%;        transform: translate(-50%, -50%);left:61.5%""></img><img src=""media/f.png""style = ""width:30px x; height:30px;position:fixed; top:43%;    transform: translate(-50%, -50%);left:40%""></img><img src=""media/j.png""style = ""width:30px; height:30px;position:fixed; top:43%;    transform: translate(-50%, -50%);left:60%""></img>","media/stimuli/animate_002_right.png","animate","right","pair","media/stimuli/animate_002_right.png","animate","right","single","media/stimuli/animate_004_right.png","animate","right","pair","number_identity"
"","","","","","html-keyboard-response","69","416840","0.0-69.0","SS1678233198223","5baa535fa3c9170001156197","6406d7f26dd5b7fc1e3377bd","6407ce62a1290db6e721459c","1210","849","","1847","","j","","","","","","","<img src=""media/stimuli/animate_005_left.png"" class=""coveredImage test"" style = ""width:100px; height:100px; position:fixed; top:10%;    transform: translate(-50%, -50%);left:44.5%""></img><img src=""media/stimuli/animate_005_left.png"" class=""coveredImage test"" style = ""width:100px; height:100px; position:fixed; top:10%;    transform: translate(-50%, -50%);left:51.5%""></img><img src=""media/stimuli/animate_005_left.png"" class=""coveredImage test"" style = ""width:100px; height:100px;position:fixed; top:25%;        transform: translate(-50%, -50%);left:38%""></img><img src=""media/stimuli/animate_005_right.png"" class=""coveredImage test"" style = ""width:100px; height:100px;position:fixed; top:25%;        transform: translate(-50%, -50%);left:54.5%""></img><img src=""media/stimuli/animate_005_right.png"" class=""coveredImage test"" style = ""width:100px; height:100px;position:fixed; top:25%;        transform: translate(-50%, -50%);left:61.5%""></img><img src=""media/f.png""style = ""width:30px x; height:30px;position:fixed; top:43%;    transform: translate(-50%, -50%);left:40%""></img><img src=""media/j.png""style = ""width:30px; height:30px;position:fixed; top:43%;    transform: translate(-50%, -50%);left:60%""></img>","media/stimuli/animate_005_left.png","animate","left","pair","media/stimuli/animate_005_left.png","animate","left","single","media/stimuli/animate_005_right.png","animate","right","pair","number_pose"
"","","","","","html-keyboard-response","70","418143","0.0-70.0","SS1678233198223","5baa535fa3c9170001156197","6406d7f26dd5b7fc1e3377bd","6407ce62a1290db6e721459c","1210","849","","1301","","f","","","","","","","<img src=""media/stimuli/animate_001_right.png"" class=""coveredImage test"" style = ""width:100px; height:100px; position:fixed; top:10%;    transform: translate(-50%, -50%);left:44.5%""></img><img src=""media/stimuli/animate_001_right.png"" class=""coveredImage test"" style = ""width:100px; height:100px; position:fixed; top:10%;    transform: translate(-50%, -50%);left:51.5%""></img><img src=""media/stimuli/animate_001_left.png"" class=""coveredImage test"" style = ""width:100px; height:100px;position:fixed; top:25%;        transform: translate(-50%, -50%);left:34.5%""></img><img src=""media/stimuli/animate_001_left.png"" class=""coveredImage test"" style = ""width:100px; height:100px;position:fixed; top:25%;        transform: translate(-50%, -50%);left:41.5%""></img><img src=""media/stimuli/animate_001_right.png"" class=""coveredImage test"" style = ""width:100px; height:100px;position:fixed; top:25%;        transform: translate(-50%, -50%);left:58%""></img><img src=""media/f.png""style = ""width:30px x; height:30px;position:fixed; top:43%;    transform: translate(-50%, -50%);left:40%""></img><img src=""media/j.png""style = ""width:30px; height:30px;position:fixed; top:43%;    transform: translate(-50%, -50%);left:60%""></img>","media/stimuli/animate_001_right.png","animate","right","pair","media/stimuli/animate_001_left.png","animate","left","pair","media/stimuli/animate_001_right.png","animate","right","single","pose_number"
"","","","","","html-keyboard-response","71","419471","0.0-71.0","SS1678233198223","5baa535fa3c9170001156197","6406d7f26dd5b7fc1e3377bd","6407ce62a1290db6e721459c","1210","849","","1326","","f","","","","","","","<img src=""media/stimuli/inanimate_001_left.png"" class=""coveredImage test"" style = ""width:100px; height:100px; position:fixed; top:10%;    transform: translate(-50%, -50%);left:48%""></img><img src=""media/stimuli/inanimate_010_left.png"" class=""coveredImage test"" style = ""width:100px; height:100px;position:fixed; top:25%;        transform: translate(-50%, -50%);left:38%""></img><img src=""media/stimuli/animate_011_left.png"" class=""coveredImage test"" style = ""width:100px; height:100px;position:fixed; top:25%;        transform: translate(-50%, -50%);left:58%""></img><img src=""media/f.png""style = ""width:30px x; height:30px;position:fixed; top:43%;    transform: translate(-50%, -50%);left:40%""></img><img src=""media/j.png""style = ""width:30px; height:30px;position:fixed; top:43%;    transform: translate(-50%, -50%);left:60%""></img>","media/stimuli/inanimate_001_left.png","inanimate","left","single","media/stimuli/inanimate_010_left.png","inanimate","left","single","media/stimuli/animate_011_left.png","animate","left","single","identity_animacy"
"","","","","","html-keyboard-response","72","424144","0.0-72.0","SS1678233198223","5baa535fa3c9170001156197","6406d7f26dd5b7fc1e3377bd","6407ce62a1290db6e721459c","1210","849","","4671","","h","","","","","","","","","","","","","","","","","","","",""
"","","","","","survey-likert","73","431042","0.0-73.0","SS1678233198223","5baa535fa3c9170001156197","6406d7f26dd5b7fc1e3377bd","6407ce62a1290db6e721459c","1210","849","","6895","","{""Q0"":1}","[0]","complexity","media/stimuli/inanimate_004_right.png","inanimate","pair","right","","","","","","","","","","","","","",""
"","","","","","survey-likert","74","434677","0.0-74.0","SS1678233198223","5baa535fa3c9170001156197","6406d7f26dd5b7fc1e3377bd","6407ce62a1290db6e721459c","1210","849","","3633","","{""Q0"":1}","[0]","complexity","media/stimuli/inanimate_008_left.png","inanimate","pair","left","","","","","","","","","","","","","",""
"","","","","","survey-likert","75","438294","0.0-75.0","SS1678233198223","5baa535fa3c9170001156197","6406d7f26dd5b7fc1e3377bd","6407ce62a1290db6e721459c","1210","849","","3614","","{""Q0"":1}","[0]","complexity","media/stimuli/animate_006_left.png","animate","single","left","","","","","","","","","","","","","",""
"","","","","","survey-likert","76","440760","0.0-76.0","SS1678233198223","5baa535fa3c9170001156197","6406d7f26dd5b7fc1e3377bd","6407ce62a1290db6e721459c","1210","849","","2464","","{""Q0"":1}","[0]","complexity","media/stimuli/inanimate_001_left.png","inanimate","pair","left","","","","","","","","","","","","","",""
"","","","","","survey-likert","77","443337","0.0-77.0","SS1678233198223","5baa535fa3c9170001156197","6406d7f26dd5b7fc1e3377bd","6407ce62a1290db6e721459c","1210","849","","2573","","{""Q0"":1}","[0]","complexity","media/stimuli/animate_005_left.png","animate","single","left","","","","","","","","","","","","","",""
"","","","","","survey-likert","78","446098","0.0-78.0","SS1678233198223","5baa535fa3c9170001156197","6406d7f26dd5b7fc1e3377bd","6407ce62a1290db6e721459c","1210","849","","2758","","{""Q0"":1}","[0]","complexity","media/stimuli/inanimate_011_left.png","inanimate","pair","left","","","","","","","","","","","","","",""
"","","","","","survey-likert","79","449253","0.0-79.0","SS1678233198223","5baa535fa3c9170001156197","6406d7f26dd5b7fc1e3377bd","6407ce62a1290db6e721459c","1210","849","","3154","","{""Q0"":1}","[0]","complexity","media/stimuli/animate_009_right.png","animate","single","right","","","","","","","","","","","","","",""
"","","","","","survey-likert","80","452495","0.0-80.0","SS1678233198223","5baa535fa3c9170001156197","6406d7f26dd5b7fc1e3377bd","6407ce62a1290db6e721459c","1210","849","","3239","","{""Q0"":1}","[0]","complexity","media/stimuli/inanimate_011_left.png","inanimate","single","left","","","","","","","","","","","","","",""
"","","","","","survey-likert","81","454953","0.0-81.0","SS1678233198223","5baa535fa3c9170001156197","6406d7f26dd5b7fc1e3377bd","6407ce62a1290db6e721459c","1210","849","","2455","","{""Q0"":2}","[0]","complexity","media/stimuli/animate_008_left.png","animate","single","left","","","","","","","","","","","","","",""
"","","","","","survey-likert","82","457969","0.0-82.0","SS1678233198223","5baa535fa3c9170001156197","6406d7f26dd5b7fc1e3377bd","6407ce62a1290db6e721459c","1210","849","","3012","","{""Q0"":0}","[0]","complexity","media/stimuli/inanimate_004_right.png","inanimate","single","right","","","","","","","","","","","","","",""
"","","","","","survey-likert","83","460968","0.0-83.0","SS1678233198223","5baa535fa3c9170001156197","6406d7f26dd5b7fc1e3377bd","6407ce62a1290db6e721459c","1210","849","","2997","","{""Q0"":2}","[0]","complexity","media/stimuli/animate_005_left.png","animate","pair","left","","","","","","","","","","","","","",""
"","","","","","survey-likert","84","463464","0.0-84.0","SS1678233198223","5baa535fa3c9170001156197","6406d7f26dd5b7fc1e3377bd","6407ce62a1290db6e721459c","1210","849","","2493","","{""Q0"":1}","[0]","complexity","media/stimuli/inanimate_002_left.png","inanimate","pair","left","","","","","","","","","","","","","",""
"","","","","","html-keyboard-response","85","465409","0.0-85.0","SS1678233198223","5baa535fa3c9170001156197","6406d7f26dd5b7fc1e3377bd","6407ce62a1290db6e721459c","1210","849","","1943","","q","","","","","","","","","","","","","","","","","","","",""
"","","","","","survey-likert","86","470230","0.0-86.0","SS1678233198223","5baa535fa3c9170001156197","6406d7f26dd5b7fc1e3377bd","6407ce62a1290db6e721459c","1210","849","","4818","","{""Q0"":2}","[0]","complexity","media/stimuli/animate_004_left.png","animate","pair","left","","","","","","","","","","","","","",""
"","","","","","survey-likert","87","475161","0.0-87.0","SS1678233198223","5baa535fa3c9170001156197","6406d7f26dd5b7fc1e3377bd","6407ce62a1290db6e721459c","1210","849","","4928","","{""Q0"":1}","[0]","complexity","media/stimuli/inanimate_005_left.png","inanimate","pair","left","","","","","","","","","","","","","",""
"","","","","","survey-likert","88","478348","0.0-88.0","SS1678233198223","5baa535fa3c9170001156197","6406d7f26dd5b7fc1e3377bd","6407ce62a1290db6e721459c","1210","849","","3185","","{""Q0"":2}","[0]","complexity","media/stimuli/animate_006_left.png","animate","pair","left","","","","","","","","","","","","","",""
"","","","","","survey-likert","89","481136","0.0-89.0","SS1678233198223","5baa535fa3c9170001156197","6406d7f26dd5b7fc1e3377bd","6407ce62a1290db6e721459c","1210","849","","2785","","{""Q0"":2}","[0]","complexity","media/stimuli/animate_001_left.png","animate","single","left","","","","","","","","","","","","","",""
"","","","","","survey-likert","90","484923","0.0-90.0","SS1678233198223","5baa535fa3c9170001156197","6406d7f26dd5b7fc1e3377bd","6407ce62a1290db6e721459c","1210","849","","3785","","{""Q0"":3}","[0]","complexity","media/stimuli/animate_008_left.png","animate","pair","left","","","","","","","","","","","","","",""
"","","","","","survey-likert","91","487524","0.0-91.0","SS1678233198223","5baa535fa3c9170001156197","6406d7f26dd5b7fc1e3377bd","6407ce62a1290db6e721459c","1210","849","","2598","","{""Q0"":1}","[0]","complexity","media/stimuli/animate_007_left.png","animate","single","left","","","","","","","","","","","","","",""
"","","","","","survey-likert","92","490944","0.0-92.0","SS1678233198223","5baa535fa3c9170001156197","6406d7f26dd5b7fc1e3377bd","6407ce62a1290db6e721459c","1210","849","","3417","","{""Q0"":1}","[0]","complexity","media/stimuli/animate_004_right.png","animate","single","right","","","","","","","","","","","","","",""
"","","","","","survey-likert","93","494422","0.0-93.0","SS1678233198223","5baa535fa3c9170001156197","6406d7f26dd5b7fc1e3377bd","6407ce62a1290db6e721459c","1210","849","","3474","","{""Q0"":1}","[0]","complexity","media/stimuli/animate_009_left.png","animate","single","left","","","","","","","","","","","","","",""
"","","","","","survey-likert","94","498149","0.0-94.0","SS1678233198223","5baa535fa3c9170001156197","6406d7f26dd5b7fc1e3377bd","6407ce62a1290db6e721459c","1210","849","","3724","","{""Q0"":1}","[0]","complexity","media/stimuli/inanimate_002_right.png","inanimate","pair","right","","","","","","","","","","","","","",""
"","","","","","survey-likert","95","504461","0.0-95.0","SS1678233198223","5baa535fa3c9170001156197","6406d7f26dd5b7fc1e3377bd","6407ce62a1290db6e721459c","1210","849","","6310","","{""Q0"":0}","[0]","complexity","media/stimuli/inanimate_004_left.png","inanimate","single","left","","","","","","","","","","","","","",""
"","","","","","survey-likert","96","511585","0.0-96.0","SS1678233198223","5baa535fa3c9170001156197","6406d7f26dd5b7fc1e3377bd","6407ce62a1290db6e721459c","1210","849","","7120","","{""Q0"":1}","[0]","complexity","media/stimuli/inanimate_003_right.png","inanimate","single","right","","","","","","","","","","","","","",""
"","","","","","survey-likert","97","515757","0.0-97.0","SS1678233198223","5baa535fa3c9170001156197","6406d7f26dd5b7fc1e3377bd","6407ce62a1290db6e721459c","1210","849","","4169","","{""Q0"":1}","[0]","complexity","media/stimuli/inanimate_004_left.png","inanimate","pair","left","","","","","","","","","","","","","",""
"","","","","","html-keyboard-response","98","517555","0.0-98.0","SS1678233198223","5baa535fa3c9170001156197","6406d7f26dd5b7fc1e3377bd","6407ce62a1290db6e721459c","1210","849","","1796","","q","","","","","","","","","","","","","","","","","","","",""
"","","","","","html-keyboard-response","99","524524","0.0-99.0","SS1678233198223","5baa535fa3c9170001156197","6406d7f26dd5b7fc1e3377bd","6407ce62a1290db6e721459c","1210","849","","6966","","j","","","","","","","<img src=""media/stimuli/animate_005_right.png"" class=""coveredImage test"" style = ""width:100px; height:100px; position:fixed; top:10%;    transform: translate(-50%, -50%);left:48%""></img><img src=""media/stimuli/inanimate_005_right.png"" class=""coveredImage test"" style = ""width:100px; height:100px;position:fixed; top:25%;        transform: translate(-50%, -50%);left:38%""></img><img src=""media/stimuli/animate_005_right.png"" class=""coveredImage test"" style = ""width:100px; height:100px;position:fixed; top:25%;        transform: translate(-50%, -50%);left:54.5%""></img><img src=""media/stimuli/animate_005_right.png"" class=""coveredImage test"" style = ""width:100px; height:100px;position:fixed; top:25%;        transform: translate(-50%, -50%);left:61.5%""></img><img src=""media/f.png""style = ""width:30px x; height:30px;position:fixed; top:43%;    transform: translate(-50%, -50%);left:40%""></img><img src=""media/j.png""style = ""width:30px; height:30px;position:fixed; top:43%;    transform: translate(-50%, -50%);left:60%""></img>","media/stimuli/animate_005_right.png","animate","right","single","media/stimuli/inanimate_005_right.png","inanimate","right","single","media/stimuli/animate_005_right.png","animate","right","pair","animacy_number"
"","","","","","html-keyboard-response","100","526307","0.0-100.0","SS1678233198223","5baa535fa3c9170001156197","6406d7f26dd5b7fc1e3377bd","6407ce62a1290db6e721459c","1210","849","","1781","","f","","","","","","","<img src=""media/stimuli/inanimate_004_left.png"" class=""coveredImage test"" style = ""width:100px; height:100px; position:fixed; top:10%;    transform: translate(-50%, -50%);left:48%""></img><img src=""media/stimuli/inanimate_011_left.png"" class=""coveredImage test"" style = ""width:100px; height:100px;position:fixed; top:25%;        transform: translate(-50%, -50%);left:38%""></img><img src=""media/stimuli/animate_005_left.png"" class=""coveredImage test"" style = ""width:100px; height:100px;position:fixed; top:25%;        transform: translate(-50%, -50%);left:58%""></img><img src=""media/f.png""style = ""width:30px x; height:30px;position:fixed; top:43%;    transform: translate(-50%, -50%);left:40%""></img><img src=""media/j.png""style = ""width:30px; height:30px;position:fixed; top:43%;    transform: translate(-50%, -50%);left:60%""></img>","media/stimuli/inanimate_004_left.png","inanimate","left","single","media/stimuli/inanimate_011_left.png","inanimate","left","single","media/stimuli/animate_005_left.png","animate","left","single","identity_animacy"
"","","","","","html-keyboard-response","101","529130","0.0-101.0","SS1678233198223","5baa535fa3c9170001156197","6406d7f26dd5b7fc1e3377bd","6407ce62a1290db6e721459c","1210","849","","2821","","f","","","","","","","<img src=""media/stimuli/animate_010_left.png"" class=""coveredImage test"" style = ""width:100px; height:100px; position:fixed; top:10%;    transform: translate(-50%, -50%);left:44.5%""></img><img src=""media/stimuli/animate_010_left.png"" class=""coveredImage test"" style = ""width:100px; height:100px; position:fixed; top:10%;    transform: translate(-50%, -50%);left:51.5%""></img><img src=""media/stimuli/animate_010_left.png"" class=""coveredImage test"" style = ""width:100px; height:100px;position:fixed; top:25%;        transform: translate(-50%, -50%);left:38%""></img><img src=""media/stimuli/animate_007_left.png"" class=""coveredImage test"" style = ""width:100px; height:100px;position:fixed; top:25%;        transform: translate(-50%, -50%);left:54.5%""></img><img src=""media/stimuli/animate_007_left.png"" class=""coveredImage test"" style = ""width:100px; height:100px;position:fixed; top:25%;        transform: translate(-50%, -50%);left:61.5%""></img><img src=""media/f.png""style = ""width:30px x; height:30px;position:fixed; top:43%;    transform: translate(-50%, -50%);left:40%""></img><img src=""media/j.png""style = ""width:30px; height:30px;position:fixed; top:43%;    transform: translate(-50%, -50%);left:60%""></img>","media/stimuli/animate_010_left.png","animate","left","pair","media/stimuli/animate_010_left.png","animate","left","single","media/stimuli/animate_007_left.png","animate","left","pair","number_identity"
"","","","","","html-keyboard-response","102","530195","0.0-102.0","SS1678233198223","5baa535fa3c9170001156197","6406d7f26dd5b7fc1e3377bd","6407ce62a1290db6e721459c","1210","849","","1062","","j","","","","","","","<img src=""media/stimuli/animate_008_left.png"" class=""coveredImage test"" style = ""width:100px; height:100px; position:fixed; top:10%;    transform: translate(-50%, -50%);left:44.5%""></img><img src=""media/stimuli/animate_008_left.png"" class=""coveredImage test"" style = ""width:100px; height:100px; position:fixed; top:10%;    transform: translate(-50%, -50%);left:51.5%""></img><img src=""media/stimuli/inanimate_001_right.png"" class=""coveredImage test"" style = ""width:100px; height:100px;position:fixed; top:25%;        transform: translate(-50%, -50%);left:38%""></img><img src=""media/stimuli/animate_008_left.png"" class=""coveredImage test"" style = ""width:100px; height:100px;position:fixed; top:25%;        transform: translate(-50%, -50%);left:58%""></img><img src=""media/f.png""style = ""width:30px x; height:30px;position:fixed; top:43%;    transform: translate(-50%, -50%);left:40%""></img><img src=""media/j.png""style = ""width:30px; height:30px;position:fixed; top:43%;    transform: translate(-50%, -50%);left:60%""></img>","media/stimuli/animate_008_left.png","animate","left","pair","media/stimuli/inanimate_001_right.png","inanimate","right","single","media/stimuli/animate_008_left.png","animate","left","single","animacy_pose"
"","","","","","html-keyboard-response","103","531884","0.0-103.0","SS1678233198223","5baa535fa3c9170001156197","6406d7f26dd5b7fc1e3377bd","6407ce62a1290db6e721459c","1210","849","","1686","","j","","","","","","","<img src=""media/stimuli/animate_006_left.png"" class=""coveredImage test"" style = ""width:100px; height:100px; position:fixed; top:10%;    transform: translate(-50%, -50%);left:44.5%""></img><img src=""media/stimuli/animate_006_left.png"" class=""coveredImage test"" style = ""width:100px; height:100px; position:fixed; top:10%;    transform: translate(-50%, -50%);left:51.5%""></img><img src=""media/stimuli/inanimate_010_left.png"" class=""coveredImage test"" style = ""width:100px; height:100px;position:fixed; top:25%;        transform: translate(-50%, -50%);left:34.5%""></img><img src=""media/stimuli/inanimate_010_left.png"" class=""coveredImage test"" style = ""width:100px; height:100px;position:fixed; top:25%;        transform: translate(-50%, -50%);left:41.5%""></img><img src=""media/stimuli/animate_007_left.png"" class=""coveredImage test"" style = ""width:100px; height:100px;position:fixed; top:25%;        transform: translate(-50%, -50%);left:54.5%""></img><img src=""media/stimuli/animate_007_left.png"" class=""coveredImage test"" style = ""width:100px; height:100px;position:fixed; top:25%;        transform: translate(-50%, -50%);left:61.5%""></img><img src=""media/f.png""style = ""width:30px x; height:30px;position:fixed; top:43%;    transform: translate(-50%, -50%);left:40%""></img><img src=""media/j.png""style = ""width:30px; height:30px;position:fixed; top:43%;    transform: translate(-50%, -50%);left:60%""></img>","media/stimuli/animate_006_left.png","animate","left","pair","media/stimuli/inanimate_010_left.png","inanimate","left","pair","media/stimuli/animate_007_left.png","animate","left","pair","animacy_identity"
"","","","","","html-keyboard-response","104","532715","0.0-104.0","SS1678233198223","5baa535fa3c9170001156197","6406d7f26dd5b7fc1e3377bd","6407ce62a1290db6e721459c","1210","849","","830","","f","","","","","","","<img src=""media/stimuli/inanimate_011_right.png"" class=""coveredImage test"" style = ""width:100px; height:100px; position:fixed; top:10%;    transform: translate(-50%, -50%);left:48%""></img><img src=""media/stimuli/inanimate_011_left.png"" class=""coveredImage test"" style = ""width:100px; height:100px;position:fixed; top:25%;        transform: translate(-50%, -50%);left:38%""></img><img src=""media/stimuli/inanimate_004_right.png"" class=""coveredImage test"" style = ""width:100px; height:100px;position:fixed; top:25%;        transform: translate(-50%, -50%);left:58%""></img><img src=""media/f.png""style = ""width:30px x; height:30px;position:fixed; top:43%;    transform: translate(-50%, -50%);left:40%""></img><img src=""media/j.png""style = ""width:30px; height:30px;position:fixed; top:43%;    transform: translate(-50%, -50%);left:60%""></img>","media/stimuli/inanimate_011_right.png","inanimate","right","single","media/stimuli/inanimate_011_left.png","inanimate","left","single","media/stimuli/inanimate_004_right.png","inanimate","right","single","pose_identity"
"","","","","","html-keyboard-response","105","533620","0.0-105.0","SS1678233198223","5baa535fa3c9170001156197","6406d7f26dd5b7fc1e3377bd","6407ce62a1290db6e721459c","1210","849","","902","","f","","","","","","","<img src=""media/stimuli/animate_009_left.png"" class=""coveredImage test"" style = ""width:100px; height:100px; position:fixed; top:10%;    transform: translate(-50%, -50%);left:44.5%""></img><img src=""media/stimuli/animate_009_left.png"" class=""coveredImage test"" style = ""width:100px; height:100px; position:fixed; top:10%;    transform: translate(-50%, -50%);left:51.5%""></img><img src=""media/stimuli/animate_009_left.png"" class=""coveredImage test"" style = ""width:100px; height:100px;position:fixed; top:25%;        transform: translate(-50%, -50%);left:38%""></img><img src=""media/stimuli/inanimate_007_left.png"" class=""coveredImage test"" style = ""width:100px; height:100px;position:fixed; top:25%;        transform: translate(-50%, -50%);left:54.5%""></img><img src=""media/stimuli/inanimate_007_left.png"" class=""coveredImage test"" style = ""width:100px; height:100px;position:fixed; top:25%;        transform: translate(-50%, -50%);left:61.5%""></img><img src=""media/f.png""style = ""width:30px x; height:30px;position:fixed; top:43%;    transform: translate(-50%, -50%);left:40%""></img><img src=""media/j.png""style = ""width:30px; height:30px;position:fixed; top:43%;    transform: translate(-50%, -50%);left:60%""></img>","media/stimuli/animate_009_left.png","animate","left","pair","media/stimuli/animate_009_left.png","animate","left","single","media/stimuli/inanimate_007_left.png","inanimate","left","pair","number_animacy"
"","","","","","html-keyboard-response","106","534699","0.0-106.0","SS1678233198223","5baa535fa3c9170001156197","6406d7f26dd5b7fc1e3377bd","6407ce62a1290db6e721459c","1210","849","","1078","","j","","","","","","","<img src=""media/stimuli/inanimate_011_right.png"" class=""coveredImage test"" style = ""width:100px; height:100px; position:fixed; top:10%;    transform: translate(-50%, -50%);left:48%""></img><img src=""media/stimuli/inanimate_011_left.png"" class=""coveredImage test"" style = ""width:100px; height:100px;position:fixed; top:25%;        transform: translate(-50%, -50%);left:38%""></img><img src=""media/stimuli/inanimate_011_right.png"" class=""coveredImage test"" style = ""width:100px; height:100px;position:fixed; top:25%;        transform: translate(-50%, -50%);left:54.5%""></img><img src=""media/stimuli/inanimate_011_right.png"" class=""coveredImage test"" style = ""width:100px; height:100px;position:fixed; top:25%;        transform: translate(-50%, -50%);left:61.5%""></img><img src=""media/f.png""style = ""width:30px x; height:30px;position:fixed; top:43%;    transform: translate(-50%, -50%);left:40%""></img><img src=""media/j.png""style = ""width:30px; height:30px;position:fixed; top:43%;    transform: translate(-50%, -50%);left:60%""></img>","media/stimuli/inanimate_011_right.png","inanimate","right","single","media/stimuli/inanimate_011_left.png","inanimate","left","single","media/stimuli/inanimate_011_right.png","inanimate","right","pair","pose_number"
"","","","","","html-keyboard-response","107","536876","0.0-107.0","SS1678233198223","5baa535fa3c9170001156197","6406d7f26dd5b7fc1e3377bd","6407ce62a1290db6e721459c","1210","849","","2174","","j","","","","","","","<img src=""media/stimuli/animate_003_right.png"" class=""coveredImage test"" style = ""width:100px; height:100px; position:fixed; top:10%;    transform: translate(-50%, -50%);left:44.5%""></img><img src=""media/stimuli/animate_003_right.png"" class=""coveredImage test"" style = ""width:100px; height:100px; position:fixed; top:10%;    transform: translate(-50%, -50%);left:51.5%""></img><img src=""media/stimuli/animate_012_right.png"" class=""coveredImage test"" style = ""width:100px; height:100px;position:fixed; top:25%;        transform: translate(-50%, -50%);left:34.5%""></img><img src=""media/stimuli/animate_012_right.png"" class=""coveredImage test"" style = ""width:100px; height:100px;position:fixed; top:25%;        transform: translate(-50%, -50%);left:41.5%""></img><img src=""media/stimuli/animate_003_left.png"" class=""coveredImage test"" style = ""width:100px; height:100px;position:fixed; top:25%;        transform: translate(-50%, -50%);left:54.5%""></img><img src=""media/stimuli/animate_003_left.png"" class=""coveredImage test"" style = ""width:100px; height:100px;position:fixed; top:25%;        transform: translate(-50%, -50%);left:61.5%""></img><img src=""media/f.png""style = ""width:30px x; height:30px;position:fixed; top:43%;    transform: translate(-50%, -50%);left:40%""></img><img src=""media/j.png""style = ""width:30px; height:30px;position:fixed; top:43%;    transform: translate(-50%, -50%);left:60%""></img>","media/stimuli/animate_003_right.png","animate","right","pair","media/stimuli/animate_012_right.png","animate","right","pair","media/stimuli/animate_003_left.png","animate","left","pair","identity_pose"
"","","","","","html-keyboard-response","108","538507","0.0-108.0","SS1678233198223","5baa535fa3c9170001156197","6406d7f26dd5b7fc1e3377bd","6407ce62a1290db6e721459c","1210","849","","1628","","j","","","","","","","<img src=""media/stimuli/inanimate_009_right.png"" class=""coveredImage test"" style = ""width:100px; height:100px; position:fixed; top:10%;    transform: translate(-50%, -50%);left:44.5%""></img><img src=""media/stimuli/inanimate_009_right.png"" class=""coveredImage test"" style = ""width:100px; height:100px; position:fixed; top:10%;    transform: translate(-50%, -50%);left:51.5%""></img><img src=""media/stimuli/inanimate_009_left.png"" class=""coveredImage test"" style = ""width:100px; height:100px;position:fixed; top:25%;        transform: translate(-50%, -50%);left:34.5%""></img><img src=""media/stimuli/inanimate_009_left.png"" class=""coveredImage test"" style = ""width:100px; height:100px;position:fixed; top:25%;        transform: translate(-50%, -50%);left:41.5%""></img><img src=""media/stimuli/inanimate_009_right.png"" class=""coveredImage test"" style = ""width:100px; height:100px;position:fixed; top:25%;        transform: translate(-50%, -50%);left:54.5%""></img><img src=""media/stimuli/inanimate_009_right.png"" class=""coveredImage test"" style = ""width:100px; height:100px;position:fixed; top:25%;        transform: translate(-50%, -50%);left:61.5%""></img><img src=""media/f.png""style = ""width:30px x; height:30px;position:fixed; top:43%;    transform: translate(-50%, -50%);left:40%""></img><img src=""media/j.png""style = ""width:30px; height:30px;position:fixed; top:43%;    transform: translate(-50%, -50%);left:60%""></img>","media/stimuli/inanimate_009_right.png","inanimate","right","pair","media/stimuli/inanimate_009_left.png","inanimate","left","pair","media/stimuli/inanimate_009_right.png","inanimate","right","pair","pose_filler"
"","","","","","html-keyboard-response","109","540308","0.0-109.0","SS1678233198223","5baa535fa3c9170001156197","6406d7f26dd5b7fc1e3377bd","6407ce62a1290db6e721459c","1210","849","","1799","","j","","","","","","","<img src=""media/stimuli/inanimate_011_left.png"" class=""coveredImage test"" style = ""width:100px; height:100px; position:fixed; top:10%;    transform: translate(-50%, -50%);left:48%""></img><img src=""media/stimuli/animate_001_left.png"" class=""coveredImage test"" style = ""width:100px; height:100px;position:fixed; top:25%;        transform: translate(-50%, -50%);left:38%""></img><img src=""media/stimuli/inanimate_012_left.png"" class=""coveredImage test"" style = ""width:100px; height:100px;position:fixed; top:25%;        transform: translate(-50%, -50%);left:58%""></img><img src=""media/f.png""style = ""width:30px x; height:30px;position:fixed; top:43%;    transform: translate(-50%, -50%);left:40%""></img><img src=""media/j.png""style = ""width:30px; height:30px;position:fixed; top:43%;    transform: translate(-50%, -50%);left:60%""></img>","media/stimuli/inanimate_011_left.png","inanimate","left","single","media/stimuli/animate_001_left.png","animate","left","single","media/stimuli/inanimate_012_left.png","inanimate","left","single","animacy_identity"
"","","","","","html-keyboard-response","110","541733","0.0-110.0","SS1678233198223","5baa535fa3c9170001156197","6406d7f26dd5b7fc1e3377bd","6407ce62a1290db6e721459c","1210","849","","1422","","j","","","","","","","<img src=""media/stimuli/animate_010_right.png"" class=""coveredImage test"" style = ""width:100px; height:100px; position:fixed; top:10%;    transform: translate(-50%, -50%);left:48%""></img><img src=""media/stimuli/inanimate_004_right.png"" class=""coveredImage test"" style = ""width:100px; height:100px;position:fixed; top:25%;        transform: translate(-50%, -50%);left:38%""></img><img src=""media/stimuli/animate_010_right.png"" class=""coveredImage test"" style = ""width:100px; height:100px;position:fixed; top:25%;        transform: translate(-50%, -50%);left:54.5%""></img><img src=""media/stimuli/animate_010_right.png"" class=""coveredImage test"" style = ""width:100px; height:100px;position:fixed; top:25%;        transform: translate(-50%, -50%);left:61.5%""></img><img src=""media/f.png""style = ""width:30px x; height:30px;position:fixed; top:43%;    transform: translate(-50%, -50%);left:40%""></img><img src=""media/j.png""style = ""width:30px; height:30px;position:fixed; top:43%;    transform: translate(-50%, -50%);left:60%""></img>","media/stimuli/animate_010_right.png","animate","right","single","media/stimuli/inanimate_004_right.png","inanimate","right","single","media/stimuli/animate_010_right.png","animate","right","pair","animacy_number"
"","","","","","html-keyboard-response","111","543893","0.0-111.0","SS1678233198223","5baa535fa3c9170001156197","6406d7f26dd5b7fc1e3377bd","6407ce62a1290db6e721459c","1210","849","","2157","","d","","","","","","","","","","","","","","","","","","","",""
"","","","","","survey-likert","112","549418","0.0-112.0","SS1678233198223","5baa535fa3c9170001156197","6406d7f26dd5b7fc1e3377bd","6407ce62a1290db6e721459c","1210","849","","5522","","{""Q0"":1}","[0]","complexity","media/stimuli/inanimate_010_left.png","inanimate","pair","left","","","","","","","","","","","","","",""
"","","","","","survey-likert","113","552495","0.0-113.0","SS1678233198223","5baa535fa3c9170001156197","6406d7f26dd5b7fc1e3377bd","6407ce62a1290db6e721459c","1210","849","","3073","","{""Q0"":1}","[0]","complexity","media/stimuli/animate_009_left.png","animate","pair","left","","","","","","","","","","","","","",""
"","","","","","survey-likert","114","555493","0.0-114.0","SS1678233198223","5baa535fa3c9170001156197","6406d7f26dd5b7fc1e3377bd","6407ce62a1290db6e721459c","1210","849","","2994","","{""Q0"":2}","[0]","complexity","media/stimuli/animate_003_right.png","animate","pair","right","","","","","","","","","","","","","",""
"","","","","","survey-likert","115","558195","0.0-115.0","SS1678233198223","5baa535fa3c9170001156197","6406d7f26dd5b7fc1e3377bd","6407ce62a1290db6e721459c","1210","849","","2700","","{""Q0"":2}","[0]","complexity","media/stimuli/animate_012_right.png","animate","single","right","","","","","","","","","","","","","",""
"","","","","","survey-likert","116","562031","0.0-116.0","SS1678233198223","5baa535fa3c9170001156197","6406d7f26dd5b7fc1e3377bd","6407ce62a1290db6e721459c","1210","849","","3834","","{""Q0"":2}","[0]","complexity","media/stimuli/inanimate_011_right.png","inanimate","pair","right","","","","","","","","","","","","","",""
"","","","","","survey-likert","117","565372","0.0-117.0","SS1678233198223","5baa535fa3c9170001156197","6406d7f26dd5b7fc1e3377bd","6407ce62a1290db6e721459c","1210","849","","3337","","{""Q0"":2}","[0]","complexity","media/stimuli/animate_002_left.png","animate","pair","left","","","","","","","","","","","","","",""
"","","","","","survey-likert","118","568857","0.0-118.0","SS1678233198223","5baa535fa3c9170001156197","6406d7f26dd5b7fc1e3377bd","6407ce62a1290db6e721459c","1210","849","","3482","","{""Q0"":1}","[0]","complexity","media/stimuli/inanimate_006_right.png","inanimate","pair","right","","","","","","","","","","","","","",""
"","","","","","survey-likert","119","572247","0.0-119.0","SS1678233198223","5baa535fa3c9170001156197","6406d7f26dd5b7fc1e3377bd","6407ce62a1290db6e721459c","1210","849","","3387","","{""Q0"":1}","[0]","complexity","media/stimuli/animate_005_right.png","animate","single","right","","","","","","","","","","","","","",""
"","","","","","survey-likert","120","575474","0.0-120.0","SS1678233198223","5baa535fa3c9170001156197","6406d7f26dd5b7fc1e3377bd","6407ce62a1290db6e721459c","1210","849","","3224","","{""Q0"":1}","[0]","complexity","media/stimuli/inanimate_009_left.png","inanimate","pair","left","","","","","","","","","","","","","",""
"","","","","","survey-likert","121","578346","0.0-121.0","SS1678233198223","5baa535fa3c9170001156197","6406d7f26dd5b7fc1e3377bd","6407ce62a1290db6e721459c","1210","849","","2869","","{""Q0"":1}","[0]","complexity","media/stimuli/inanimate_006_left.png","inanimate","single","left","","","","","","","","","","","","","",""
"","","","","","survey-likert","122","581125","0.0-122.0","SS1678233198223","5baa535fa3c9170001156197","6406d7f26dd5b7fc1e3377bd","6407ce62a1290db6e721459c","1210","849","","2777","","{""Q0"":2}","[0]","complexity","media/stimuli/animate_008_right.png","animate","single","right","","","","","","","","","","","","","",""
"","","","","","survey-likert","123","586450","0.0-123.0","SS1678233198223","5baa535fa3c9170001156197","6406d7f26dd5b7fc1e3377bd","6407ce62a1290db6e721459c","1210","849","","5321","","{""Q0"":2}","[0]","complexity","media/stimuli/animate_006_right.png","animate","single","right","","","","","","","","","","","","","",""
"","","","","","html-keyboard-response","124","588757","0.0-124.0","SS1678233198223","5baa535fa3c9170001156197","6406d7f26dd5b7fc1e3377bd","6407ce62a1290db6e721459c","1210","849","","2306","","r","","","","","","","","","","","","","","","","","","","",""
"","","","","","html-keyboard-response","125","592062","0.0-125.0","SS1678233198223","5baa535fa3c9170001156197","6406d7f26dd5b7fc1e3377bd","6407ce62a1290db6e721459c","1210","849","","3301","","j","","","","","","","<img src=""media/stimuli/animate_007_left.png"" class=""coveredImage test"" style = ""width:100px; height:100px; position:fixed; top:10%;    transform: translate(-50%, -50%);left:44.5%""></img><img src=""media/stimuli/animate_007_left.png"" class=""coveredImage test"" style = ""width:100px; height:100px; position:fixed; top:10%;    transform: translate(-50%, -50%);left:51.5%""></img><img src=""media/stimuli/animate_003_left.png"" class=""coveredImage test"" style = ""width:100px; height:100px;position:fixed; top:25%;        transform: translate(-50%, -50%);left:34.5%""></img><img src=""media/stimuli/animate_003_left.png"" class=""coveredImage test"" style = ""width:100px; height:100px;position:fixed; top:25%;        transform: translate(-50%, -50%);left:41.5%""></img><img src=""media/stimuli/animate_007_left.png"" class=""coveredImage test"" style = ""width:100px; height:100px;position:fixed; top:25%;        transform: translate(-50%, -50%);left:58%""></img><img src=""media/f.png""style = ""width:30px x; height:30px;position:fixed; top:43%;    transform: translate(-50%, -50%);left:40%""></img><img src=""media/j.png""style = ""width:30px; height:30px;position:fixed; top:43%;    transform: translate(-50%, -50%);left:60%""></img>","media/stimuli/animate_007_left.png","animate","left","pair","media/stimuli/animate_003_left.png","animate","left","pair","media/stimuli/animate_007_left.png","animate","left","single","identity_number"
"","","","","","html-keyboard-response","126","592902","0.0-126.0","SS1678233198223","5baa535fa3c9170001156197","6406d7f26dd5b7fc1e3377bd","6407ce62a1290db6e721459c","1210","849","","838","","j","","","","","","","<img src=""media/stimuli/inanimate_004_right.png"" class=""coveredImage test"" style = ""width:100px; height:100px; position:fixed; top:10%;    transform: translate(-50%, -50%);left:44.5%""></img><img src=""media/stimuli/inanimate_004_right.png"" class=""coveredImage test"" style = ""width:100px; height:100px; position:fixed; top:10%;    transform: translate(-50%, -50%);left:51.5%""></img><img src=""media/stimuli/animate_011_left.png"" class=""coveredImage test"" style = ""width:100px; height:100px;position:fixed; top:25%;        transform: translate(-50%, -50%);left:38%""></img><img src=""media/stimuli/inanimate_004_right.png"" class=""coveredImage test"" style = ""width:100px; height:100px;position:fixed; top:25%;        transform: translate(-50%, -50%);left:58%""></img><img src=""media/f.png""style = ""width:30px x; height:30px;position:fixed; top:43%;    transform: translate(-50%, -50%);left:40%""></img><img src=""media/j.png""style = ""width:30px; height:30px;position:fixed; top:43%;    transform: translate(-50%, -50%);left:60%""></img>","media/stimuli/inanimate_004_right.png","inanimate","right","pair","media/stimuli/animate_011_left.png","animate","left","single","media/stimuli/inanimate_004_right.png","inanimate","right","single","animacy_pose"
"","","","","","html-keyboard-response","127","593918","0.0-127.0","SS1678233198223","5baa535fa3c9170001156197","6406d7f26dd5b7fc1e3377bd","6407ce62a1290db6e721459c","1210","849","","1013","","f","","","","","","","<img src=""media/stimuli/animate_006_left.png"" class=""coveredImage test"" style = ""width:100px; height:100px; position:fixed; top:10%;    transform: translate(-50%, -50%);left:44.5%""></img><img src=""media/stimuli/animate_006_left.png"" class=""coveredImage test"" style = ""width:100px; height:100px; position:fixed; top:10%;    transform: translate(-50%, -50%);left:51.5%""></img><img src=""media/stimuli/animate_006_left.png"" class=""coveredImage test"" style = ""width:100px; height:100px;position:fixed; top:25%;        transform: translate(-50%, -50%);left:38%""></img><img src=""media/stimuli/animate_011_left.png"" class=""coveredImage test"" style = ""width:100px; height:100px;position:fixed; top:25%;        transform: translate(-50%, -50%);left:54.5%""></img><img src=""media/stimuli/animate_011_left.png"" class=""coveredImage test"" style = ""width:100px; height:100px;position:fixed; top:25%;        transform: translate(-50%, -50%);left:61.5%""></img><img src=""media/f.png""style = ""width:30px x; height:30px;position:fixed; top:43%;    transform: translate(-50%, -50%);left:40%""></img><img src=""media/j.png""style = ""width:30px; height:30px;position:fixed; top:43%;    transform: translate(-50%, -50%);left:60%""></img>","media/stimuli/animate_006_left.png","animate","left","pair","media/stimuli/animate_006_left.png","animate","left","single","media/stimuli/animate_011_left.png","animate","left","pair","number_identity"
"","","","","","html-keyboard-response","128","595342","0.0-128.0","SS1678233198223","5baa535fa3c9170001156197","6406d7f26dd5b7fc1e3377bd","6407ce62a1290db6e721459c","1210","849","","1421","","f","","","","","","","<img src=""media/stimuli/inanimate_005_left.png"" class=""coveredImage test"" style = ""width:100px; height:100px; position:fixed; top:10%;    transform: translate(-50%, -50%);left:48%""></img><img src=""media/stimuli/inanimate_007_left.png"" class=""coveredImage test"" style = ""width:100px; height:100px;position:fixed; top:25%;        transform: translate(-50%, -50%);left:38%""></img><img src=""media/stimuli/animate_009_left.png"" class=""coveredImage test"" style = ""width:100px; height:100px;position:fixed; top:25%;        transform: translate(-50%, -50%);left:58%""></img><img src=""media/f.png""style = ""width:30px x; height:30px;position:fixed; top:43%;    transform: translate(-50%, -50%);left:40%""></img><img src=""media/j.png""style = ""width:30px; height:30px;position:fixed; top:43%;    transform: translate(-50%, -50%);left:60%""></img>","media/stimuli/inanimate_005_left.png","inanimate","left","single","media/stimuli/inanimate_007_left.png","inanimate","left","single","media/stimuli/animate_009_left.png","animate","left","single","identity_animacy"
"","","","","","html-keyboard-response","129","596942","0.0-129.0","SS1678233198223","5baa535fa3c9170001156197","6406d7f26dd5b7fc1e3377bd","6407ce62a1290db6e721459c","1210","849","","1597","","j","","","","","","","<img src=""media/stimuli/inanimate_005_left.png"" class=""coveredImage test"" style = ""width:100px; height:100px; position:fixed; top:10%;    transform: translate(-50%, -50%);left:48%""></img><img src=""media/stimuli/animate_005_left.png"" class=""coveredImage test"" style = ""width:100px; height:100px;position:fixed; top:25%;        transform: translate(-50%, -50%);left:38%""></img><img src=""media/stimuli/inanimate_003_left.png"" class=""coveredImage test"" style = ""width:100px; height:100px;position:fixed; top:25%;        transform: translate(-50%, -50%);left:58%""></img><img src=""media/f.png""style = ""width:30px x; height:30px;position:fixed; top:43%;    transform: translate(-50%, -50%);left:40%""></img><img src=""media/j.png""style = ""width:30px; height:30px;position:fixed; top:43%;    transform: translate(-50%, -50%);left:60%""></img>","media/stimuli/inanimate_005_left.png","inanimate","left","single","media/stimuli/animate_005_left.png","animate","left","single","media/stimuli/inanimate_003_left.png","inanimate","left","single","animacy_identity"
"","","","","","html-keyboard-response","130","597757","0.0-130.0","SS1678233198223","5baa535fa3c9170001156197","6406d7f26dd5b7fc1e3377bd","6407ce62a1290db6e721459c","1210","849","","811","","j","","","","","","","<img src=""media/stimuli/inanimate_001_right.png"" class=""coveredImage test"" style = ""width:100px; height:100px; position:fixed; top:10%;    transform: translate(-50%, -50%);left:48%""></img><img src=""media/stimuli/animate_004_right.png"" class=""coveredImage test"" style = ""width:100px; height:100px;position:fixed; top:25%;        transform: translate(-50%, -50%);left:38%""></img><img src=""media/stimuli/inanimate_001_right.png"" class=""coveredImage test"" style = ""width:100px; height:100px;position:fixed; top:25%;        transform: translate(-50%, -50%);left:58%""></img><img src=""media/f.png""style = ""width:30px x; height:30px;position:fixed; top:43%;    transform: translate(-50%, -50%);left:40%""></img><img src=""media/j.png""style = ""width:30px; height:30px;position:fixed; top:43%;    transform: translate(-50%, -50%);left:60%""></img>","media/stimuli/inanimate_001_right.png","inanimate","right","single","media/stimuli/animate_004_right.png","animate","right","single","media/stimuli/inanimate_001_right.png","inanimate","right","single","animacy_filler"
"","","","","","html-keyboard-response","131","598830","0.0-131.0","SS1678233198223","5baa535fa3c9170001156197","6406d7f26dd5b7fc1e3377bd","6407ce62a1290db6e721459c","1210","849","","1070","","j","","","","","","","<img src=""media/stimuli/animate_006_left.png"" class=""coveredImage test"" style = ""width:100px; height:100px; position:fixed; top:10%;    transform: translate(-50%, -50%);left:44.5%""></img><img src=""media/stimuli/animate_006_left.png"" class=""coveredImage test"" style = ""width:100px; height:100px; position:fixed; top:10%;    transform: translate(-50%, -50%);left:51.5%""></img><img src=""media/stimuli/inanimate_001_left.png"" class=""coveredImage test"" style = ""width:100px; height:100px;position:fixed; top:25%;        transform: translate(-50%, -50%);left:34.5%""></img><img src=""media/stimuli/inanimate_001_left.png"" class=""coveredImage test"" style = ""width:100px; height:100px;position:fixed; top:25%;        transform: translate(-50%, -50%);left:41.5%""></img><img src=""media/stimuli/animate_006_left.png"" class=""coveredImage test"" style = ""width:100px; height:100px;position:fixed; top:25%;        transform: translate(-50%, -50%);left:58%""></img><img src=""media/f.png""style = ""width:30px x; height:30px;position:fixed; top:43%;    transform: translate(-50%, -50%);left:40%""></img><img src=""media/j.png""style = ""width:30px; height:30px;position:fixed; top:43%;    transform: translate(-50%, -50%);left:60%""></img>","media/stimuli/animate_006_left.png","animate","left","pair","media/stimuli/inanimate_001_left.png","inanimate","left","pair","media/stimuli/animate_006_left.png","animate","left","single","animacy_number"
"","","","","","html-keyboard-response","132","599782","0.0-132.0","SS1678233198223","5baa535fa3c9170001156197","6406d7f26dd5b7fc1e3377bd","6407ce62a1290db6e721459c","1210","849","","949","","f","","","","","","","<img src=""media/stimuli/animate_008_left.png"" class=""coveredImage test"" style = ""width:100px; height:100px; position:fixed; top:10%;    transform: translate(-50%, -50%);left:48%""></img><img src=""media/stimuli/animate_008_right.png"" class=""coveredImage test"" style = ""width:100px; height:100px;position:fixed; top:25%;        transform: translate(-50%, -50%);left:38%""></img><img src=""media/stimuli/animate_010_left.png"" class=""coveredImage test"" style = ""width:100px; height:100px;position:fixed; top:25%;        transform: translate(-50%, -50%);left:58%""></img><img src=""media/f.png""style = ""width:30px x; height:30px;position:fixed; top:43%;    transform: translate(-50%, -50%);left:40%""></img><img src=""media/j.png""style = ""width:30px; height:30px;position:fixed; top:43%;    transform: translate(-50%, -50%);left:60%""></img>","media/stimuli/animate_008_left.png","animate","left","single","media/stimuli/animate_008_right.png","animate","right","single","media/stimuli/animate_010_left.png","animate","left","single","pose_identity"
"","","","","","html-keyboard-response","133","600709","0.0-133.0","SS1678233198223","5baa535fa3c9170001156197","6406d7f26dd5b7fc1e3377bd","6407ce62a1290db6e721459c","1210","849","","924","","f","","","","","","","<img src=""media/stimuli/animate_008_left.png"" class=""coveredImage test"" style = ""width:100px; height:100px; position:fixed; top:10%;    transform: translate(-50%, -50%);left:44.5%""></img><img src=""media/stimuli/animate_008_left.png"" class=""coveredImage test"" style = ""width:100px; height:100px; position:fixed; top:10%;    transform: translate(-50%, -50%);left:51.5%""></img><img src=""media/stimuli/animate_008_left.png"" class=""coveredImage test"" style = ""width:100px; height:100px;position:fixed; top:25%;        transform: translate(-50%, -50%);left:38%""></img><img src=""media/stimuli/inanimate_011_right.png"" class=""coveredImage test"" style = ""width:100px; height:100px;position:fixed; top:25%;        transform: translate(-50%, -50%);left:58%""></img><img src=""media/f.png""style = ""width:30px x; height:30px;position:fixed; top:43%;    transform: translate(-50%, -50%);left:40%""></img><img src=""media/j.png""style = ""width:30px; height:30px;position:fixed; top:43%;    transform: translate(-50%, -50%);left:60%""></img>","media/stimuli/animate_008_left.png","animate","left","pair","media/stimuli/animate_008_left.png","animate","left","single","media/stimuli/inanimate_011_right.png","inanimate","right","single","pose_animacy"
"","","","","","html-keyboard-response","134","601726","0.0-134.0","SS1678233198223","5baa535fa3c9170001156197","6406d7f26dd5b7fc1e3377bd","6407ce62a1290db6e721459c","1210","849","","1014","","f","","","","","","","<img src=""media/stimuli/inanimate_001_right.png"" class=""coveredImage test"" style = ""width:100px; height:100px; position:fixed; top:10%;    transform: translate(-50%, -50%);left:48%""></img><img src=""media/stimuli/inanimate_001_right.png"" class=""coveredImage test"" style = ""width:100px; height:100px;position:fixed; top:25%;        transform: translate(-50%, -50%);left:38%""></img><img src=""media/stimuli/inanimate_002_right.png"" class=""coveredImage test"" style = ""width:100px; height:100px;position:fixed; top:25%;        transform: translate(-50%, -50%);left:58%""></img><img src=""media/f.png""style = ""width:30px x; height:30px;position:fixed; top:43%;    transform: translate(-50%, -50%);left:40%""></img><img src=""media/j.png""style = ""width:30px; height:30px;position:fixed; top:43%;    transform: translate(-50%, -50%);left:60%""></img>","media/stimuli/inanimate_001_right.png","inanimate","right","single","media/stimuli/inanimate_001_right.png","inanimate","right","single","media/stimuli/inanimate_002_right.png","inanimate","right","single","filler_identity"
"","","","","","html-keyboard-response","135","604533","0.0-135.0","SS1678233198223","5baa535fa3c9170001156197","6406d7f26dd5b7fc1e3377bd","6407ce62a1290db6e721459c","1210","849","","2803","","j","","","","","","","<img src=""media/stimuli/animate_011_right.png"" class=""coveredImage test"" style = ""width:100px; height:100px; position:fixed; top:10%;    transform: translate(-50%, -50%);left:48%""></img><img src=""media/stimuli/animate_011_right.png"" class=""coveredImage test"" style = ""width:100px; height:100px;position:fixed; top:25%;        transform: translate(-50%, -50%);left:34.5%""></img><img src=""media/stimuli/animate_011_right.png"" class=""coveredImage test"" style = ""width:100px; height:100px;position:fixed; top:25%;        transform: translate(-50%, -50%);left:41.5%""></img><img src=""media/stimuli/animate_011_left.png"" class=""coveredImage test"" style = ""width:100px; height:100px;position:fixed; top:25%;        transform: translate(-50%, -50%);left:58%""></img><img src=""media/f.png""style = ""width:30px x; height:30px;position:fixed; top:43%;    transform: translate(-50%, -50%);left:40%""></img><img src=""media/j.png""style = ""width:30px; height:30px;position:fixed; top:43%;    transform: translate(-50%, -50%);left:60%""></img>","media/stimuli/animate_011_right.png","animate","right","single","media/stimuli/animate_011_right.png","animate","right","pair","media/stimuli/animate_011_left.png","animate","left","single","number_pose"
"","","","","","html-keyboard-response","136","605613","0.0-136.0","SS1678233198223","5baa535fa3c9170001156197","6406d7f26dd5b7fc1e3377bd","6407ce62a1290db6e721459c","1210","849","","1077","","f","","","","","","","<img src=""media/stimuli/inanimate_003_left.png"" class=""coveredImage test"" style = ""width:100px; height:100px; position:fixed; top:10%;    transform: translate(-50%, -50%);left:48%""></img><img src=""media/stimuli/inanimate_003_left.png"" class=""coveredImage test"" style = ""width:100px; height:100px;position:fixed; top:25%;        transform: translate(-50%, -50%);left:34.5%""></img><img src=""media/stimuli/inanimate_003_left.png"" class=""coveredImage test"" style = ""width:100px; height:100px;position:fixed; top:25%;        transform: translate(-50%, -50%);left:41.5%""></img><img src=""media/stimuli/animate_011_left.png"" class=""coveredImage test"" style = ""width:100px; height:100px;position:fixed; top:25%;        transform: translate(-50%, -50%);left:58%""></img><img src=""media/f.png""style = ""width:30px x; height:30px;position:fixed; top:43%;    transform: translate(-50%, -50%);left:40%""></img><img src=""media/j.png""style = ""width:30px; height:30px;position:fixed; top:43%;    transform: translate(-50%, -50%);left:60%""></img>","media/stimuli/inanimate_003_left.png","inanimate","left","single","media/stimuli/inanimate_003_left.png","inanimate","left","pair","media/stimuli/animate_011_left.png","animate","left","single","number_animacy"
"","","","","","html-keyboard-response","137","607758","0.0-137.0","SS1678233198223","5baa535fa3c9170001156197","6406d7f26dd5b7fc1e3377bd","6407ce62a1290db6e721459c","1210","849","","2142","","e","","","","","","","","","","","","","","","","","","","",""
"","","","","","html-keyboard-response","138","611774","0.0-138.0","SS1678233198223","5baa535fa3c9170001156197","6406d7f26dd5b7fc1e3377bd","6407ce62a1290db6e721459c","1210","849","","4012","","f","","","","","","","<img src=""media/stimuli/inanimate_001_left.png"" class=""coveredImage test"" style = ""width:100px; height:100px; position:fixed; top:10%;    transform: translate(-50%, -50%);left:48%""></img><img src=""media/stimuli/inanimate_010_left.png"" class=""coveredImage test"" style = ""width:100px; height:100px;position:fixed; top:25%;        transform: translate(-50%, -50%);left:38%""></img><img src=""media/stimuli/animate_004_left.png"" class=""coveredImage test"" style = ""width:100px; height:100px;position:fixed; top:25%;        transform: translate(-50%, -50%);left:58%""></img><img src=""media/f.png""style = ""width:30px x; height:30px;position:fixed; top:43%;    transform: translate(-50%, -50%);left:40%""></img><img src=""media/j.png""style = ""width:30px; height:30px;position:fixed; top:43%;    transform: translate(-50%, -50%);left:60%""></img>","media/stimuli/inanimate_001_left.png","inanimate","left","single","media/stimuli/inanimate_010_left.png","inanimate","left","single","media/stimuli/animate_004_left.png","animate","left","single","identity_animacy"
"","","","","","html-keyboard-response","139","612998","0.0-139.0","SS1678233198223","5baa535fa3c9170001156197","6406d7f26dd5b7fc1e3377bd","6407ce62a1290db6e721459c","1210","849","","1222","","j","","","","","","","<img src=""media/stimuli/animate_009_left.png"" class=""coveredImage test"" style = ""width:100px; height:100px; position:fixed; top:10%;    transform: translate(-50%, -50%);left:44.5%""></img><img src=""media/stimuli/animate_009_left.png"" class=""coveredImage test"" style = ""width:100px; height:100px; position:fixed; top:10%;    transform: translate(-50%, -50%);left:51.5%""></img><img src=""media/stimuli/animate_007_left.png"" class=""coveredImage test"" style = ""width:100px; height:100px;position:fixed; top:25%;        transform: translate(-50%, -50%);left:34.5%""></img><img src=""media/stimuli/animate_007_left.png"" class=""coveredImage test"" style = ""width:100px; height:100px;position:fixed; top:25%;        transform: translate(-50%, -50%);left:41.5%""></img><img src=""media/stimuli/animate_009_left.png"" class=""coveredImage test"" style = ""width:100px; height:100px;position:fixed; top:25%;        transform: translate(-50%, -50%);left:58%""></img><img src=""media/f.png""style = ""width:30px x; height:30px;position:fixed; top:43%;    transform: translate(-50%, -50%);left:40%""></img><img src=""media/j.png""style = ""width:30px; height:30px;position:fixed; top:43%;    transform: translate(-50%, -50%);left:60%""></img>","media/stimuli/animate_009_left.png","animate","left","pair","media/stimuli/animate_007_left.png","animate","left","pair","media/stimuli/animate_009_left.png","animate","left","single","identity_number"
"","","","","","html-keyboard-response","140","613926","0.0-140.0","SS1678233198223","5baa535fa3c9170001156197","6406d7f26dd5b7fc1e3377bd","6407ce62a1290db6e721459c","1210","849","","924","","j","","","","","","","<img src=""media/stimuli/inanimate_002_left.png"" class=""coveredImage test"" style = ""width:100px; height:100px; position:fixed; top:10%;    transform: translate(-50%, -50%);left:44.5%""></img><img src=""media/stimuli/inanimate_002_left.png"" class=""coveredImage test"" style = ""width:100px; height:100px; position:fixed; top:10%;    transform: translate(-50%, -50%);left:51.5%""></img><img src=""media/stimuli/inanimate_010_left.png"" class=""coveredImage test"" style = ""width:100px; height:100px;position:fixed; top:25%;        transform: translate(-50%, -50%);left:34.5%""></img><img src=""media/stimuli/inanimate_010_left.png"" class=""coveredImage test"" style = ""width:100px; height:100px;position:fixed; top:25%;        transform: translate(-50%, -50%);left:41.5%""></img><img src=""media/stimuli/inanimate_002_left.png"" class=""coveredImage test"" style = ""width:100px; height:100px;position:fixed; top:25%;        transform: translate(-50%, -50%);left:58%""></img><img src=""media/f.png""style = ""width:30px x; height:30px;position:fixed; top:43%;    transform: translate(-50%, -50%);left:40%""></img><img src=""media/j.png""style = ""width:30px; height:30px;position:fixed; top:43%;    transform: translate(-50%, -50%);left:60%""></img>","media/stimuli/inanimate_002_left.png","inanimate","left","pair","media/stimuli/inanimate_010_left.png","inanimate","left","pair","media/stimuli/inanimate_002_left.png","inanimate","left","single","identity_number"
"","","","","","html-keyboard-response","141","614773","0.0-141.0","SS1678233198223","5baa535fa3c9170001156197","6406d7f26dd5b7fc1e3377bd","6407ce62a1290db6e721459c","1210","849","","844","","f","","","","","","","<img src=""media/stimuli/animate_002_right.png"" class=""coveredImage test"" style = ""width:100px; height:100px; position:fixed; top:10%;    transform: translate(-50%, -50%);left:44.5%""></img><img src=""media/stimuli/animate_002_right.png"" class=""coveredImage test"" style = ""width:100px; height:100px; position:fixed; top:10%;    transform: translate(-50%, -50%);left:51.5%""></img><img src=""media/stimuli/animate_002_right.png"" class=""coveredImage test"" style = ""width:100px; height:100px;position:fixed; top:25%;        transform: translate(-50%, -50%);left:38%""></img><img src=""media/stimuli/animate_003_right.png"" class=""coveredImage test"" style = ""width:100px; height:100px;position:fixed; top:25%;        transform: translate(-50%, -50%);left:54.5%""></img><img src=""media/stimuli/animate_003_right.png"" class=""coveredImage test"" style = ""width:100px; height:100px;position:fixed; top:25%;        transform: translate(-50%, -50%);left:61.5%""></img><img src=""media/f.png""style = ""width:30px x; height:30px;position:fixed; top:43%;    transform: translate(-50%, -50%);left:40%""></img><img src=""media/j.png""style = ""width:30px; height:30px;position:fixed; top:43%;    transform: translate(-50%, -50%);left:60%""></img>","media/stimuli/animate_002_right.png","animate","right","pair","media/stimuli/animate_002_right.png","animate","right","single","media/stimuli/animate_003_right.png","animate","right","pair","number_identity"
"","","","","","html-keyboard-response","142","615575","0.0-142.0","SS1678233198223","5baa535fa3c9170001156197","6406d7f26dd5b7fc1e3377bd","6407ce62a1290db6e721459c","1210","849","","797","","f","","","","","","","<img src=""media/stimuli/inanimate_004_right.png"" class=""coveredImage test"" style = ""width:100px; height:100px; position:fixed; top:10%;    transform: translate(-50%, -50%);left:44.5%""></img><img src=""media/stimuli/inanimate_004_right.png"" class=""coveredImage test"" style = ""width:100px; height:100px; position:fixed; top:10%;    transform: translate(-50%, -50%);left:51.5%""></img><img src=""media/stimuli/inanimate_004_right.png"" class=""coveredImage test"" style = ""width:100px; height:100px;position:fixed; top:25%;        transform: translate(-50%, -50%);left:38%""></img><img src=""media/stimuli/animate_001_left.png"" class=""coveredImage test"" style = ""width:100px; height:100px;position:fixed; top:25%;        transform: translate(-50%, -50%);left:58%""></img><img src=""media/f.png""style = ""width:30px x; height:30px;position:fixed; top:43%;    transform: translate(-50%, -50%);left:40%""></img><img src=""media/j.png""style = ""width:30px; height:30px;position:fixed; top:43%;    transform: translate(-50%, -50%);left:60%""></img>","media/stimuli/inanimate_004_right.png","inanimate","right","pair","media/stimuli/inanimate_004_right.png","inanimate","right","single","media/stimuli/animate_001_left.png","animate","left","single","pose_animacy"
"","","","","","html-keyboard-response","143","616422","0.0-143.0","SS1678233198223","5baa535fa3c9170001156197","6406d7f26dd5b7fc1e3377bd","6407ce62a1290db6e721459c","1210","849","","843","","j","","","","","","","<img src=""media/stimuli/inanimate_012_left.png"" class=""coveredImage test"" style = ""width:100px; height:100px; position:fixed; top:10%;    transform: translate(-50%, -50%);left:48%""></img><img src=""media/stimuli/inanimate_003_left.png"" class=""coveredImage test"" style = ""width:100px; height:100px;position:fixed; top:25%;        transform: translate(-50%, -50%);left:38%""></img><img src=""media/stimuli/inanimate_012_right.png"" class=""coveredImage test"" style = ""width:100px; height:100px;position:fixed; top:25%;        transform: translate(-50%, -50%);left:58%""></img><img src=""media/f.png""style = ""width:30px x; height:30px;position:fixed; top:43%;    transform: translate(-50%, -50%);left:40%""></img><img src=""media/j.png""style = ""width:30px; height:30px;position:fixed; top:43%;    transform: translate(-50%, -50%);left:60%""></img>","media/stimuli/inanimate_012_left.png","inanimate","left","single","media/stimuli/inanimate_003_left.png","inanimate","left","single","media/stimuli/inanimate_012_right.png","inanimate","right","single","identity_pose"
"","","","","","html-keyboard-response","144","617734","0.0-144.0","SS1678233198223","5baa535fa3c9170001156197","6406d7f26dd5b7fc1e3377bd","6407ce62a1290db6e721459c","1210","849","","1309","","j","","","","","","","<img src=""media/stimuli/animate_012_right.png"" class=""coveredImage test"" style = ""width:100px; height:100px; position:fixed; top:10%;    transform: translate(-50%, -50%);left:44.5%""></img><img src=""media/stimuli/animate_012_right.png"" class=""coveredImage test"" style = ""width:100px; height:100px; position:fixed; top:10%;    transform: translate(-50%, -50%);left:51.5%""></img><img src=""media/stimuli/animate_012_right.png"" class=""coveredImage test"" style = ""width:100px; height:100px;position:fixed; top:25%;        transform: translate(-50%, -50%);left:38%""></img><img src=""media/stimuli/animate_012_left.png"" class=""coveredImage test"" style = ""width:100px; height:100px;position:fixed; top:25%;        transform: translate(-50%, -50%);left:54.5%""></img><img src=""media/stimuli/animate_012_left.png"" class=""coveredImage test"" style = ""width:100px; height:100px;position:fixed; top:25%;        transform: translate(-50%, -50%);left:61.5%""></img><img src=""media/f.png""style = ""width:30px x; height:30px;position:fixed; top:43%;    transform: translate(-50%, -50%);left:40%""></img><img src=""media/j.png""style = ""width:30px; height:30px;position:fixed; top:43%;    transform: translate(-50%, -50%);left:60%""></img>","media/stimuli/animate_012_right.png","animate","right","pair","media/stimuli/animate_012_right.png","animate","right","single","media/stimuli/animate_012_left.png","animate","left","pair","number_pose"
