"success","timeout","failed_images","failed_audio","failed_video","trial_type","trial_index","time_elapsed","internal_node_id","subject","prolific_id","study","session","window_width","window_height","view_history","rt","stimulus_type","response","question_order","rating_type","rating_stimulus","rating_animacy","rating_number","rating_pose","stimulus","target","target_animacy","target_pose","target_number","left","left_animacy","left_pose","left_number","right","right_animacy","right_pose","right_number","comparison_type"
"true","false","[]","[]","[]","preload","0","2805","0.0-0.0","SS1678234570123","5f0d2ad60ad0d6730c380b05","6406d7f26dd5b7fc1e3377bd","6407ce5e1303b33aace80a84","1536","779","","","","","","","","","","","","","","","","","","","","","","","",""
"","","","","","instructions","1","93907","0.0-1.0","SS1678234570123","5f0d2ad60ad0d6730c380b05","6406d7f26dd5b7fc1e3377bd","6407ce5e1303b33aace80a84","1536","779","[{""page_index"":0,""viewing_time"":91100}]","91100","","","","","","","","","","","","","","","","","","","","","",""
"","","","","","instructions","2","128578","0.0-2.0","SS1678234570123","5f0d2ad60ad0d6730c380b05","6406d7f26dd5b7fc1e3377bd","6407ce5e1303b33aace80a84","1536","779","[{""page_index"":0,""viewing_time"":32666}]","32668","instructions","","","","","","","","","","","","","","","","","","","","",""
"","","","","","instructions","3","133258","0.0-3.0","SS1678234570123","5f0d2ad60ad0d6730c380b05","6406d7f26dd5b7fc1e3377bd","6407ce5e1303b33aace80a84","1536","779","[{""page_index"":0,""viewing_time"":4677}]","4677","instructions","","","","","","","","","","","","","","","","","","","","",""
"","","","","","survey-likert","4","167796","0.0-4.0","SS1678234570123","5f0d2ad60ad0d6730c380b05","6406d7f26dd5b7fc1e3377bd","6407ce5e1303b33aace80a84","1536","779","","34535","","{""Q0"":4}","[0]","anchoring","","","","","","","","","","","","","","","","","",""
"","","","","","survey-likert","5","189794","0.0-5.0","SS1678234570123","5f0d2ad60ad0d6730c380b05","6406d7f26dd5b7fc1e3377bd","6407ce5e1303b33aace80a84","1536","779","","21993","","{""Q0"":2}","[0]","anchoring","","","","","","","","","","","","","","","","","",""
"","","","","","instructions","6","193817","0.0-6.0","SS1678234570123","5f0d2ad60ad0d6730c380b05","6406d7f26dd5b7fc1e3377bd","6407ce5e1303b33aace80a84","1536","779","[{""page_index"":0,""viewing_time"":4021}]","4021","instructions","","","","","","","","","","","","","","","","","","","","",""
"true","","","","","fullscreen","7","206224","0.0-7.0","SS1678234570123","5f0d2ad60ad0d6730c380b05","6406d7f26dd5b7fc1e3377bd","6407ce5e1303b33aace80a84","1536","779","","","","","","","","","","","","","","","","","","","","","","","",""
"","","","","","survey-likert","8","239834","0.0-8.0","SS1678234570123","5f0d2ad60ad0d6730c380b05","6406d7f26dd5b7fc1e3377bd","6407ce5e1303b33aace80a84","1536","779","","33607","","{""Q0"":3}","[0]","complexity","media/stimuli/animate_010_right.png","animate","pair","right","","","","","","","","","","","","","",""
"","","","","","survey-likert","9","260377","0.0-9.0","SS1678234570123","5f0d2ad60ad0d6730c380b05","6406d7f26dd5b7fc1e3377bd","6407ce5e1303b33aace80a84","1536","779","","20541","","{""Q0"":3}","[0]","complexity","media/stimuli/animate_001_left.png","animate","single","left","","","","","","","","","","","","","",""
"","","","","","survey-likert","10","266505","0.0-10.0","SS1678234570123","5f0d2ad60ad0d6730c380b05","6406d7f26dd5b7fc1e3377bd","6407ce5e1303b33aace80a84","1536","779","","6123","","{""Q0"":1}","[0]","complexity","media/stimuli/inanimate_002_right.png","inanimate","single","right","","","","","","","","","","","","","",""
"","","","","","survey-likert","11","281417","0.0-11.0","SS1678234570123","5f0d2ad60ad0d6730c380b05","6406d7f26dd5b7fc1e3377bd","6407ce5e1303b33aace80a84","1536","779","","14909","","{""Q0"":3}","[0]","complexity","media/stimuli/inanimate_011_right.png","inanimate","pair","right","","","","","","","","","","","","","",""
"","","","","","survey-likert","12","289688","0.0-12.0","SS1678234570123","5f0d2ad60ad0d6730c380b05","6406d7f26dd5b7fc1e3377bd","6407ce5e1303b33aace80a84","1536","779","","8268","","{""Q0"":3}","[0]","complexity","media/stimuli/inanimate_012_right.png","inanimate","pair","right","","","","","","","","","","","","","",""
"","","","","","survey-likert","13","293929","0.0-13.0","SS1678234570123","5f0d2ad60ad0d6730c380b05","6406d7f26dd5b7fc1e3377bd","6407ce5e1303b33aace80a84","1536","779","","4237","","{""Q0"":2}","[0]","complexity","media/stimuli/inanimate_005_right.png","inanimate","single","right","","","","","","","","","","","","","",""
"","","","","","survey-likert","14","300649","0.0-14.0","SS1678234570123","5f0d2ad60ad0d6730c380b05","6406d7f26dd5b7fc1e3377bd","6407ce5e1303b33aace80a84","1536","779","","6718","","{""Q0"":3}","[0]","complexity","media/stimuli/animate_002_right.png","animate","pair","right","","","","","","","","","","","","","",""
"","","","","","survey-likert","15","306266","0.0-15.0","SS1678234570123","5f0d2ad60ad0d6730c380b05","6406d7f26dd5b7fc1e3377bd","6407ce5e1303b33aace80a84","1536","779","","5614","","{""Q0"":2}","[0]","complexity","media/stimuli/inanimate_004_left.png","inanimate","single","left","","","","","","","","","","","","","",""
"","","","","","survey-likert","16","310176","0.0-16.0","SS1678234570123","5f0d2ad60ad0d6730c380b05","6406d7f26dd5b7fc1e3377bd","6407ce5e1303b33aace80a84","1536","779","","3909","","{""Q0"":3}","[0]","complexity","media/stimuli/animate_007_left.png","animate","single","left","","","","","","","","","","","","","",""
"","","","","","survey-likert","17","313672","0.0-17.0","SS1678234570123","5f0d2ad60ad0d6730c380b05","6406d7f26dd5b7fc1e3377bd","6407ce5e1303b33aace80a84","1536","779","","3493","","{""Q0"":3}","[0]","complexity","media/stimuli/animate_005_right.png","animate","single","right","","","","","","","","","","","","","",""
"","","","","","survey-likert","18","320591","0.0-18.0","SS1678234570123","5f0d2ad60ad0d6730c380b05","6406d7f26dd5b7fc1e3377bd","6407ce5e1303b33aace80a84","1536","779","","6917","","{""Q0"":3}","[0]","complexity","media/stimuli/inanimate_006_right.png","inanimate","single","right","","","","","","","","","","","","","",""
"","","","","","survey-likert","19","324049","0.0-19.0","SS1678234570123","5f0d2ad60ad0d6730c380b05","6406d7f26dd5b7fc1e3377bd","6407ce5e1303b33aace80a84","1536","779","","3455","","{""Q0"":3}","[0]","complexity","media/stimuli/inanimate_008_right.png","inanimate","single","right","","","","","","","","","","","","","",""
"","","","","","html-keyboard-response","20","328900","0.0-20.0","SS1678234570123","5f0d2ad60ad0d6730c380b05","6406d7f26dd5b7fc1e3377bd","6407ce5e1303b33aace80a84","1536","779","","4848",""," ","","","","","","","","","","","","","","","","","","","",""
"","","","","","html-keyboard-response","21","377269","0.0-21.0","SS1678234570123","5f0d2ad60ad0d6730c380b05","6406d7f26dd5b7fc1e3377bd","6407ce5e1303b33aace80a84","1536","779","","48367","","f","","","","","","","<img src=""media/stimuli/animate_005_left.png"" class=""coveredImage test"" style = ""width:100px; height:100px; position:fixed; top:10%;    transform: translate(-50%, -50%);left:44.5%""></img><img src=""media/stimuli/animate_005_left.png"" class=""coveredImage test"" style = ""width:100px; height:100px; position:fixed; top:10%;    transform: translate(-50%, -50%);left:51.5%""></img><img src=""media/stimuli/animate_005_left.png"" class=""coveredImage test"" style = ""width:100px; height:100px;position:fixed; top:25%;        transform: translate(-50%, -50%);left:38%""></img><img src=""media/stimuli/inanimate_002_right.png"" class=""coveredImage test"" style = ""width:100px; height:100px;position:fixed; top:25%;        transform: translate(-50%, -50%);left:58%""></img><img src=""media/f.png""style = ""width:30px x; height:30px;position:fixed; top:43%;    transform: translate(-50%, -50%);left:40%""></img><img src=""media/j.png""style = ""width:30px; height:30px;position:fixed; top:43%;    transform: translate(-50%, -50%);left:60%""></img>","media/stimuli/animate_005_left.png","animate","left","pair","media/stimuli/animate_005_left.png","animate","left","single","media/stimuli/inanimate_002_right.png","inanimate","right","single","pose_animacy"
"","","","","","html-keyboard-response","22","380588","0.0-22.0","SS1678234570123","5f0d2ad60ad0d6730c380b05","6406d7f26dd5b7fc1e3377bd","6407ce5e1303b33aace80a84","1536","779","","3318","","f","","","","","","","<img src=""media/stimuli/animate_001_right.png"" class=""coveredImage test"" style = ""width:100px; height:100px; position:fixed; top:10%;    transform: translate(-50%, -50%);left:48%""></img><img src=""media/stimuli/animate_003_right.png"" class=""coveredImage test"" style = ""width:100px; height:100px;position:fixed; top:25%;        transform: translate(-50%, -50%);left:38%""></img><img src=""media/stimuli/inanimate_009_right.png"" class=""coveredImage test"" style = ""width:100px; height:100px;position:fixed; top:25%;        transform: translate(-50%, -50%);left:58%""></img><img src=""media/f.png""style = ""width:30px x; height:30px;position:fixed; top:43%;    transform: translate(-50%, -50%);left:40%""></img><img src=""media/j.png""style = ""width:30px; height:30px;position:fixed; top:43%;    transform: translate(-50%, -50%);left:60%""></img>","media/stimuli/animate_001_right.png","animate","right","single","media/stimuli/animate_003_right.png","animate","right","single","media/stimuli/inanimate_009_right.png","inanimate","right","single","identity_animacy"
"","","","","","html-keyboard-response","23","381863","0.0-23.0","SS1678234570123","5f0d2ad60ad0d6730c380b05","6406d7f26dd5b7fc1e3377bd","6407ce5e1303b33aace80a84","1536","779","","1272","","j","","","","","","","<img src=""media/stimuli/inanimate_012_right.png"" class=""coveredImage test"" style = ""width:100px; height:100px; position:fixed; top:10%;    transform: translate(-50%, -50%);left:44.5%""></img><img src=""media/stimuli/inanimate_012_right.png"" class=""coveredImage test"" style = ""width:100px; height:100px; position:fixed; top:10%;    transform: translate(-50%, -50%);left:51.5%""></img><img src=""media/stimuli/animate_001_right.png"" class=""coveredImage test"" style = ""width:100px; height:100px;position:fixed; top:25%;        transform: translate(-50%, -50%);left:34.5%""></img><img src=""media/stimuli/animate_001_right.png"" class=""coveredImage test"" style = ""width:100px; height:100px;position:fixed; top:25%;        transform: translate(-50%, -50%);left:41.5%""></img><img src=""media/stimuli/inanimate_012_right.png"" class=""coveredImage test"" style = ""width:100px; height:100px;position:fixed; top:25%;        transform: translate(-50%, -50%);left:58%""></img><img src=""media/f.png""style = ""width:30px x; height:30px;position:fixed; top:43%;    transform: translate(-50%, -50%);left:40%""></img><img src=""media/j.png""style = ""width:30px; height:30px;position:fixed; top:43%;    transform: translate(-50%, -50%);left:60%""></img>","media/stimuli/inanimate_012_right.png","inanimate","right","pair","media/stimuli/animate_001_right.png","animate","right","pair","media/stimuli/inanimate_012_right.png","inanimate","right","single","animacy_number"
"","","","","","html-keyboard-response","24","383955","0.0-24.0","SS1678234570123","5f0d2ad60ad0d6730c380b05","6406d7f26dd5b7fc1e3377bd","6407ce5e1303b33aace80a84","1536","779","","2089","","f","","","","","","","<img src=""media/stimuli/animate_012_left.png"" class=""coveredImage test"" style = ""width:100px; height:100px; position:fixed; top:10%;    transform: translate(-50%, -50%);left:44.5%""></img><img src=""media/stimuli/animate_012_left.png"" class=""coveredImage test"" style = ""width:100px; height:100px; position:fixed; top:10%;    transform: translate(-50%, -50%);left:51.5%""></img><img src=""media/stimuli/animate_012_right.png"" class=""coveredImage test"" style = ""width:100px; height:100px;position:fixed; top:25%;        transform: translate(-50%, -50%);left:34.5%""></img><img src=""media/stimuli/animate_012_right.png"" class=""coveredImage test"" style = ""width:100px; height:100px;position:fixed; top:25%;        transform: translate(-50%, -50%);left:41.5%""></img><img src=""media/stimuli/animate_004_left.png"" class=""coveredImage test"" style = ""width:100px; height:100px;position:fixed; top:25%;        transform: translate(-50%, -50%);left:54.5%""></img><img src=""media/stimuli/animate_004_left.png"" class=""coveredImage test"" style = ""width:100px; height:100px;position:fixed; top:25%;        transform: translate(-50%, -50%);left:61.5%""></img><img src=""media/f.png""style = ""width:30px x; height:30px;position:fixed; top:43%;    transform: translate(-50%, -50%);left:40%""></img><img src=""media/j.png""style = ""width:30px; height:30px;position:fixed; top:43%;    transform: translate(-50%, -50%);left:60%""></img>","media/stimuli/animate_012_left.png","animate","left","pair","media/stimuli/animate_012_right.png","animate","right","pair","media/stimuli/animate_004_left.png","animate","left","pair","pose_identity"
"","","","","","html-keyboard-response","25","395595","0.0-25.0","SS1678234570123","5f0d2ad60ad0d6730c380b05","6406d7f26dd5b7fc1e3377bd","6407ce5e1303b33aace80a84","1536","779","","11637","","j","","","","","","","<img src=""media/stimuli/inanimate_007_right.png"" class=""coveredImage test"" style = ""width:100px; height:100px; position:fixed; top:10%;    transform: translate(-50%, -50%);left:48%""></img><img src=""media/stimuli/inanimate_002_right.png"" class=""coveredImage test"" style = ""width:100px; height:100px;position:fixed; top:25%;        transform: translate(-50%, -50%);left:38%""></img><img src=""media/stimuli/inanimate_007_right.png"" class=""coveredImage test"" style = ""width:100px; height:100px;position:fixed; top:25%;        transform: translate(-50%, -50%);left:54.5%""></img><img src=""media/stimuli/inanimate_007_right.png"" class=""coveredImage test"" style = ""width:100px; height:100px;position:fixed; top:25%;        transform: translate(-50%, -50%);left:61.5%""></img><img src=""media/f.png""style = ""width:30px x; height:30px;position:fixed; top:43%;    transform: translate(-50%, -50%);left:40%""></img><img src=""media/j.png""style = ""width:30px; height:30px;position:fixed; top:43%;    transform: translate(-50%, -50%);left:60%""></img>","media/stimuli/inanimate_007_right.png","inanimate","right","single","media/stimuli/inanimate_002_right.png","inanimate","right","single","media/stimuli/inanimate_007_right.png","inanimate","right","pair","identity_number"
"","","","","","html-keyboard-response","26","397153","0.0-26.0","SS1678234570123","5f0d2ad60ad0d6730c380b05","6406d7f26dd5b7fc1e3377bd","6407ce5e1303b33aace80a84","1536","779","","1556","","f","","","","","","","<img src=""media/stimuli/inanimate_010_right.png"" class=""coveredImage test"" style = ""width:100px; height:100px; position:fixed; top:10%;    transform: translate(-50%, -50%);left:48%""></img><img src=""media/stimuli/inanimate_010_left.png"" class=""coveredImage test"" style = ""width:100px; height:100px;position:fixed; top:25%;        transform: translate(-50%, -50%);left:38%""></img><img src=""media/stimuli/inanimate_003_right.png"" class=""coveredImage test"" style = ""width:100px; height:100px;position:fixed; top:25%;        transform: translate(-50%, -50%);left:58%""></img><img src=""media/f.png""style = ""width:30px x; height:30px;position:fixed; top:43%;    transform: translate(-50%, -50%);left:40%""></img><img src=""media/j.png""style = ""width:30px; height:30px;position:fixed; top:43%;    transform: translate(-50%, -50%);left:60%""></img>","media/stimuli/inanimate_010_right.png","inanimate","right","single","media/stimuli/inanimate_010_left.png","inanimate","left","single","media/stimuli/inanimate_003_right.png","inanimate","right","single","pose_identity"
"","","","","","html-keyboard-response","27","398879","0.0-27.0","SS1678234570123","5f0d2ad60ad0d6730c380b05","6406d7f26dd5b7fc1e3377bd","6407ce5e1303b33aace80a84","1536","779","","1724","","j","","","","","","","<img src=""media/stimuli/animate_007_left.png"" class=""coveredImage test"" style = ""width:100px; height:100px; position:fixed; top:10%;    transform: translate(-50%, -50%);left:48%""></img><img src=""media/stimuli/inanimate_001_left.png"" class=""coveredImage test"" style = ""width:100px; height:100px;position:fixed; top:25%;        transform: translate(-50%, -50%);left:38%""></img><img src=""media/stimuli/animate_007_left.png"" class=""coveredImage test"" style = ""width:100px; height:100px;position:fixed; top:25%;        transform: translate(-50%, -50%);left:54.5%""></img><img src=""media/stimuli/animate_007_left.png"" class=""coveredImage test"" style = ""width:100px; height:100px;position:fixed; top:25%;        transform: translate(-50%, -50%);left:61.5%""></img><img src=""media/f.png""style = ""width:30px x; height:30px;position:fixed; top:43%;    transform: translate(-50%, -50%);left:40%""></img><img src=""media/j.png""style = ""width:30px; height:30px;position:fixed; top:43%;    transform: translate(-50%, -50%);left:60%""></img>","media/stimuli/animate_007_left.png","animate","left","single","media/stimuli/inanimate_001_left.png","inanimate","left","single","media/stimuli/animate_007_left.png","animate","left","pair","animacy_number"
"","","","","","html-keyboard-response","28","414749","0.0-28.0","SS1678234570123","5f0d2ad60ad0d6730c380b05","6406d7f26dd5b7fc1e3377bd","6407ce5e1303b33aace80a84","1536","779","","15868","","j","","","","","","","<img src=""media/stimuli/animate_009_left.png"" class=""coveredImage test"" style = ""width:100px; height:100px; position:fixed; top:10%;    transform: translate(-50%, -50%);left:44.5%""></img><img src=""media/stimuli/animate_009_left.png"" class=""coveredImage test"" style = ""width:100px; height:100px; position:fixed; top:10%;    transform: translate(-50%, -50%);left:51.5%""></img><img src=""media/stimuli/animate_009_right.png"" class=""coveredImage test"" style = ""width:100px; height:100px;position:fixed; top:25%;        transform: translate(-50%, -50%);left:34.5%""></img><img src=""media/stimuli/animate_009_right.png"" class=""coveredImage test"" style = ""width:100px; height:100px;position:fixed; top:25%;        transform: translate(-50%, -50%);left:41.5%""></img><img src=""media/stimuli/animate_009_left.png"" class=""coveredImage test"" style = ""width:100px; height:100px;position:fixed; top:25%;        transform: translate(-50%, -50%);left:58%""></img><img src=""media/f.png""style = ""width:30px x; height:30px;position:fixed; top:43%;    transform: translate(-50%, -50%);left:40%""></img><img src=""media/j.png""style = ""width:30px; height:30px;position:fixed; top:43%;    transform: translate(-50%, -50%);left:60%""></img>","media/stimuli/animate_009_left.png","animate","left","pair","media/stimuli/animate_009_right.png","animate","right","pair","media/stimuli/animate_009_left.png","animate","left","single","pose_number"
"","","","","","html-keyboard-response","29","416750","0.0-29.0","SS1678234570123","5f0d2ad60ad0d6730c380b05","6406d7f26dd5b7fc1e3377bd","6407ce5e1303b33aace80a84","1536","779","","1999","","f","","","","","","","<img src=""media/stimuli/inanimate_008_left.png"" class=""coveredImage test"" style = ""width:100px; height:100px; position:fixed; top:10%;    transform: translate(-50%, -50%);left:44.5%""></img><img src=""media/stimuli/inanimate_008_left.png"" class=""coveredImage test"" style = ""width:100px; height:100px; position:fixed; top:10%;    transform: translate(-50%, -50%);left:51.5%""></img><img src=""media/stimuli/inanimate_008_left.png"" class=""coveredImage test"" style = ""width:100px; height:100px;position:fixed; top:25%;        transform: translate(-50%, -50%);left:38%""></img><img src=""media/stimuli/inanimate_001_left.png"" class=""coveredImage test"" style = ""width:100px; height:100px;position:fixed; top:25%;        transform: translate(-50%, -50%);left:54.5%""></img><img src=""media/stimuli/inanimate_001_left.png"" class=""coveredImage test"" style = ""width:100px; height:100px;position:fixed; top:25%;        transform: translate(-50%, -50%);left:61.5%""></img><img src=""media/f.png""style = ""width:30px x; height:30px;position:fixed; top:43%;    transform: translate(-50%, -50%);left:40%""></img><img src=""media/j.png""style = ""width:30px; height:30px;position:fixed; top:43%;    transform: translate(-50%, -50%);left:60%""></img>","media/stimuli/inanimate_008_left.png","inanimate","left","pair","media/stimuli/inanimate_008_left.png","inanimate","left","single","media/stimuli/inanimate_001_left.png","inanimate","left","pair","number_identity"
"","","","","","html-keyboard-response","30","441482","0.0-30.0","SS1678234570123","5f0d2ad60ad0d6730c380b05","6406d7f26dd5b7fc1e3377bd","6407ce5e1303b33aace80a84","1536","779","","24729","","f","","","","","","","<img src=""media/stimuli/inanimate_007_left.png"" class=""coveredImage test"" style = ""width:100px; height:100px; position:fixed; top:10%;    transform: translate(-50%, -50%);left:44.5%""></img><img src=""media/stimuli/inanimate_007_left.png"" class=""coveredImage test"" style = ""width:100px; height:100px; position:fixed; top:10%;    transform: translate(-50%, -50%);left:51.5%""></img><img src=""media/stimuli/inanimate_007_right.png"" class=""coveredImage test"" style = ""width:100px; height:100px;position:fixed; top:25%;        transform: translate(-50%, -50%);left:34.5%""></img><img src=""media/stimuli/inanimate_007_right.png"" class=""coveredImage test"" style = ""width:100px; height:100px;position:fixed; top:25%;        transform: translate(-50%, -50%);left:41.5%""></img><img src=""media/stimuli/inanimate_007_left.png"" class=""coveredImage test"" style = ""width:100px; height:100px;position:fixed; top:25%;        transform: translate(-50%, -50%);left:58%""></img><img src=""media/f.png""style = ""width:30px x; height:30px;position:fixed; top:43%;    transform: translate(-50%, -50%);left:40%""></img><img src=""media/j.png""style = ""width:30px; height:30px;position:fixed; top:43%;    transform: translate(-50%, -50%);left:60%""></img>","media/stimuli/inanimate_007_left.png","inanimate","left","pair","media/stimuli/inanimate_007_right.png","inanimate","right","pair","media/stimuli/inanimate_007_left.png","inanimate","left","single","pose_number"
"","","","","","html-keyboard-response","31","444267","0.0-31.0","SS1678234570123","5f0d2ad60ad0d6730c380b05","6406d7f26dd5b7fc1e3377bd","6407ce5e1303b33aace80a84","1536","779","","2783","","j","","","","","","","<img src=""media/stimuli/animate_011_right.png"" class=""coveredImage test"" style = ""width:100px; height:100px; position:fixed; top:10%;    transform: translate(-50%, -50%);left:48%""></img><img src=""media/stimuli/animate_003_right.png"" class=""coveredImage test"" style = ""width:100px; height:100px;position:fixed; top:25%;        transform: translate(-50%, -50%);left:38%""></img><img src=""media/stimuli/animate_011_right.png"" class=""coveredImage test"" style = ""width:100px; height:100px;position:fixed; top:25%;        transform: translate(-50%, -50%);left:54.5%""></img><img src=""media/stimuli/animate_011_right.png"" class=""coveredImage test"" style = ""width:100px; height:100px;position:fixed; top:25%;        transform: translate(-50%, -50%);left:61.5%""></img><img src=""media/f.png""style = ""width:30px x; height:30px;position:fixed; top:43%;    transform: translate(-50%, -50%);left:40%""></img><img src=""media/j.png""style = ""width:30px; height:30px;position:fixed; top:43%;    transform: translate(-50%, -50%);left:60%""></img>","media/stimuli/animate_011_right.png","animate","right","single","media/stimuli/animate_003_right.png","animate","right","single","media/stimuli/animate_011_right.png","animate","right","pair","identity_number"
"","","","","","html-keyboard-response","32","446349","0.0-32.0","SS1678234570123","5f0d2ad60ad0d6730c380b05","6406d7f26dd5b7fc1e3377bd","6407ce5e1303b33aace80a84","1536","779","","2079","","f","","","","","","","<img src=""media/stimuli/animate_009_left.png"" class=""coveredImage test"" style = ""width:100px; height:100px; position:fixed; top:10%;    transform: translate(-50%, -50%);left:48%""></img><img src=""media/stimuli/animate_009_left.png"" class=""coveredImage test"" style = ""width:100px; height:100px;position:fixed; top:25%;        transform: translate(-50%, -50%);left:34.5%""></img><img src=""media/stimuli/animate_009_left.png"" class=""coveredImage test"" style = ""width:100px; height:100px;position:fixed; top:25%;        transform: translate(-50%, -50%);left:41.5%""></img><img src=""media/stimuli/animate_012_left.png"" class=""coveredImage test"" style = ""width:100px; height:100px;position:fixed; top:25%;        transform: translate(-50%, -50%);left:58%""></img><img src=""media/f.png""style = ""width:30px x; height:30px;position:fixed; top:43%;    transform: translate(-50%, -50%);left:40%""></img><img src=""media/j.png""style = ""width:30px; height:30px;position:fixed; top:43%;    transform: translate(-50%, -50%);left:60%""></img>","media/stimuli/animate_009_left.png","animate","left","single","media/stimuli/animate_009_left.png","animate","left","pair","media/stimuli/animate_012_left.png","animate","left","single","number_identity"
"","","","","","html-keyboard-response","33","452032","0.0-33.0","SS1678234570123","5f0d2ad60ad0d6730c380b05","6406d7f26dd5b7fc1e3377bd","6407ce5e1303b33aace80a84","1536","779","","5680",""," ","","","","","","","","","","","","","","","","","","","",""
"","","","","","survey-likert","34","462470","0.0-34.0","SS1678234570123","5f0d2ad60ad0d6730c380b05","6406d7f26dd5b7fc1e3377bd","6407ce5e1303b33aace80a84","1536","779","","10437","","{""Q0"":4}","[0]","complexity","media/stimuli/animate_008_right.png","animate","pair","right","","","","","","","","","","","","","",""
"","","","","","survey-likert","35","465342","0.0-35.0","SS1678234570123","5f0d2ad60ad0d6730c380b05","6406d7f26dd5b7fc1e3377bd","6407ce5e1303b33aace80a84","1536","779","","2868","","{""Q0"":3}","[0]","complexity","media/stimuli/inanimate_006_left.png","inanimate","single","left","","","","","","","","","","","","","",""
"","","","","","survey-likert","36","472302","0.0-36.0","SS1678234570123","5f0d2ad60ad0d6730c380b05","6406d7f26dd5b7fc1e3377bd","6407ce5e1303b33aace80a84","1536","779","","6957","","{""Q0"":4}","[0]","complexity","media/stimuli/animate_005_left.png","animate","pair","left","","","","","","","","","","","","","",""
"","","","","","survey-likert","37","476293","0.0-37.0","SS1678234570123","5f0d2ad60ad0d6730c380b05","6406d7f26dd5b7fc1e3377bd","6407ce5e1303b33aace80a84","1536","779","","3989","","{""Q0"":4}","[0]","complexity","media/stimuli/animate_011_right.png","animate","single","right","","","","","","","","","","","","","",""
"","","","","","survey-likert","38","479005","0.0-38.0","SS1678234570123","5f0d2ad60ad0d6730c380b05","6406d7f26dd5b7fc1e3377bd","6407ce5e1303b33aace80a84","1536","779","","2708","","{""Q0"":3}","[0]","complexity","media/stimuli/animate_010_left.png","animate","single","left","","","","","","","","","","","","","",""
"","","","","","survey-likert","39","481694","0.0-39.0","SS1678234570123","5f0d2ad60ad0d6730c380b05","6406d7f26dd5b7fc1e3377bd","6407ce5e1303b33aace80a84","1536","779","","2685","","{""Q0"":3}","[0]","complexity","media/stimuli/inanimate_011_left.png","inanimate","pair","left","","","","","","","","","","","","","",""
"","","","","","survey-likert","40","484357","0.0-40.0","SS1678234570123","5f0d2ad60ad0d6730c380b05","6406d7f26dd5b7fc1e3377bd","6407ce5e1303b33aace80a84","1536","779","","2660","","{""Q0"":3}","[0]","complexity","media/stimuli/inanimate_007_right.png","inanimate","pair","right","","","","","","","","","","","","","",""
"","","","","","survey-likert","41","488014","0.0-41.0","SS1678234570123","5f0d2ad60ad0d6730c380b05","6406d7f26dd5b7fc1e3377bd","6407ce5e1303b33aace80a84","1536","779","","3653","","{""Q0"":3}","[0]","complexity","media/stimuli/animate_009_left.png","animate","pair","left","","","","","","","","","","","","","",""
"","","","","","survey-likert","42","491518","0.0-42.0","SS1678234570123","5f0d2ad60ad0d6730c380b05","6406d7f26dd5b7fc1e3377bd","6407ce5e1303b33aace80a84","1536","779","","3500","","{""Q0"":3}","[0]","complexity","media/stimuli/animate_010_right.png","animate","single","right","","","","","","","","","","","","","",""
"","","","","","survey-likert","43","495942","0.0-43.0","SS1678234570123","5f0d2ad60ad0d6730c380b05","6406d7f26dd5b7fc1e3377bd","6407ce5e1303b33aace80a84","1536","779","","4421","","{""Q0"":4}","[0]","complexity","media/stimuli/animate_003_right.png","animate","single","right","","","","","","","","","","","","","",""
"","","","","","survey-likert","44","500630","0.0-44.0","SS1678234570123","5f0d2ad60ad0d6730c380b05","6406d7f26dd5b7fc1e3377bd","6407ce5e1303b33aace80a84","1536","779","","4686","","{""Q0"":2}","[0]","complexity","media/stimuli/inanimate_003_left.png","inanimate","single","left","","","","","","","","","","","","","",""
"","","","","","survey-likert","45","504573","0.0-45.0","SS1678234570123","5f0d2ad60ad0d6730c380b05","6406d7f26dd5b7fc1e3377bd","6407ce5e1303b33aace80a84","1536","779","","3939","","{""Q0"":3}","[0]","complexity","media/stimuli/inanimate_007_left.png","inanimate","pair","left","","","","","","","","","","","","","",""
"","","","","","html-keyboard-response","46","507858","0.0-46.0","SS1678234570123","5f0d2ad60ad0d6730c380b05","6406d7f26dd5b7fc1e3377bd","6407ce5e1303b33aace80a84","1536","779","","3283",""," ","","","","","","","","","","","","","","","","","","","",""
"","","","","","html-keyboard-response","47","524361","0.0-47.0","SS1678234570123","5f0d2ad60ad0d6730c380b05","6406d7f26dd5b7fc1e3377bd","6407ce5e1303b33aace80a84","1536","779","","16499","","f","","","","","","","<img src=""media/stimuli/inanimate_010_right.png"" class=""coveredImage test"" style = ""width:100px; height:100px; position:fixed; top:10%;    transform: translate(-50%, -50%);left:44.5%""></img><img src=""media/stimuli/inanimate_010_right.png"" class=""coveredImage test"" style = ""width:100px; height:100px; position:fixed; top:10%;    transform: translate(-50%, -50%);left:51.5%""></img><img src=""media/stimuli/inanimate_010_right.png"" class=""coveredImage test"" style = ""width:100px; height:100px;position:fixed; top:25%;        transform: translate(-50%, -50%);left:38%""></img><img src=""media/stimuli/inanimate_003_right.png"" class=""coveredImage test"" style = ""width:100px; height:100px;position:fixed; top:25%;        transform: translate(-50%, -50%);left:54.5%""></img><img src=""media/stimuli/inanimate_003_right.png"" class=""coveredImage test"" style = ""width:100px; height:100px;position:fixed; top:25%;        transform: translate(-50%, -50%);left:61.5%""></img><img src=""media/f.png""style = ""width:30px x; height:30px;position:fixed; top:43%;    transform: translate(-50%, -50%);left:40%""></img><img src=""media/j.png""style = ""width:30px; height:30px;position:fixed; top:43%;    transform: translate(-50%, -50%);left:60%""></img>","media/stimuli/inanimate_010_right.png","inanimate","right","pair","media/stimuli/inanimate_010_right.png","inanimate","right","single","media/stimuli/inanimate_003_right.png","inanimate","right","pair","number_identity"
"","","","","","html-keyboard-response","48","525454","0.0-48.0","SS1678234570123","5f0d2ad60ad0d6730c380b05","6406d7f26dd5b7fc1e3377bd","6407ce5e1303b33aace80a84","1536","779","","1090","","j","","","","","","","<img src=""media/stimuli/inanimate_008_left.png"" class=""coveredImage test"" style = ""width:100px; height:100px; position:fixed; top:10%;    transform: translate(-50%, -50%);left:48%""></img><img src=""media/stimuli/inanimate_005_left.png"" class=""coveredImage test"" style = ""width:100px; height:100px;position:fixed; top:25%;        transform: translate(-50%, -50%);left:38%""></img><img src=""media/stimuli/inanimate_008_right.png"" class=""coveredImage test"" style = ""width:100px; height:100px;position:fixed; top:25%;        transform: translate(-50%, -50%);left:58%""></img><img src=""media/f.png""style = ""width:30px x; height:30px;position:fixed; top:43%;    transform: translate(-50%, -50%);left:40%""></img><img src=""media/j.png""style = ""width:30px; height:30px;position:fixed; top:43%;    transform: translate(-50%, -50%);left:60%""></img>","media/stimuli/inanimate_008_left.png","inanimate","left","single","media/stimuli/inanimate_005_left.png","inanimate","left","single","media/stimuli/inanimate_008_right.png","inanimate","right","single","identity_pose"
"","","","","","html-keyboard-response","49","528049","0.0-49.0","SS1678234570123","5f0d2ad60ad0d6730c380b05","6406d7f26dd5b7fc1e3377bd","6407ce5e1303b33aace80a84","1536","779","","2591","","j","","","","","","","<img src=""media/stimuli/animate_002_right.png"" class=""coveredImage test"" style = ""width:100px; height:100px; position:fixed; top:10%;    transform: translate(-50%, -50%);left:44.5%""></img><img src=""media/stimuli/animate_002_right.png"" class=""coveredImage test"" style = ""width:100px; height:100px; position:fixed; top:10%;    transform: translate(-50%, -50%);left:51.5%""></img><img src=""media/stimuli/animate_007_right.png"" class=""coveredImage test"" style = ""width:100px; height:100px;position:fixed; top:25%;        transform: translate(-50%, -50%);left:34.5%""></img><img src=""media/stimuli/animate_007_right.png"" class=""coveredImage test"" style = ""width:100px; height:100px;position:fixed; top:25%;        transform: translate(-50%, -50%);left:41.5%""></img><img src=""media/stimuli/animate_002_left.png"" class=""coveredImage test"" style = ""width:100px; height:100px;position:fixed; top:25%;        transform: translate(-50%, -50%);left:54.5%""></img><img src=""media/stimuli/animate_002_left.png"" class=""coveredImage test"" style = ""width:100px; height:100px;position:fixed; top:25%;        transform: translate(-50%, -50%);left:61.5%""></img><img src=""media/f.png""style = ""width:30px x; height:30px;position:fixed; top:43%;    transform: translate(-50%, -50%);left:40%""></img><img src=""media/j.png""style = ""width:30px; height:30px;position:fixed; top:43%;    transform: translate(-50%, -50%);left:60%""></img>","media/stimuli/animate_002_right.png","animate","right","pair","media/stimuli/animate_007_right.png","animate","right","pair","media/stimuli/animate_002_left.png","animate","left","pair","identity_pose"
"","","","","","html-keyboard-response","50","530367","0.0-50.0","SS1678234570123","5f0d2ad60ad0d6730c380b05","6406d7f26dd5b7fc1e3377bd","6407ce5e1303b33aace80a84","1536","779","","2315","","f","","","","","","","<img src=""media/stimuli/inanimate_010_right.png"" class=""coveredImage test"" style = ""width:100px; height:100px; position:fixed; top:10%;    transform: translate(-50%, -50%);left:44.5%""></img><img src=""media/stimuli/inanimate_010_right.png"" class=""coveredImage test"" style = ""width:100px; height:100px; position:fixed; top:10%;    transform: translate(-50%, -50%);left:51.5%""></img><img src=""media/stimuli/inanimate_002_right.png"" class=""coveredImage test"" style = ""width:100px; height:100px;position:fixed; top:25%;        transform: translate(-50%, -50%);left:34.5%""></img><img src=""media/stimuli/inanimate_002_right.png"" class=""coveredImage test"" style = ""width:100px; height:100px;position:fixed; top:25%;        transform: translate(-50%, -50%);left:41.5%""></img><img src=""media/stimuli/animate_004_right.png"" class=""coveredImage test"" style = ""width:100px; height:100px;position:fixed; top:25%;        transform: translate(-50%, -50%);left:54.5%""></img><img src=""media/stimuli/animate_004_right.png"" class=""coveredImage test"" style = ""width:100px; height:100px;position:fixed; top:25%;        transform: translate(-50%, -50%);left:61.5%""></img><img src=""media/f.png""style = ""width:30px x; height:30px;position:fixed; top:43%;    transform: translate(-50%, -50%);left:40%""></img><img src=""media/j.png""style = ""width:30px; height:30px;position:fixed; top:43%;    transform: translate(-50%, -50%);left:60%""></img>","media/stimuli/inanimate_010_right.png","inanimate","right","pair","media/stimuli/inanimate_002_right.png","inanimate","right","pair","media/stimuli/animate_004_right.png","animate","right","pair","identity_animacy"
"","","","","","html-keyboard-response","51","533369","0.0-51.0","SS1678234570123","5f0d2ad60ad0d6730c380b05","6406d7f26dd5b7fc1e3377bd","6407ce5e1303b33aace80a84","1536","779","","2999","","f","","","","","","","<img src=""media/stimuli/inanimate_011_right.png"" class=""coveredImage test"" style = ""width:100px; height:100px; position:fixed; top:10%;    transform: translate(-50%, -50%);left:44.5%""></img><img src=""media/stimuli/inanimate_011_right.png"" class=""coveredImage test"" style = ""width:100px; height:100px; position:fixed; top:10%;    transform: translate(-50%, -50%);left:51.5%""></img><img src=""media/stimuli/inanimate_005_right.png"" class=""coveredImage test"" style = ""width:100px; height:100px;position:fixed; top:25%;        transform: translate(-50%, -50%);left:34.5%""></img><img src=""media/stimuli/inanimate_005_right.png"" class=""coveredImage test"" style = ""width:100px; height:100px;position:fixed; top:25%;        transform: translate(-50%, -50%);left:41.5%""></img><img src=""media/stimuli/animate_002_right.png"" class=""coveredImage test"" style = ""width:100px; height:100px;position:fixed; top:25%;        transform: translate(-50%, -50%);left:54.5%""></img><img src=""media/stimuli/animate_002_right.png"" class=""coveredImage test"" style = ""width:100px; height:100px;position:fixed; top:25%;        transform: translate(-50%, -50%);left:61.5%""></img><img src=""media/f.png""style = ""width:30px x; height:30px;position:fixed; top:43%;    transform: translate(-50%, -50%);left:40%""></img><img src=""media/j.png""style = ""width:30px; height:30px;position:fixed; top:43%;    transform: translate(-50%, -50%);left:60%""></img>","media/stimuli/inanimate_011_right.png","inanimate","right","pair","media/stimuli/inanimate_005_right.png","inanimate","right","pair","media/stimuli/animate_002_right.png","animate","right","pair","identity_animacy"
"","","","","","html-keyboard-response","52","538417","0.0-52.0","SS1678234570123","5f0d2ad60ad0d6730c380b05","6406d7f26dd5b7fc1e3377bd","6407ce5e1303b33aace80a84","1536","779","","5044","","f","","","","","","","<img src=""media/stimuli/inanimate_002_right.png"" class=""coveredImage test"" style = ""width:100px; height:100px; position:fixed; top:10%;    transform: translate(-50%, -50%);left:44.5%""></img><img src=""media/stimuli/inanimate_002_right.png"" class=""coveredImage test"" style = ""width:100px; height:100px; position:fixed; top:10%;    transform: translate(-50%, -50%);left:51.5%""></img><img src=""media/stimuli/inanimate_002_left.png"" class=""coveredImage test"" style = ""width:100px; height:100px;position:fixed; top:25%;        transform: translate(-50%, -50%);left:34.5%""></img><img src=""media/stimuli/inanimate_002_left.png"" class=""coveredImage test"" style = ""width:100px; height:100px;position:fixed; top:25%;        transform: translate(-50%, -50%);left:41.5%""></img><img src=""media/stimuli/inanimate_002_right.png"" class=""coveredImage test"" style = ""width:100px; height:100px;position:fixed; top:25%;        transform: translate(-50%, -50%);left:58%""></img><img src=""media/f.png""style = ""width:30px x; height:30px;position:fixed; top:43%;    transform: translate(-50%, -50%);left:40%""></img><img src=""media/j.png""style = ""width:30px; height:30px;position:fixed; top:43%;    transform: translate(-50%, -50%);left:60%""></img>","media/stimuli/inanimate_002_right.png","inanimate","right","pair","media/stimuli/inanimate_002_left.png","inanimate","left","pair","media/stimuli/inanimate_002_right.png","inanimate","right","single","pose_number"
"","","","","","html-keyboard-response","53","545373","0.0-53.0","SS1678234570123","5f0d2ad60ad0d6730c380b05","6406d7f26dd5b7fc1e3377bd","6407ce5e1303b33aace80a84","1536","779","","6954","","f","","","","","","","<img src=""media/stimuli/inanimate_006_left.png"" class=""coveredImage test"" style = ""width:100px; height:100px; position:fixed; top:10%;    transform: translate(-50%, -50%);left:48%""></img><img src=""media/stimuli/inanimate_006_right.png"" class=""coveredImage test"" style = ""width:100px; height:100px;position:fixed; top:25%;        transform: translate(-50%, -50%);left:38%""></img><img src=""media/stimuli/inanimate_006_left.png"" class=""coveredImage test"" style = ""width:100px; height:100px;position:fixed; top:25%;        transform: translate(-50%, -50%);left:54.5%""></img><img src=""media/stimuli/inanimate_006_left.png"" class=""coveredImage test"" style = ""width:100px; height:100px;position:fixed; top:25%;        transform: translate(-50%, -50%);left:61.5%""></img><img src=""media/f.png""style = ""width:30px x; height:30px;position:fixed; top:43%;    transform: translate(-50%, -50%);left:40%""></img><img src=""media/j.png""style = ""width:30px; height:30px;position:fixed; top:43%;    transform: translate(-50%, -50%);left:60%""></img>","media/stimuli/inanimate_006_left.png","inanimate","left","single","media/stimuli/inanimate_006_right.png","inanimate","right","single","media/stimuli/inanimate_006_left.png","inanimate","left","pair","pose_number"
"","","","","","html-keyboard-response","54","547420","0.0-54.0","SS1678234570123","5f0d2ad60ad0d6730c380b05","6406d7f26dd5b7fc1e3377bd","6407ce5e1303b33aace80a84","1536","779","","2045","","f","","","","","","","<img src=""media/stimuli/animate_012_left.png"" class=""coveredImage test"" style = ""width:100px; height:100px; position:fixed; top:10%;    transform: translate(-50%, -50%);left:44.5%""></img><img src=""media/stimuli/animate_012_left.png"" class=""coveredImage test"" style = ""width:100px; height:100px; position:fixed; top:10%;    transform: translate(-50%, -50%);left:51.5%""></img><img src=""media/stimuli/animate_012_right.png"" class=""coveredImage test"" style = ""width:100px; height:100px;position:fixed; top:25%;        transform: translate(-50%, -50%);left:34.5%""></img><img src=""media/stimuli/animate_012_right.png"" class=""coveredImage test"" style = ""width:100px; height:100px;position:fixed; top:25%;        transform: translate(-50%, -50%);left:41.5%""></img><img src=""media/stimuli/animate_012_left.png"" class=""coveredImage test"" style = ""width:100px; height:100px;position:fixed; top:25%;        transform: translate(-50%, -50%);left:58%""></img><img src=""media/f.png""style = ""width:30px x; height:30px;position:fixed; top:43%;    transform: translate(-50%, -50%);left:40%""></img><img src=""media/j.png""style = ""width:30px; height:30px;position:fixed; top:43%;    transform: translate(-50%, -50%);left:60%""></img>","media/stimuli/animate_012_left.png","animate","left","pair","media/stimuli/animate_012_right.png","animate","right","pair","media/stimuli/animate_012_left.png","animate","left","single","pose_number"
"","","","","","html-keyboard-response","55","549195","0.0-55.0","SS1678234570123","5f0d2ad60ad0d6730c380b05","6406d7f26dd5b7fc1e3377bd","6407ce5e1303b33aace80a84","1536","779","","1772","","j","","","","","","","<img src=""media/stimuli/animate_009_left.png"" class=""coveredImage test"" style = ""width:100px; height:100px; position:fixed; top:10%;    transform: translate(-50%, -50%);left:48%""></img><img src=""media/stimuli/inanimate_009_right.png"" class=""coveredImage test"" style = ""width:100px; height:100px;position:fixed; top:25%;        transform: translate(-50%, -50%);left:34.5%""></img><img src=""media/stimuli/inanimate_009_right.png"" class=""coveredImage test"" style = ""width:100px; height:100px;position:fixed; top:25%;        transform: translate(-50%, -50%);left:41.5%""></img><img src=""media/stimuli/animate_009_left.png"" class=""coveredImage test"" style = ""width:100px; height:100px;position:fixed; top:25%;        transform: translate(-50%, -50%);left:54.5%""></img><img src=""media/stimuli/animate_009_left.png"" class=""coveredImage test"" style = ""width:100px; height:100px;position:fixed; top:25%;        transform: translate(-50%, -50%);left:61.5%""></img><img src=""media/f.png""style = ""width:30px x; height:30px;position:fixed; top:43%;    transform: translate(-50%, -50%);left:40%""></img><img src=""media/j.png""style = ""width:30px; height:30px;position:fixed; top:43%;    transform: translate(-50%, -50%);left:60%""></img>","media/stimuli/animate_009_left.png","animate","left","single","media/stimuli/inanimate_009_right.png","inanimate","right","pair","media/stimuli/animate_009_left.png","animate","left","pair","animacy_pose"
"","","","","","html-keyboard-response","56","550834","0.0-56.0","SS1678234570123","5f0d2ad60ad0d6730c380b05","6406d7f26dd5b7fc1e3377bd","6407ce5e1303b33aace80a84","1536","779","","1636","","f","","","","","","","<img src=""media/stimuli/animate_003_left.png"" class=""coveredImage test"" style = ""width:100px; height:100px; position:fixed; top:10%;    transform: translate(-50%, -50%);left:44.5%""></img><img src=""media/stimuli/animate_003_left.png"" class=""coveredImage test"" style = ""width:100px; height:100px; position:fixed; top:10%;    transform: translate(-50%, -50%);left:51.5%""></img><img src=""media/stimuli/animate_003_right.png"" class=""coveredImage test"" style = ""width:100px; height:100px;position:fixed; top:25%;        transform: translate(-50%, -50%);left:34.5%""></img><img src=""media/stimuli/animate_003_right.png"" class=""coveredImage test"" style = ""width:100px; height:100px;position:fixed; top:25%;        transform: translate(-50%, -50%);left:41.5%""></img><img src=""media/stimuli/animate_004_left.png"" class=""coveredImage test"" style = ""width:100px; height:100px;position:fixed; top:25%;        transform: translate(-50%, -50%);left:54.5%""></img><img src=""media/stimuli/animate_004_left.png"" class=""coveredImage test"" style = ""width:100px; height:100px;position:fixed; top:25%;        transform: translate(-50%, -50%);left:61.5%""></img><img src=""media/f.png""style = ""width:30px x; height:30px;position:fixed; top:43%;    transform: translate(-50%, -50%);left:40%""></img><img src=""media/j.png""style = ""width:30px; height:30px;position:fixed; top:43%;    transform: translate(-50%, -50%);left:60%""></img>","media/stimuli/animate_003_left.png","animate","left","pair","media/stimuli/animate_003_right.png","animate","right","pair","media/stimuli/animate_004_left.png","animate","left","pair","pose_identity"
"","","","","","html-keyboard-response","57","551926","0.0-57.0","SS1678234570123","5f0d2ad60ad0d6730c380b05","6406d7f26dd5b7fc1e3377bd","6407ce5e1303b33aace80a84","1536","779","","1089","","f","","","","","","","<img src=""media/stimuli/animate_012_right.png"" class=""coveredImage test"" style = ""width:100px; height:100px; position:fixed; top:10%;    transform: translate(-50%, -50%);left:48%""></img><img src=""media/stimuli/animate_012_right.png"" class=""coveredImage test"" style = ""width:100px; height:100px;position:fixed; top:25%;        transform: translate(-50%, -50%);left:34.5%""></img><img src=""media/stimuli/animate_012_right.png"" class=""coveredImage test"" style = ""width:100px; height:100px;position:fixed; top:25%;        transform: translate(-50%, -50%);left:41.5%""></img><img src=""media/stimuli/inanimate_004_right.png"" class=""coveredImage test"" style = ""width:100px; height:100px;position:fixed; top:25%;        transform: translate(-50%, -50%);left:58%""></img><img src=""media/f.png""style = ""width:30px x; height:30px;position:fixed; top:43%;    transform: translate(-50%, -50%);left:40%""></img><img src=""media/j.png""style = ""width:30px; height:30px;position:fixed; top:43%;    transform: translate(-50%, -50%);left:60%""></img>","media/stimuli/animate_012_right.png","animate","right","single","media/stimuli/animate_012_right.png","animate","right","pair","media/stimuli/inanimate_004_right.png","inanimate","right","single","number_animacy"
"","","","","","html-keyboard-response","58","563293","0.0-58.0","SS1678234570123","5f0d2ad60ad0d6730c380b05","6406d7f26dd5b7fc1e3377bd","6407ce5e1303b33aace80a84","1536","779","","11364","","j","","","","","","","<img src=""media/stimuli/animate_002_left.png"" class=""coveredImage test"" style = ""width:100px; height:100px; position:fixed; top:10%;    transform: translate(-50%, -50%);left:48%""></img><img src=""media/stimuli/animate_002_right.png"" class=""coveredImage test"" style = ""width:100px; height:100px;position:fixed; top:25%;        transform: translate(-50%, -50%);left:38%""></img><img src=""media/stimuli/animate_002_left.png"" class=""coveredImage test"" style = ""width:100px; height:100px;position:fixed; top:25%;        transform: translate(-50%, -50%);left:54.5%""></img><img src=""media/stimuli/animate_002_left.png"" class=""coveredImage test"" style = ""width:100px; height:100px;position:fixed; top:25%;        transform: translate(-50%, -50%);left:61.5%""></img><img src=""media/f.png""style = ""width:30px x; height:30px;position:fixed; top:43%;    transform: translate(-50%, -50%);left:40%""></img><img src=""media/j.png""style = ""width:30px; height:30px;position:fixed; top:43%;    transform: translate(-50%, -50%);left:60%""></img>","media/stimuli/animate_002_left.png","animate","left","single","media/stimuli/animate_002_right.png","animate","right","single","media/stimuli/animate_002_left.png","animate","left","pair","pose_number"
"","","","","","html-keyboard-response","59","565158","0.0-59.0","SS1678234570123","5f0d2ad60ad0d6730c380b05","6406d7f26dd5b7fc1e3377bd","6407ce5e1303b33aace80a84","1536","779","","1863",""," ","","","","","","","","","","","","","","","","","","","",""
"","","","","","survey-likert","60","571028","0.0-60.0","SS1678234570123","5f0d2ad60ad0d6730c380b05","6406d7f26dd5b7fc1e3377bd","6407ce5e1303b33aace80a84","1536","779","","5867","","{""Q0"":4}","[0]","complexity","media/stimuli/animate_001_right.png","animate","single","right","","","","","","","","","","","","","",""
"","","","","","survey-likert","61","573837","0.0-61.0","SS1678234570123","5f0d2ad60ad0d6730c380b05","6406d7f26dd5b7fc1e3377bd","6407ce5e1303b33aace80a84","1536","779","","2803","","{""Q0"":3}","[0]","complexity","media/stimuli/animate_002_left.png","animate","single","left","","","","","","","","","","","","","",""
"","","","","","survey-likert","62","576398","0.0-62.0","SS1678234570123","5f0d2ad60ad0d6730c380b05","6406d7f26dd5b7fc1e3377bd","6407ce5e1303b33aace80a84","1536","779","","2558","","{""Q0"":2}","[0]","complexity","media/stimuli/inanimate_004_right.png","inanimate","pair","right","","","","","","","","","","","","","",""
"","","","","","survey-likert","63","578476","0.0-63.0","SS1678234570123","5f0d2ad60ad0d6730c380b05","6406d7f26dd5b7fc1e3377bd","6407ce5e1303b33aace80a84","1536","779","","2075","","{""Q0"":2}","[0]","complexity","media/stimuli/inanimate_002_left.png","inanimate","single","left","","","","","","","","","","","","","",""
"","","","","","survey-likert","64","580972","0.0-64.0","SS1678234570123","5f0d2ad60ad0d6730c380b05","6406d7f26dd5b7fc1e3377bd","6407ce5e1303b33aace80a84","1536","779","","2493","","{""Q0"":2}","[0]","complexity","media/stimuli/inanimate_005_right.png","inanimate","pair","right","","","","","","","","","","","","","",""
"","","","","","survey-likert","65","583140","0.0-65.0","SS1678234570123","5f0d2ad60ad0d6730c380b05","6406d7f26dd5b7fc1e3377bd","6407ce5e1303b33aace80a84","1536","779","","2165","","{""Q0"":3}","[0]","complexity","media/stimuli/animate_002_right.png","animate","single","right","","","","","","","","","","","","","",""
"","","","","","survey-likert","66","585205","0.0-66.0","SS1678234570123","5f0d2ad60ad0d6730c380b05","6406d7f26dd5b7fc1e3377bd","6407ce5e1303b33aace80a84","1536","779","","2061","","{""Q0"":3}","[0]","complexity","media/stimuli/animate_004_right.png","animate","pair","right","","","","","","","","","","","","","",""
"","","","","","survey-likert","67","589116","0.0-67.0","SS1678234570123","5f0d2ad60ad0d6730c380b05","6406d7f26dd5b7fc1e3377bd","6407ce5e1303b33aace80a84","1536","779","","3909","","{""Q0"":3}","[0]","complexity","media/stimuli/animate_007_right.png","animate","single","right","","","","","","","","","","","","","",""
"","","","","","survey-likert","68","591892","0.0-68.0","SS1678234570123","5f0d2ad60ad0d6730c380b05","6406d7f26dd5b7fc1e3377bd","6407ce5e1303b33aace80a84","1536","779","","2772","","{""Q0"":4}","[0]","complexity","media/stimuli/animate_012_left.png","animate","pair","left","","","","","","","","","","","","","",""
"","","","","","survey-likert","69","594966","0.0-69.0","SS1678234570123","5f0d2ad60ad0d6730c380b05","6406d7f26dd5b7fc1e3377bd","6407ce5e1303b33aace80a84","1536","779","","3071","","{""Q0"":3}","[0]","complexity","media/stimuli/inanimate_006_right.png","inanimate","pair","right","","","","","","","","","","","","","",""
"","","","","","survey-likert","70","597512","0.0-70.0","SS1678234570123","5f0d2ad60ad0d6730c380b05","6406d7f26dd5b7fc1e3377bd","6407ce5e1303b33aace80a84","1536","779","","2542","","{""Q0"":3}","[0]","complexity","media/stimuli/inanimate_011_left.png","inanimate","single","left","","","","","","","","","","","","","",""
"","","","","","survey-likert","71","602766","0.0-71.0","SS1678234570123","5f0d2ad60ad0d6730c380b05","6406d7f26dd5b7fc1e3377bd","6407ce5e1303b33aace80a84","1536","779","","5250","","{""Q0"":4}","[0]","complexity","media/stimuli/animate_006_left.png","animate","single","left","","","","","","","","","","","","","",""
"","","","","","html-keyboard-response","72","605392","0.0-72.0","SS1678234570123","5f0d2ad60ad0d6730c380b05","6406d7f26dd5b7fc1e3377bd","6407ce5e1303b33aace80a84","1536","779","","2623","","n","","","","","","","","","","","","","","","","","","","",""
"","","","","","html-keyboard-response","73","611033","0.0-73.0","SS1678234570123","5f0d2ad60ad0d6730c380b05","6406d7f26dd5b7fc1e3377bd","6407ce5e1303b33aace80a84","1536","779","","5638","","f","","","","","","","<img src=""media/stimuli/inanimate_001_left.png"" class=""coveredImage test"" style = ""width:100px; height:100px; position:fixed; top:10%;    transform: translate(-50%, -50%);left:48%""></img><img src=""media/stimuli/inanimate_001_left.png"" class=""coveredImage test"" style = ""width:100px; height:100px;position:fixed; top:25%;        transform: translate(-50%, -50%);left:34.5%""></img><img src=""media/stimuli/inanimate_001_left.png"" class=""coveredImage test"" style = ""width:100px; height:100px;position:fixed; top:25%;        transform: translate(-50%, -50%);left:41.5%""></img><img src=""media/stimuli/animate_007_left.png"" class=""coveredImage test"" style = ""width:100px; height:100px;position:fixed; top:25%;        transform: translate(-50%, -50%);left:58%""></img><img src=""media/f.png""style = ""width:30px x; height:30px;position:fixed; top:43%;    transform: translate(-50%, -50%);left:40%""></img><img src=""media/j.png""style = ""width:30px; height:30px;position:fixed; top:43%;    transform: translate(-50%, -50%);left:60%""></img>","media/stimuli/inanimate_001_left.png","inanimate","left","single","media/stimuli/inanimate_001_left.png","inanimate","left","pair","media/stimuli/animate_007_left.png","animate","left","single","number_animacy"
"","","","","","html-keyboard-response","74","611896","0.0-74.0","SS1678234570123","5f0d2ad60ad0d6730c380b05","6406d7f26dd5b7fc1e3377bd","6407ce5e1303b33aace80a84","1536","779","","860","","f","","","","","","","<img src=""media/stimuli/inanimate_006_right.png"" class=""coveredImage test"" style = ""width:100px; height:100px; position:fixed; top:10%;    transform: translate(-50%, -50%);left:48%""></img><img src=""media/stimuli/inanimate_006_right.png"" class=""coveredImage test"" style = ""width:100px; height:100px;position:fixed; top:25%;        transform: translate(-50%, -50%);left:34.5%""></img><img src=""media/stimuli/inanimate_006_right.png"" class=""coveredImage test"" style = ""width:100px; height:100px;position:fixed; top:25%;        transform: translate(-50%, -50%);left:41.5%""></img><img src=""media/stimuli/animate_002_right.png"" class=""coveredImage test"" style = ""width:100px; height:100px;position:fixed; top:25%;        transform: translate(-50%, -50%);left:58%""></img><img src=""media/f.png""style = ""width:30px x; height:30px;position:fixed; top:43%;    transform: translate(-50%, -50%);left:40%""></img><img src=""media/j.png""style = ""width:30px; height:30px;position:fixed; top:43%;    transform: translate(-50%, -50%);left:60%""></img>","media/stimuli/inanimate_006_right.png","inanimate","right","single","media/stimuli/inanimate_006_right.png","inanimate","right","pair","media/stimuli/animate_002_right.png","animate","right","single","number_animacy"
"","","","","","html-keyboard-response","75","613170","0.0-75.0","SS1678234570123","5f0d2ad60ad0d6730c380b05","6406d7f26dd5b7fc1e3377bd","6407ce5e1303b33aace80a84","1536","779","","1270","","f","","","","","","","<img src=""media/stimuli/animate_012_left.png"" class=""coveredImage test"" style = ""width:100px; height:100px; position:fixed; top:10%;    transform: translate(-50%, -50%);left:48%""></img><img src=""media/stimuli/animate_012_right.png"" class=""coveredImage test"" style = ""width:100px; height:100px;position:fixed; top:25%;        transform: translate(-50%, -50%);left:34.5%""></img><img src=""media/stimuli/animate_012_right.png"" class=""coveredImage test"" style = ""width:100px; height:100px;position:fixed; top:25%;        transform: translate(-50%, -50%);left:41.5%""></img><img src=""media/stimuli/inanimate_010_left.png"" class=""coveredImage test"" style = ""width:100px; height:100px;position:fixed; top:25%;        transform: translate(-50%, -50%);left:54.5%""></img><img src=""media/stimuli/inanimate_010_left.png"" class=""coveredImage test"" style = ""width:100px; height:100px;position:fixed; top:25%;        transform: translate(-50%, -50%);left:61.5%""></img><img src=""media/f.png""style = ""width:30px x; height:30px;position:fixed; top:43%;    transform: translate(-50%, -50%);left:40%""></img><img src=""media/j.png""style = ""width:30px; height:30px;position:fixed; top:43%;    transform: translate(-50%, -50%);left:60%""></img>","media/stimuli/animate_012_left.png","animate","left","single","media/stimuli/animate_012_right.png","animate","right","pair","media/stimuli/inanimate_010_left.png","inanimate","left","pair","pose_animacy"
"","","","","","html-keyboard-response","76","615354","0.0-76.0","SS1678234570123","5f0d2ad60ad0d6730c380b05","6406d7f26dd5b7fc1e3377bd","6407ce5e1303b33aace80a84","1536","779","","2181","","j","","","","","","","<img src=""media/stimuli/animate_005_right.png"" class=""coveredImage test"" style = ""width:100px; height:100px; position:fixed; top:10%;    transform: translate(-50%, -50%);left:44.5%""></img><img src=""media/stimuli/animate_005_right.png"" class=""coveredImage test"" style = ""width:100px; height:100px; position:fixed; top:10%;    transform: translate(-50%, -50%);left:51.5%""></img><img src=""media/stimuli/inanimate_008_right.png"" class=""coveredImage test"" style = ""width:100px; height:100px;position:fixed; top:25%;        transform: translate(-50%, -50%);left:34.5%""></img><img src=""media/stimuli/inanimate_008_right.png"" class=""coveredImage test"" style = ""width:100px; height:100px;position:fixed; top:25%;        transform: translate(-50%, -50%);left:41.5%""></img><img src=""media/stimuli/animate_010_right.png"" class=""coveredImage test"" style = ""width:100px; height:100px;position:fixed; top:25%;        transform: translate(-50%, -50%);left:54.5%""></img><img src=""media/stimuli/animate_010_right.png"" class=""coveredImage test"" style = ""width:100px; height:100px;position:fixed; top:25%;        transform: translate(-50%, -50%);left:61.5%""></img><img src=""media/f.png""style = ""width:30px x; height:30px;position:fixed; top:43%;    transform: translate(-50%, -50%);left:40%""></img><img src=""media/j.png""style = ""width:30px; height:30px;position:fixed; top:43%;    transform: translate(-50%, -50%);left:60%""></img>","media/stimuli/animate_005_right.png","animate","right","pair","media/stimuli/inanimate_008_right.png","inanimate","right","pair","media/stimuli/animate_010_right.png","animate","right","pair","animacy_identity"
"","","","","","html-keyboard-response","77","616220","0.0-77.0","SS1678234570123","5f0d2ad60ad0d6730c380b05","6406d7f26dd5b7fc1e3377bd","6407ce5e1303b33aace80a84","1536","779","","863","","f","","","","","","","<img src=""media/stimuli/animate_012_left.png"" class=""coveredImage test"" style = ""width:100px; height:100px; position:fixed; top:10%;    transform: translate(-50%, -50%);left:48%""></img><img src=""media/stimuli/animate_012_right.png"" class=""coveredImage test"" style = ""width:100px; height:100px;position:fixed; top:25%;        transform: translate(-50%, -50%);left:34.5%""></img><img src=""media/stimuli/animate_012_right.png"" class=""coveredImage test"" style = ""width:100px; height:100px;position:fixed; top:25%;        transform: translate(-50%, -50%);left:41.5%""></img><img src=""media/stimuli/inanimate_001_left.png"" class=""coveredImage test"" style = ""width:100px; height:100px;position:fixed; top:25%;        transform: translate(-50%, -50%);left:54.5%""></img><img src=""media/stimuli/inanimate_001_left.png"" class=""coveredImage test"" style = ""width:100px; height:100px;position:fixed; top:25%;        transform: translate(-50%, -50%);left:61.5%""></img><img src=""media/f.png""style = ""width:30px x; height:30px;position:fixed; top:43%;    transform: translate(-50%, -50%);left:40%""></img><img src=""media/j.png""style = ""width:30px; height:30px;position:fixed; top:43%;    transform: translate(-50%, -50%);left:60%""></img>","media/stimuli/animate_012_left.png","animate","left","single","media/stimuli/animate_012_right.png","animate","right","pair","media/stimuli/inanimate_001_left.png","inanimate","left","pair","pose_animacy"
"","","","","","html-keyboard-response","78","617813","0.0-78.0","SS1678234570123","5f0d2ad60ad0d6730c380b05","6406d7f26dd5b7fc1e3377bd","6407ce5e1303b33aace80a84","1536","779","","1590","","f","","","","","","","<img src=""media/stimuli/inanimate_005_left.png"" class=""coveredImage test"" style = ""width:100px; height:100px; position:fixed; top:10%;    transform: translate(-50%, -50%);left:44.5%""></img><img src=""media/stimuli/inanimate_005_left.png"" class=""coveredImage test"" style = ""width:100px; height:100px; position:fixed; top:10%;    transform: translate(-50%, -50%);left:51.5%""></img><img src=""media/stimuli/inanimate_005_right.png"" class=""coveredImage test"" style = ""width:100px; height:100px;position:fixed; top:25%;        transform: translate(-50%, -50%);left:34.5%""></img><img src=""media/stimuli/inanimate_005_right.png"" class=""coveredImage test"" style = ""width:100px; height:100px;position:fixed; top:25%;        transform: translate(-50%, -50%);left:41.5%""></img><img src=""media/stimuli/inanimate_007_left.png"" class=""coveredImage test"" style = ""width:100px; height:100px;position:fixed; top:25%;        transform: translate(-50%, -50%);left:54.5%""></img><img src=""media/stimuli/inanimate_007_left.png"" class=""coveredImage test"" style = ""width:100px; height:100px;position:fixed; top:25%;        transform: translate(-50%, -50%);left:61.5%""></img><img src=""media/f.png""style = ""width:30px x; height:30px;position:fixed; top:43%;    transform: translate(-50%, -50%);left:40%""></img><img src=""media/j.png""style = ""width:30px; height:30px;position:fixed; top:43%;    transform: translate(-50%, -50%);left:60%""></img>","media/stimuli/inanimate_005_left.png","inanimate","left","pair","media/stimuli/inanimate_005_right.png","inanimate","right","pair","media/stimuli/inanimate_007_left.png","inanimate","left","pair","pose_identity"
"","","","","","html-keyboard-response","79","619416","0.0-79.0","SS1678234570123","5f0d2ad60ad0d6730c380b05","6406d7f26dd5b7fc1e3377bd","6407ce5e1303b33aace80a84","1536","779","","1599","","j","","","","","","","<img src=""media/stimuli/inanimate_010_right.png"" class=""coveredImage test"" style = ""width:100px; height:100px; position:fixed; top:10%;    transform: translate(-50%, -50%);left:44.5%""></img><img src=""media/stimuli/inanimate_010_right.png"" class=""coveredImage test"" style = ""width:100px; height:100px; position:fixed; top:10%;    transform: translate(-50%, -50%);left:51.5%""></img><img src=""media/stimuli/animate_006_right.png"" class=""coveredImage test"" style = ""width:100px; height:100px;position:fixed; top:25%;        transform: translate(-50%, -50%);left:34.5%""></img><img src=""media/stimuli/animate_006_right.png"" class=""coveredImage test"" style = ""width:100px; height:100px;position:fixed; top:25%;        transform: translate(-50%, -50%);left:41.5%""></img><img src=""media/stimuli/inanimate_012_right.png"" class=""coveredImage test"" style = ""width:100px; height:100px;position:fixed; top:25%;        transform: translate(-50%, -50%);left:54.5%""></img><img src=""media/stimuli/inanimate_012_right.png"" class=""coveredImage test"" style = ""width:100px; height:100px;position:fixed; top:25%;        transform: translate(-50%, -50%);left:61.5%""></img><img src=""media/f.png""style = ""width:30px x; height:30px;position:fixed; top:43%;    transform: translate(-50%, -50%);left:40%""></img><img src=""media/j.png""style = ""width:30px; height:30px;position:fixed; top:43%;    transform: translate(-50%, -50%);left:60%""></img>","media/stimuli/inanimate_010_right.png","inanimate","right","pair","media/stimuli/animate_006_right.png","animate","right","pair","media/stimuli/inanimate_012_right.png","inanimate","right","pair","animacy_identity"
"","","","","","html-keyboard-response","80","622373","0.0-80.0","SS1678234570123","5f0d2ad60ad0d6730c380b05","6406d7f26dd5b7fc1e3377bd","6407ce5e1303b33aace80a84","1536","779","","2952","","f","","","","","","","<img src=""media/stimuli/animate_002_right.png"" class=""coveredImage test"" style = ""width:100px; height:100px; position:fixed; top:10%;    transform: translate(-50%, -50%);left:44.5%""></img><img src=""media/stimuli/animate_002_right.png"" class=""coveredImage test"" style = ""width:100px; height:100px; position:fixed; top:10%;    transform: translate(-50%, -50%);left:51.5%""></img><img src=""media/stimuli/animate_002_left.png"" class=""coveredImage test"" style = ""width:100px; height:100px;position:fixed; top:25%;        transform: translate(-50%, -50%);left:34.5%""></img><img src=""media/stimuli/animate_002_left.png"" class=""coveredImage test"" style = ""width:100px; height:100px;position:fixed; top:25%;        transform: translate(-50%, -50%);left:41.5%""></img><img src=""media/stimuli/animate_011_right.png"" class=""coveredImage test"" style = ""width:100px; height:100px;position:fixed; top:25%;        transform: translate(-50%, -50%);left:54.5%""></img><img src=""media/stimuli/animate_011_right.png"" class=""coveredImage test"" style = ""width:100px; height:100px;position:fixed; top:25%;        transform: translate(-50%, -50%);left:61.5%""></img><img src=""media/f.png""style = ""width:30px x; height:30px;position:fixed; top:43%;    transform: translate(-50%, -50%);left:40%""></img><img src=""media/j.png""style = ""width:30px; height:30px;position:fixed; top:43%;    transform: translate(-50%, -50%);left:60%""></img>","media/stimuli/animate_002_right.png","animate","right","pair","media/stimuli/animate_002_left.png","animate","left","pair","media/stimuli/animate_011_right.png","animate","right","pair","pose_identity"
"","","","","","html-keyboard-response","81","624285","0.0-81.0","SS1678234570123","5f0d2ad60ad0d6730c380b05","6406d7f26dd5b7fc1e3377bd","6407ce5e1303b33aace80a84","1536","779","","1908","","j","","","","","","","<img src=""media/stimuli/animate_010_left.png"" class=""coveredImage test"" style = ""width:100px; height:100px; position:fixed; top:10%;    transform: translate(-50%, -50%);left:48%""></img><img src=""media/stimuli/animate_009_left.png"" class=""coveredImage test"" style = ""width:100px; height:100px;position:fixed; top:25%;        transform: translate(-50%, -50%);left:38%""></img><img src=""media/stimuli/animate_010_left.png"" class=""coveredImage test"" style = ""width:100px; height:100px;position:fixed; top:25%;        transform: translate(-50%, -50%);left:54.5%""></img><img src=""media/stimuli/animate_010_left.png"" class=""coveredImage test"" style = ""width:100px; height:100px;position:fixed; top:25%;        transform: translate(-50%, -50%);left:61.5%""></img><img src=""media/f.png""style = ""width:30px x; height:30px;position:fixed; top:43%;    transform: translate(-50%, -50%);left:40%""></img><img src=""media/j.png""style = ""width:30px; height:30px;position:fixed; top:43%;    transform: translate(-50%, -50%);left:60%""></img>","media/stimuli/animate_010_left.png","animate","left","single","media/stimuli/animate_009_left.png","animate","left","single","media/stimuli/animate_010_left.png","animate","left","pair","identity_number"
"","","","","","html-keyboard-response","82","625618","0.0-82.0","SS1678234570123","5f0d2ad60ad0d6730c380b05","6406d7f26dd5b7fc1e3377bd","6407ce5e1303b33aace80a84","1536","779","","1331","","j","","","","","","","<img src=""media/stimuli/animate_002_right.png"" class=""coveredImage test"" style = ""width:100px; height:100px; position:fixed; top:10%;    transform: translate(-50%, -50%);left:44.5%""></img><img src=""media/stimuli/animate_002_right.png"" class=""coveredImage test"" style = ""width:100px; height:100px; position:fixed; top:10%;    transform: translate(-50%, -50%);left:51.5%""></img><img src=""media/stimuli/inanimate_007_right.png"" class=""coveredImage test"" style = ""width:100px; height:100px;position:fixed; top:25%;        transform: translate(-50%, -50%);left:34.5%""></img><img src=""media/stimuli/inanimate_007_right.png"" class=""coveredImage test"" style = ""width:100px; height:100px;position:fixed; top:25%;        transform: translate(-50%, -50%);left:41.5%""></img><img src=""media/stimuli/animate_002_right.png"" class=""coveredImage test"" style = ""width:100px; height:100px;position:fixed; top:25%;        transform: translate(-50%, -50%);left:58%""></img><img src=""media/f.png""style = ""width:30px x; height:30px;position:fixed; top:43%;    transform: translate(-50%, -50%);left:40%""></img><img src=""media/j.png""style = ""width:30px; height:30px;position:fixed; top:43%;    transform: translate(-50%, -50%);left:60%""></img>","media/stimuli/animate_002_right.png","animate","right","pair","media/stimuli/inanimate_007_right.png","inanimate","right","pair","media/stimuli/animate_002_right.png","animate","right","single","animacy_number"
"","","","","","html-keyboard-response","83","626575","0.0-83.0","SS1678234570123","5f0d2ad60ad0d6730c380b05","6406d7f26dd5b7fc1e3377bd","6407ce5e1303b33aace80a84","1536","779","","953","","f","","","","","","","<img src=""media/stimuli/inanimate_001_left.png"" class=""coveredImage test"" style = ""width:100px; height:100px; position:fixed; top:10%;    transform: translate(-50%, -50%);left:48%""></img><img src=""media/stimuli/inanimate_001_left.png"" class=""coveredImage test"" style = ""width:100px; height:100px;position:fixed; top:25%;        transform: translate(-50%, -50%);left:34.5%""></img><img src=""media/stimuli/inanimate_001_left.png"" class=""coveredImage test"" style = ""width:100px; height:100px;position:fixed; top:25%;        transform: translate(-50%, -50%);left:41.5%""></img><img src=""media/stimuli/animate_010_left.png"" class=""coveredImage test"" style = ""width:100px; height:100px;position:fixed; top:25%;        transform: translate(-50%, -50%);left:58%""></img><img src=""media/f.png""style = ""width:30px x; height:30px;position:fixed; top:43%;    transform: translate(-50%, -50%);left:40%""></img><img src=""media/j.png""style = ""width:30px; height:30px;position:fixed; top:43%;    transform: translate(-50%, -50%);left:60%""></img>","media/stimuli/inanimate_001_left.png","inanimate","left","single","media/stimuli/inanimate_001_left.png","inanimate","left","pair","media/stimuli/animate_010_left.png","animate","left","single","number_animacy"
"","","","","","html-keyboard-response","84","628406","0.0-84.0","SS1678234570123","5f0d2ad60ad0d6730c380b05","6406d7f26dd5b7fc1e3377bd","6407ce5e1303b33aace80a84","1536","779","","1829","","f","","","","","","","<img src=""media/stimuli/animate_003_left.png"" class=""coveredImage test"" style = ""width:100px; height:100px; position:fixed; top:10%;    transform: translate(-50%, -50%);left:44.5%""></img><img src=""media/stimuli/animate_003_left.png"" class=""coveredImage test"" style = ""width:100px; height:100px; position:fixed; top:10%;    transform: translate(-50%, -50%);left:51.5%""></img><img src=""media/stimuli/animate_003_right.png"" class=""coveredImage test"" style = ""width:100px; height:100px;position:fixed; top:25%;        transform: translate(-50%, -50%);left:34.5%""></img><img src=""media/stimuli/animate_003_right.png"" class=""coveredImage test"" style = ""width:100px; height:100px;position:fixed; top:25%;        transform: translate(-50%, -50%);left:41.5%""></img><img src=""media/stimuli/animate_008_left.png"" class=""coveredImage test"" style = ""width:100px; height:100px;position:fixed; top:25%;        transform: translate(-50%, -50%);left:54.5%""></img><img src=""media/stimuli/animate_008_left.png"" class=""coveredImage test"" style = ""width:100px; height:100px;position:fixed; top:25%;        transform: translate(-50%, -50%);left:61.5%""></img><img src=""media/f.png""style = ""width:30px x; height:30px;position:fixed; top:43%;    transform: translate(-50%, -50%);left:40%""></img><img src=""media/j.png""style = ""width:30px; height:30px;position:fixed; top:43%;    transform: translate(-50%, -50%);left:60%""></img>","media/stimuli/animate_003_left.png","animate","left","pair","media/stimuli/animate_003_right.png","animate","right","pair","media/stimuli/animate_008_left.png","animate","left","pair","pose_identity"
"","","","","","html-keyboard-response","85","634351","0.0-85.0","SS1678234570123","5f0d2ad60ad0d6730c380b05","6406d7f26dd5b7fc1e3377bd","6407ce5e1303b33aace80a84","1536","779","","5942","","g","","","","","","","","","","","","","","","","","","","",""
"","","","","","survey-likert","86","639052","0.0-86.0","SS1678234570123","5f0d2ad60ad0d6730c380b05","6406d7f26dd5b7fc1e3377bd","6407ce5e1303b33aace80a84","1536","779","","4697","","{""Q0"":4}","[0]","complexity","media/stimuli/animate_003_left.png","animate","pair","left","","","","","","","","","","","","","",""
"","","","","","survey-likert","87","644835","0.0-87.0","SS1678234570123","5f0d2ad60ad0d6730c380b05","6406d7f26dd5b7fc1e3377bd","6407ce5e1303b33aace80a84","1536","779","","5780","","{""Q0"":4}","[0]","complexity","media/stimuli/animate_008_left.png","animate","single","left","","","","","","","","","","","","","",""
"","","","","","survey-likert","88","649717","0.0-88.0","SS1678234570123","5f0d2ad60ad0d6730c380b05","6406d7f26dd5b7fc1e3377bd","6407ce5e1303b33aace80a84","1536","779","","4878","","{""Q0"":3}","[0]","complexity","media/stimuli/animate_006_right.png","animate","pair","right","","","","","","","","","","","","","",""
"","","","","","survey-likert","89","652291","0.0-89.0","SS1678234570123","5f0d2ad60ad0d6730c380b05","6406d7f26dd5b7fc1e3377bd","6407ce5e1303b33aace80a84","1536","779","","2570","","{""Q0"":4}","[0]","complexity","media/stimuli/animate_008_right.png","animate","single","right","","","","","","","","","","","","","",""
"","","","","","survey-likert","90","657084","0.0-90.0","SS1678234570123","5f0d2ad60ad0d6730c380b05","6406d7f26dd5b7fc1e3377bd","6407ce5e1303b33aace80a84","1536","779","","4788","","{""Q0"":2}","[0]","complexity","media/stimuli/inanimate_002_right.png","inanimate","pair","right","","","","","","","","","","","","","",""
"","","","","","survey-likert","91","659803","0.0-91.0","SS1678234570123","5f0d2ad60ad0d6730c380b05","6406d7f26dd5b7fc1e3377bd","6407ce5e1303b33aace80a84","1536","779","","2716","","{""Q0"":3}","[0]","complexity","media/stimuli/animate_003_left.png","animate","single","left","","","","","","","","","","","","","",""
"","","","","","survey-likert","92","662379","0.0-92.0","SS1678234570123","5f0d2ad60ad0d6730c380b05","6406d7f26dd5b7fc1e3377bd","6407ce5e1303b33aace80a84","1536","779","","2572","","{""Q0"":3}","[0]","complexity","media/stimuli/inanimate_007_left.png","inanimate","single","left","","","","","","","","","","","","","",""
"","","","","","survey-likert","93","666420","0.0-93.0","SS1678234570123","5f0d2ad60ad0d6730c380b05","6406d7f26dd5b7fc1e3377bd","6407ce5e1303b33aace80a84","1536","779","","4036","","{""Q0"":3}","[0]","complexity","media/stimuli/inanimate_012_left.png","inanimate","pair","left","","","","","","","","","","","","","",""
"","","","","","survey-likert","94","668635","0.0-94.0","SS1678234570123","5f0d2ad60ad0d6730c380b05","6406d7f26dd5b7fc1e3377bd","6407ce5e1303b33aace80a84","1536","779","","2211","","{""Q0"":3}","[0]","complexity","media/stimuli/inanimate_011_right.png","inanimate","single","right","","","","","","","","","","","","","",""
"","","","","","survey-likert","95","673524","0.0-95.0","SS1678234570123","5f0d2ad60ad0d6730c380b05","6406d7f26dd5b7fc1e3377bd","6407ce5e1303b33aace80a84","1536","779","","4884","","{""Q0"":4}","[0]","complexity","media/stimuli/animate_003_right.png","animate","pair","right","","","","","","","","","","","","","",""
"","","","","","survey-likert","96","676044","0.0-96.0","SS1678234570123","5f0d2ad60ad0d6730c380b05","6406d7f26dd5b7fc1e3377bd","6407ce5e1303b33aace80a84","1536","779","","2516","","{""Q0"":3}","[0]","complexity","media/stimuli/animate_004_left.png","animate","pair","left","","","","","","","","","","","","","",""
"","","","","","survey-likert","97","683380","0.0-97.0","SS1678234570123","5f0d2ad60ad0d6730c380b05","6406d7f26dd5b7fc1e3377bd","6407ce5e1303b33aace80a84","1536","779","","7331","","{""Q0"":3}","[0]","complexity","media/stimuli/inanimate_010_right.png","inanimate","pair","right","","","","","","","","","","","","","",""
"","","","","","html-keyboard-response","98","685495","0.0-98.0","SS1678234570123","5f0d2ad60ad0d6730c380b05","6406d7f26dd5b7fc1e3377bd","6407ce5e1303b33aace80a84","1536","779","","2112","","b","","","","","","","","","","","","","","","","","","","",""
"","","","","","html-keyboard-response","99","688861","0.0-99.0","SS1678234570123","5f0d2ad60ad0d6730c380b05","6406d7f26dd5b7fc1e3377bd","6407ce5e1303b33aace80a84","1536","779","","3361","","j","","","","","","","<img src=""media/stimuli/animate_005_left.png"" class=""coveredImage test"" style = ""width:100px; height:100px; position:fixed; top:10%;    transform: translate(-50%, -50%);left:48%""></img><img src=""media/stimuli/animate_004_left.png"" class=""coveredImage test"" style = ""width:100px; height:100px;position:fixed; top:25%;        transform: translate(-50%, -50%);left:38%""></img><img src=""media/stimuli/animate_005_left.png"" class=""coveredImage test"" style = ""width:100px; height:100px;position:fixed; top:25%;        transform: translate(-50%, -50%);left:54.5%""></img><img src=""media/stimuli/animate_005_left.png"" class=""coveredImage test"" style = ""width:100px; height:100px;position:fixed; top:25%;        transform: translate(-50%, -50%);left:61.5%""></img><img src=""media/f.png""style = ""width:30px x; height:30px;position:fixed; top:43%;    transform: translate(-50%, -50%);left:40%""></img><img src=""media/j.png""style = ""width:30px; height:30px;position:fixed; top:43%;    transform: translate(-50%, -50%);left:60%""></img>","media/stimuli/animate_005_left.png","animate","left","single","media/stimuli/animate_004_left.png","animate","left","single","media/stimuli/animate_005_left.png","animate","left","pair","identity_number"
"","","","","","html-keyboard-response","100","689772","0.0-100.0","SS1678234570123","5f0d2ad60ad0d6730c380b05","6406d7f26dd5b7fc1e3377bd","6407ce5e1303b33aace80a84","1536","779","","906","","f","","","","","","","<img src=""media/stimuli/inanimate_010_right.png"" class=""coveredImage test"" style = ""width:100px; height:100px; position:fixed; top:10%;    transform: translate(-50%, -50%);left:44.5%""></img><img src=""media/stimuli/inanimate_010_right.png"" class=""coveredImage test"" style = ""width:100px; height:100px; position:fixed; top:10%;    transform: translate(-50%, -50%);left:51.5%""></img><img src=""media/stimuli/inanimate_010_right.png"" class=""coveredImage test"" style = ""width:100px; height:100px;position:fixed; top:25%;        transform: translate(-50%, -50%);left:38%""></img><img src=""media/stimuli/animate_011_right.png"" class=""coveredImage test"" style = ""width:100px; height:100px;position:fixed; top:25%;        transform: translate(-50%, -50%);left:54.5%""></img><img src=""media/stimuli/animate_011_right.png"" class=""coveredImage test"" style = ""width:100px; height:100px;position:fixed; top:25%;        transform: translate(-50%, -50%);left:61.5%""></img><img src=""media/f.png""style = ""width:30px x; height:30px;position:fixed; top:43%;    transform: translate(-50%, -50%);left:40%""></img><img src=""media/j.png""style = ""width:30px; height:30px;position:fixed; top:43%;    transform: translate(-50%, -50%);left:60%""></img>","media/stimuli/inanimate_010_right.png","inanimate","right","pair","media/stimuli/inanimate_010_right.png","inanimate","right","single","media/stimuli/animate_011_right.png","animate","right","pair","number_animacy"
"","","","","","html-keyboard-response","101","691274","0.0-101.0","SS1678234570123","5f0d2ad60ad0d6730c380b05","6406d7f26dd5b7fc1e3377bd","6407ce5e1303b33aace80a84","1536","779","","1498","","j","","","","","","","<img src=""media/stimuli/animate_012_right.png"" class=""coveredImage test"" style = ""width:100px; height:100px; position:fixed; top:10%;    transform: translate(-50%, -50%);left:48%""></img><img src=""media/stimuli/inanimate_007_right.png"" class=""coveredImage test"" style = ""width:100px; height:100px;position:fixed; top:25%;        transform: translate(-50%, -50%);left:38%""></img><img src=""media/stimuli/animate_008_right.png"" class=""coveredImage test"" style = ""width:100px; height:100px;position:fixed; top:25%;        transform: translate(-50%, -50%);left:58%""></img><img src=""media/f.png""style = ""width:30px x; height:30px;position:fixed; top:43%;    transform: translate(-50%, -50%);left:40%""></img><img src=""media/j.png""style = ""width:30px; height:30px;position:fixed; top:43%;    transform: translate(-50%, -50%);left:60%""></img>","media/stimuli/animate_012_right.png","animate","right","single","media/stimuli/inanimate_007_right.png","inanimate","right","single","media/stimuli/animate_008_right.png","animate","right","single","animacy_identity"
"","","","","","html-keyboard-response","102","692232","0.0-102.0","SS1678234570123","5f0d2ad60ad0d6730c380b05","6406d7f26dd5b7fc1e3377bd","6407ce5e1303b33aace80a84","1536","779","","954","","f","","","","","","","<img src=""media/stimuli/animate_008_left.png"" class=""coveredImage test"" style = ""width:100px; height:100px; position:fixed; top:10%;    transform: translate(-50%, -50%);left:48%""></img><img src=""media/stimuli/animate_008_left.png"" class=""coveredImage test"" style = ""width:100px; height:100px;position:fixed; top:25%;        transform: translate(-50%, -50%);left:34.5%""></img><img src=""media/stimuli/animate_008_left.png"" class=""coveredImage test"" style = ""width:100px; height:100px;position:fixed; top:25%;        transform: translate(-50%, -50%);left:41.5%""></img><img src=""media/stimuli/animate_008_right.png"" class=""coveredImage test"" style = ""width:100px; height:100px;position:fixed; top:25%;        transform: translate(-50%, -50%);left:58%""></img><img src=""media/f.png""style = ""width:30px x; height:30px;position:fixed; top:43%;    transform: translate(-50%, -50%);left:40%""></img><img src=""media/j.png""style = ""width:30px; height:30px;position:fixed; top:43%;    transform: translate(-50%, -50%);left:60%""></img>","media/stimuli/animate_008_left.png","animate","left","single","media/stimuli/animate_008_left.png","animate","left","pair","media/stimuli/animate_008_right.png","animate","right","single","number_pose"
"","","","","","html-keyboard-response","103","693415","0.0-103.0","SS1678234570123","5f0d2ad60ad0d6730c380b05","6406d7f26dd5b7fc1e3377bd","6407ce5e1303b33aace80a84","1536","779","","1177","","j","","","","","","","<img src=""media/stimuli/inanimate_006_right.png"" class=""coveredImage test"" style = ""width:100px; height:100px; position:fixed; top:10%;    transform: translate(-50%, -50%);left:48%""></img><img src=""media/stimuli/animate_009_right.png"" class=""coveredImage test"" style = ""width:100px; height:100px;position:fixed; top:25%;        transform: translate(-50%, -50%);left:38%""></img><img src=""media/stimuli/inanimate_006_right.png"" class=""coveredImage test"" style = ""width:100px; height:100px;position:fixed; top:25%;        transform: translate(-50%, -50%);left:54.5%""></img><img src=""media/stimuli/inanimate_006_right.png"" class=""coveredImage test"" style = ""width:100px; height:100px;position:fixed; top:25%;        transform: translate(-50%, -50%);left:61.5%""></img><img src=""media/f.png""style = ""width:30px x; height:30px;position:fixed; top:43%;    transform: translate(-50%, -50%);left:40%""></img><img src=""media/j.png""style = ""width:30px; height:30px;position:fixed; top:43%;    transform: translate(-50%, -50%);left:60%""></img>","media/stimuli/inanimate_006_right.png","inanimate","right","single","media/stimuli/animate_009_right.png","animate","right","single","media/stimuli/inanimate_006_right.png","inanimate","right","pair","animacy_number"
"","","","","","html-keyboard-response","104","695553","0.0-104.0","SS1678234570123","5f0d2ad60ad0d6730c380b05","6406d7f26dd5b7fc1e3377bd","6407ce5e1303b33aace80a84","1536","779","","2135","","f","","","","","","","<img src=""media/stimuli/animate_008_right.png"" class=""coveredImage test"" style = ""width:100px; height:100px; position:fixed; top:10%;    transform: translate(-50%, -50%);left:44.5%""></img><img src=""media/stimuli/animate_008_right.png"" class=""coveredImage test"" style = ""width:100px; height:100px; position:fixed; top:10%;    transform: translate(-50%, -50%);left:51.5%""></img><img src=""media/stimuli/animate_005_right.png"" class=""coveredImage test"" style = ""width:100px; height:100px;position:fixed; top:25%;        transform: translate(-50%, -50%);left:34.5%""></img><img src=""media/stimuli/animate_005_right.png"" class=""coveredImage test"" style = ""width:100px; height:100px;position:fixed; top:25%;        transform: translate(-50%, -50%);left:41.5%""></img><img src=""media/stimuli/inanimate_005_right.png"" class=""coveredImage test"" style = ""width:100px; height:100px;position:fixed; top:25%;        transform: translate(-50%, -50%);left:54.5%""></img><img src=""media/stimuli/inanimate_005_right.png"" class=""coveredImage test"" style = ""width:100px; height:100px;position:fixed; top:25%;        transform: translate(-50%, -50%);left:61.5%""></img><img src=""media/f.png""style = ""width:30px x; height:30px;position:fixed; top:43%;    transform: translate(-50%, -50%);left:40%""></img><img src=""media/j.png""style = ""width:30px; height:30px;position:fixed; top:43%;    transform: translate(-50%, -50%);left:60%""></img>","media/stimuli/animate_008_right.png","animate","right","pair","media/stimuli/animate_005_right.png","animate","right","pair","media/stimuli/inanimate_005_right.png","inanimate","right","pair","identity_animacy"
"","","","","","html-keyboard-response","105","696691","0.0-105.0","SS1678234570123","5f0d2ad60ad0d6730c380b05","6406d7f26dd5b7fc1e3377bd","6407ce5e1303b33aace80a84","1536","779","","1135","","f","","","","","","","<img src=""media/stimuli/animate_012_left.png"" class=""coveredImage test"" style = ""width:100px; height:100px; position:fixed; top:10%;    transform: translate(-50%, -50%);left:44.5%""></img><img src=""media/stimuli/animate_012_left.png"" class=""coveredImage test"" style = ""width:100px; height:100px; position:fixed; top:10%;    transform: translate(-50%, -50%);left:51.5%""></img><img src=""media/stimuli/animate_012_right.png"" class=""coveredImage test"" style = ""width:100px; height:100px;position:fixed; top:25%;        transform: translate(-50%, -50%);left:34.5%""></img><img src=""media/stimuli/animate_012_right.png"" class=""coveredImage test"" style = ""width:100px; height:100px;position:fixed; top:25%;        transform: translate(-50%, -50%);left:41.5%""></img><img src=""media/stimuli/animate_008_left.png"" class=""coveredImage test"" style = ""width:100px; height:100px;position:fixed; top:25%;        transform: translate(-50%, -50%);left:54.5%""></img><img src=""media/stimuli/animate_008_left.png"" class=""coveredImage test"" style = ""width:100px; height:100px;position:fixed; top:25%;        transform: translate(-50%, -50%);left:61.5%""></img><img src=""media/f.png""style = ""width:30px x; height:30px;position:fixed; top:43%;    transform: translate(-50%, -50%);left:40%""></img><img src=""media/j.png""style = ""width:30px; height:30px;position:fixed; top:43%;    transform: translate(-50%, -50%);left:60%""></img>","media/stimuli/animate_012_left.png","animate","left","pair","media/stimuli/animate_012_right.png","animate","right","pair","media/stimuli/animate_008_left.png","animate","left","pair","pose_identity"
"","","","","","html-keyboard-response","106","697557","0.0-106.0","SS1678234570123","5f0d2ad60ad0d6730c380b05","6406d7f26dd5b7fc1e3377bd","6407ce5e1303b33aace80a84","1536","779","","861","","j","","","","","","","<img src=""media/stimuli/animate_003_left.png"" class=""coveredImage test"" style = ""width:100px; height:100px; position:fixed; top:10%;    transform: translate(-50%, -50%);left:44.5%""></img><img src=""media/stimuli/animate_003_left.png"" class=""coveredImage test"" style = ""width:100px; height:100px; position:fixed; top:10%;    transform: translate(-50%, -50%);left:51.5%""></img><img src=""media/stimuli/animate_012_left.png"" class=""coveredImage test"" style = ""width:100px; height:100px;position:fixed; top:25%;        transform: translate(-50%, -50%);left:34.5%""></img><img src=""media/stimuli/animate_012_left.png"" class=""coveredImage test"" style = ""width:100px; height:100px;position:fixed; top:25%;        transform: translate(-50%, -50%);left:41.5%""></img><img src=""media/stimuli/animate_003_left.png"" class=""coveredImage test"" style = ""width:100px; height:100px;position:fixed; top:25%;        transform: translate(-50%, -50%);left:58%""></img><img src=""media/f.png""style = ""width:30px x; height:30px;position:fixed; top:43%;    transform: translate(-50%, -50%);left:40%""></img><img src=""media/j.png""style = ""width:30px; height:30px;position:fixed; top:43%;    transform: translate(-50%, -50%);left:60%""></img>","media/stimuli/animate_003_left.png","animate","left","pair","media/stimuli/animate_012_left.png","animate","left","pair","media/stimuli/animate_003_left.png","animate","left","single","identity_number"
"","","","","","html-keyboard-response","107","698467","0.0-107.0","SS1678234570123","5f0d2ad60ad0d6730c380b05","6406d7f26dd5b7fc1e3377bd","6407ce5e1303b33aace80a84","1536","779","","907","","f","","","","","","","<img src=""media/stimuli/animate_006_left.png"" class=""coveredImage test"" style = ""width:100px; height:100px; position:fixed; top:10%;    transform: translate(-50%, -50%);left:44.5%""></img><img src=""media/stimuli/animate_006_left.png"" class=""coveredImage test"" style = ""width:100px; height:100px; position:fixed; top:10%;    transform: translate(-50%, -50%);left:51.5%""></img><img src=""media/stimuli/animate_006_left.png"" class=""coveredImage test"" style = ""width:100px; height:100px;position:fixed; top:25%;        transform: translate(-50%, -50%);left:38%""></img><img src=""media/stimuli/inanimate_009_right.png"" class=""coveredImage test"" style = ""width:100px; height:100px;position:fixed; top:25%;        transform: translate(-50%, -50%);left:58%""></img><img src=""media/f.png""style = ""width:30px x; height:30px;position:fixed; top:43%;    transform: translate(-50%, -50%);left:40%""></img><img src=""media/j.png""style = ""width:30px; height:30px;position:fixed; top:43%;    transform: translate(-50%, -50%);left:60%""></img>","media/stimuli/animate_006_left.png","animate","left","pair","media/stimuli/animate_006_left.png","animate","left","single","media/stimuli/inanimate_009_right.png","inanimate","right","single","pose_animacy"
"","","","","","html-keyboard-response","108","699833","0.0-108.0","SS1678234570123","5f0d2ad60ad0d6730c380b05","6406d7f26dd5b7fc1e3377bd","6407ce5e1303b33aace80a84","1536","779","","1361","","f","","","","","","","<img src=""media/stimuli/animate_011_right.png"" class=""coveredImage test"" style = ""width:100px; height:100px; position:fixed; top:10%;    transform: translate(-50%, -50%);left:48%""></img><img src=""media/stimuli/animate_003_right.png"" class=""coveredImage test"" style = ""width:100px; height:100px;position:fixed; top:25%;        transform: translate(-50%, -50%);left:38%""></img><img src=""media/stimuli/inanimate_009_right.png"" class=""coveredImage test"" style = ""width:100px; height:100px;position:fixed; top:25%;        transform: translate(-50%, -50%);left:58%""></img><img src=""media/f.png""style = ""width:30px x; height:30px;position:fixed; top:43%;    transform: translate(-50%, -50%);left:40%""></img><img src=""media/j.png""style = ""width:30px; height:30px;position:fixed; top:43%;    transform: translate(-50%, -50%);left:60%""></img>","media/stimuli/animate_011_right.png","animate","right","single","media/stimuli/animate_003_right.png","animate","right","single","media/stimuli/inanimate_009_right.png","inanimate","right","single","identity_animacy"
"","","","","","html-keyboard-response","109","700700","0.0-109.0","SS1678234570123","5f0d2ad60ad0d6730c380b05","6406d7f26dd5b7fc1e3377bd","6407ce5e1303b33aace80a84","1536","779","","863","","j","","","","","","","<img src=""media/stimuli/animate_006_left.png"" class=""coveredImage test"" style = ""width:100px; height:100px; position:fixed; top:10%;    transform: translate(-50%, -50%);left:48%""></img><img src=""media/stimuli/animate_001_left.png"" class=""coveredImage test"" style = ""width:100px; height:100px;position:fixed; top:25%;        transform: translate(-50%, -50%);left:38%""></img><img src=""media/stimuli/animate_006_left.png"" class=""coveredImage test"" style = ""width:100px; height:100px;position:fixed; top:25%;        transform: translate(-50%, -50%);left:58%""></img><img src=""media/f.png""style = ""width:30px x; height:30px;position:fixed; top:43%;    transform: translate(-50%, -50%);left:40%""></img><img src=""media/j.png""style = ""width:30px; height:30px;position:fixed; top:43%;    transform: translate(-50%, -50%);left:60%""></img>","media/stimuli/animate_006_left.png","animate","left","single","media/stimuli/animate_001_left.png","animate","left","single","media/stimuli/animate_006_left.png","animate","left","single","identity_filler"
"","","","","","html-keyboard-response","110","701609","0.0-110.0","SS1678234570123","5f0d2ad60ad0d6730c380b05","6406d7f26dd5b7fc1e3377bd","6407ce5e1303b33aace80a84","1536","779","","905","","f","","","","","","","<img src=""media/stimuli/animate_001_right.png"" class=""coveredImage test"" style = ""width:100px; height:100px; position:fixed; top:10%;    transform: translate(-50%, -50%);left:44.5%""></img><img src=""media/stimuli/animate_001_right.png"" class=""coveredImage test"" style = ""width:100px; height:100px; position:fixed; top:10%;    transform: translate(-50%, -50%);left:51.5%""></img><img src=""media/stimuli/animate_001_right.png"" class=""coveredImage test"" style = ""width:100px; height:100px;position:fixed; top:25%;        transform: translate(-50%, -50%);left:38%""></img><img src=""media/stimuli/animate_006_right.png"" class=""coveredImage test"" style = ""width:100px; height:100px;position:fixed; top:25%;        transform: translate(-50%, -50%);left:54.5%""></img><img src=""media/stimuli/animate_006_right.png"" class=""coveredImage test"" style = ""width:100px; height:100px;position:fixed; top:25%;        transform: translate(-50%, -50%);left:61.5%""></img><img src=""media/f.png""style = ""width:30px x; height:30px;position:fixed; top:43%;    transform: translate(-50%, -50%);left:40%""></img><img src=""media/j.png""style = ""width:30px; height:30px;position:fixed; top:43%;    transform: translate(-50%, -50%);left:60%""></img>","media/stimuli/animate_001_right.png","animate","right","pair","media/stimuli/animate_001_right.png","animate","right","single","media/stimuli/animate_006_right.png","animate","right","pair","number_identity"
"","","","","","html-keyboard-response","111","702479","0.0-111.0","SS1678234570123","5f0d2ad60ad0d6730c380b05","6406d7f26dd5b7fc1e3377bd","6407ce5e1303b33aace80a84","1536","779","","866","","f","","","","","","","<img src=""media/stimuli/inanimate_008_left.png"" class=""coveredImage test"" style = ""width:100px; height:100px; position:fixed; top:10%;    transform: translate(-50%, -50%);left:48%""></img><img src=""media/stimuli/inanimate_008_left.png"" class=""coveredImage test"" style = ""width:100px; height:100px;position:fixed; top:25%;        transform: translate(-50%, -50%);left:34.5%""></img><img src=""media/stimuli/inanimate_008_left.png"" class=""coveredImage test"" style = ""width:100px; height:100px;position:fixed; top:25%;        transform: translate(-50%, -50%);left:41.5%""></img><img src=""media/stimuli/animate_009_left.png"" class=""coveredImage test"" style = ""width:100px; height:100px;position:fixed; top:25%;        transform: translate(-50%, -50%);left:58%""></img><img src=""media/f.png""style = ""width:30px x; height:30px;position:fixed; top:43%;    transform: translate(-50%, -50%);left:40%""></img><img src=""media/j.png""style = ""width:30px; height:30px;position:fixed; top:43%;    transform: translate(-50%, -50%);left:60%""></img>","media/stimuli/inanimate_008_left.png","inanimate","left","single","media/stimuli/inanimate_008_left.png","inanimate","left","pair","media/stimuli/animate_009_left.png","animate","left","single","number_animacy"
