"success","timeout","failed_images","failed_audio","failed_video","trial_type","trial_index","time_elapsed","internal_node_id","subject","prolific_id","study","session","window_width","window_height","view_history","rt","stimulus_type","response","question_order","rating_type","stimulus","target","target_animacy","target_pose","target_number","left","left_animacy","left_pose","left_number","right","right_animacy","right_pose","right_number","comparison_type","rating_stimulus","rating_animacy","rating_number","rating_pose"
"true","false","[]","[]","[]","preload","0","5052","0.0-0.0","SS1678233184090","63e64959bf1cb4617fa269e5","6406d7f26dd5b7fc1e3377bd","6407ce5430ef0dd231e64f75","1360","625","","","","","","","","","","","","","","","","","","","","","","","",""
"","","","","","instructions","1","12239","0.0-1.0","SS1678233184090","63e64959bf1cb4617fa269e5","6406d7f26dd5b7fc1e3377bd","6407ce5430ef0dd231e64f75","1360","625","[{""page_index"":0,""viewing_time"":7185}]","7186","","","","","","","","","","","","","","","","","","","","","",""
"","","","","","instructions","2","28439","0.0-2.0","SS1678233184090","63e64959bf1cb4617fa269e5","6406d7f26dd5b7fc1e3377bd","6407ce5430ef0dd231e64f75","1360","625","[{""page_index"":0,""viewing_time"":14195}]","14195","instructions","","","","","","","","","","","","","","","","","","","","",""
"","","","","","instructions","3","32183","0.0-3.0","SS1678233184090","63e64959bf1cb4617fa269e5","6406d7f26dd5b7fc1e3377bd","6407ce5430ef0dd231e64f75","1360","625","[{""page_index"":0,""viewing_time"":3743}]","3743","instructions","","","","","","","","","","","","","","","","","","","","",""
"","","","","","survey-likert","4","42344","0.0-4.0","SS1678233184090","63e64959bf1cb4617fa269e5","6406d7f26dd5b7fc1e3377bd","6407ce5430ef0dd231e64f75","1360","625","","10159","","{""Q0"":5}","[0]","anchoring","","","","","","","","","","","","","","","","","",""
"","","","","","survey-likert","5","47743","0.0-5.0","SS1678233184090","63e64959bf1cb4617fa269e5","6406d7f26dd5b7fc1e3377bd","6407ce5430ef0dd231e64f75","1360","625","","5395","","{""Q0"":1}","[0]","anchoring","","","","","","","","","","","","","","","","","",""
"","","","","","instructions","6","49871","0.0-6.0","SS1678233184090","63e64959bf1cb4617fa269e5","6406d7f26dd5b7fc1e3377bd","6407ce5430ef0dd231e64f75","1360","625","[{""page_index"":0,""viewing_time"":2124}]","2124","instructions","","","","","","","","","","","","","","","","","","","","",""
"true","","","","","fullscreen","7","53319","0.0-7.0","SS1678233184090","63e64959bf1cb4617fa269e5","6406d7f26dd5b7fc1e3377bd","6407ce5430ef0dd231e64f75","1360","625","","","","","","","","","","","","","","","","","","","","","","","",""
"","","","","","html-keyboard-response","8","69458","0.0-8.0","SS1678233184090","63e64959bf1cb4617fa269e5","6406d7f26dd5b7fc1e3377bd","6407ce5430ef0dd231e64f75","1360","625","","16134","","j","","","<img src=""media/stimuli/inanimate_006_right.png"" class=""coveredImage test"" style = ""width:100px; height:100px; position:fixed; top:10%;    transform: translate(-50%, -50%);left:44.5%""></img><img src=""media/stimuli/inanimate_006_right.png"" class=""coveredImage test"" style = ""width:100px; height:100px; position:fixed; top:10%;    transform: translate(-50%, -50%);left:51.5%""></img><img src=""media/stimuli/animate_008_right.png"" class=""coveredImage test"" style = ""width:100px; height:100px;position:fixed; top:25%;        transform: translate(-50%, -50%);left:34.5%""></img><img src=""media/stimuli/animate_008_right.png"" class=""coveredImage test"" style = ""width:100px; height:100px;position:fixed; top:25%;        transform: translate(-50%, -50%);left:41.5%""></img><img src=""media/stimuli/inanimate_011_right.png"" class=""coveredImage test"" style = ""width:100px; height:100px;position:fixed; top:25%;        transform: translate(-50%, -50%);left:54.5%""></img><img src=""media/stimuli/inanimate_011_right.png"" class=""coveredImage test"" style = ""width:100px; height:100px;position:fixed; top:25%;        transform: translate(-50%, -50%);left:61.5%""></img><img src=""media/f.png""style = ""width:30px x; height:30px;position:fixed; top:43%;    transform: translate(-50%, -50%);left:40%""></img><img src=""media/j.png""style = ""width:30px; height:30px;position:fixed; top:43%;    transform: translate(-50%, -50%);left:60%""></img>","media/stimuli/inanimate_006_right.png","inanimate","right","pair","media/stimuli/animate_008_right.png","animate","right","pair","media/stimuli/inanimate_011_right.png","inanimate","right","pair","animacy_identity","","","",""
"","","","","","html-keyboard-response","9","70951","0.0-9.0","SS1678233184090","63e64959bf1cb4617fa269e5","6406d7f26dd5b7fc1e3377bd","6407ce5430ef0dd231e64f75","1360","625","","1489","","j","","","<img src=""media/stimuli/animate_007_left.png"" class=""coveredImage test"" style = ""width:100px; height:100px; position:fixed; top:10%;    transform: translate(-50%, -50%);left:48%""></img><img src=""media/stimuli/inanimate_005_left.png"" class=""coveredImage test"" style = ""width:100px; height:100px;position:fixed; top:25%;        transform: translate(-50%, -50%);left:38%""></img><img src=""media/stimuli/animate_007_left.png"" class=""coveredImage test"" style = ""width:100px; height:100px;position:fixed; top:25%;        transform: translate(-50%, -50%);left:54.5%""></img><img src=""media/stimuli/animate_007_left.png"" class=""coveredImage test"" style = ""width:100px; height:100px;position:fixed; top:25%;        transform: translate(-50%, -50%);left:61.5%""></img><img src=""media/f.png""style = ""width:30px x; height:30px;position:fixed; top:43%;    transform: translate(-50%, -50%);left:40%""></img><img src=""media/j.png""style = ""width:30px; height:30px;position:fixed; top:43%;    transform: translate(-50%, -50%);left:60%""></img>","media/stimuli/animate_007_left.png","animate","left","single","media/stimuli/inanimate_005_left.png","inanimate","left","single","media/stimuli/animate_007_left.png","animate","left","pair","animacy_number","","","",""
"","","","","","html-keyboard-response","10","73936","0.0-10.0","SS1678233184090","63e64959bf1cb4617fa269e5","6406d7f26dd5b7fc1e3377bd","6407ce5430ef0dd231e64f75","1360","625","","2980","","f","","","<img src=""media/stimuli/animate_002_left.png"" class=""coveredImage test"" style = ""width:100px; height:100px; position:fixed; top:10%;    transform: translate(-50%, -50%);left:44.5%""></img><img src=""media/stimuli/animate_002_left.png"" class=""coveredImage test"" style = ""width:100px; height:100px; position:fixed; top:10%;    transform: translate(-50%, -50%);left:51.5%""></img><img src=""media/stimuli/animate_002_right.png"" class=""coveredImage test"" style = ""width:100px; height:100px;position:fixed; top:25%;        transform: translate(-50%, -50%);left:34.5%""></img><img src=""media/stimuli/animate_002_right.png"" class=""coveredImage test"" style = ""width:100px; height:100px;position:fixed; top:25%;        transform: translate(-50%, -50%);left:41.5%""></img><img src=""media/stimuli/animate_008_left.png"" class=""coveredImage test"" style = ""width:100px; height:100px;position:fixed; top:25%;        transform: translate(-50%, -50%);left:54.5%""></img><img src=""media/stimuli/animate_008_left.png"" class=""coveredImage test"" style = ""width:100px; height:100px;position:fixed; top:25%;        transform: translate(-50%, -50%);left:61.5%""></img><img src=""media/f.png""style = ""width:30px x; height:30px;position:fixed; top:43%;    transform: translate(-50%, -50%);left:40%""></img><img src=""media/j.png""style = ""width:30px; height:30px;position:fixed; top:43%;    transform: translate(-50%, -50%);left:60%""></img>","media/stimuli/animate_002_left.png","animate","left","pair","media/stimuli/animate_002_right.png","animate","right","pair","media/stimuli/animate_008_left.png","animate","left","pair","pose_identity","","","",""
"","","","","","html-keyboard-response","11","75919","0.0-11.0","SS1678233184090","63e64959bf1cb4617fa269e5","6406d7f26dd5b7fc1e3377bd","6407ce5430ef0dd231e64f75","1360","625","","1978","","j","","","<img src=""media/stimuli/animate_006_right.png"" class=""coveredImage test"" style = ""width:100px; height:100px; position:fixed; top:10%;    transform: translate(-50%, -50%);left:44.5%""></img><img src=""media/stimuli/animate_006_right.png"" class=""coveredImage test"" style = ""width:100px; height:100px; position:fixed; top:10%;    transform: translate(-50%, -50%);left:51.5%""></img><img src=""media/stimuli/animate_008_right.png"" class=""coveredImage test"" style = ""width:100px; height:100px;position:fixed; top:25%;        transform: translate(-50%, -50%);left:34.5%""></img><img src=""media/stimuli/animate_008_right.png"" class=""coveredImage test"" style = ""width:100px; height:100px;position:fixed; top:25%;        transform: translate(-50%, -50%);left:41.5%""></img><img src=""media/stimuli/animate_006_left.png"" class=""coveredImage test"" style = ""width:100px; height:100px;position:fixed; top:25%;        transform: translate(-50%, -50%);left:54.5%""></img><img src=""media/stimuli/animate_006_left.png"" class=""coveredImage test"" style = ""width:100px; height:100px;position:fixed; top:25%;        transform: translate(-50%, -50%);left:61.5%""></img><img src=""media/f.png""style = ""width:30px x; height:30px;position:fixed; top:43%;    transform: translate(-50%, -50%);left:40%""></img><img src=""media/j.png""style = ""width:30px; height:30px;position:fixed; top:43%;    transform: translate(-50%, -50%);left:60%""></img>","media/stimuli/animate_006_right.png","animate","right","pair","media/stimuli/animate_008_right.png","animate","right","pair","media/stimuli/animate_006_left.png","animate","left","pair","identity_pose","","","",""
"","","","","","html-keyboard-response","12","77871","0.0-12.0","SS1678233184090","63e64959bf1cb4617fa269e5","6406d7f26dd5b7fc1e3377bd","6407ce5430ef0dd231e64f75","1360","625","","1948","","f","","","<img src=""media/stimuli/animate_008_left.png"" class=""coveredImage test"" style = ""width:100px; height:100px; position:fixed; top:10%;    transform: translate(-50%, -50%);left:48%""></img><img src=""media/stimuli/animate_006_left.png"" class=""coveredImage test"" style = ""width:100px; height:100px;position:fixed; top:25%;        transform: translate(-50%, -50%);left:38%""></img><img src=""media/stimuli/inanimate_002_left.png"" class=""coveredImage test"" style = ""width:100px; height:100px;position:fixed; top:25%;        transform: translate(-50%, -50%);left:58%""></img><img src=""media/f.png""style = ""width:30px x; height:30px;position:fixed; top:43%;    transform: translate(-50%, -50%);left:40%""></img><img src=""media/j.png""style = ""width:30px; height:30px;position:fixed; top:43%;    transform: translate(-50%, -50%);left:60%""></img>","media/stimuli/animate_008_left.png","animate","left","single","media/stimuli/animate_006_left.png","animate","left","single","media/stimuli/inanimate_002_left.png","inanimate","left","single","identity_animacy","","","",""
"","","","","","html-keyboard-response","13","79375","0.0-13.0","SS1678233184090","63e64959bf1cb4617fa269e5","6406d7f26dd5b7fc1e3377bd","6407ce5430ef0dd231e64f75","1360","625","","1499","","j","","","<img src=""media/stimuli/inanimate_004_left.png"" class=""coveredImage test"" style = ""width:100px; height:100px; position:fixed; top:10%;    transform: translate(-50%, -50%);left:44.5%""></img><img src=""media/stimuli/inanimate_004_left.png"" class=""coveredImage test"" style = ""width:100px; height:100px; position:fixed; top:10%;    transform: translate(-50%, -50%);left:51.5%""></img><img src=""media/stimuli/inanimate_005_left.png"" class=""coveredImage test"" style = ""width:100px; height:100px;position:fixed; top:25%;        transform: translate(-50%, -50%);left:34.5%""></img><img src=""media/stimuli/inanimate_005_left.png"" class=""coveredImage test"" style = ""width:100px; height:100px;position:fixed; top:25%;        transform: translate(-50%, -50%);left:41.5%""></img><img src=""media/stimuli/inanimate_004_right.png"" class=""coveredImage test"" style = ""width:100px; height:100px;position:fixed; top:25%;        transform: translate(-50%, -50%);left:54.5%""></img><img src=""media/stimuli/inanimate_004_right.png"" class=""coveredImage test"" style = ""width:100px; height:100px;position:fixed; top:25%;        transform: translate(-50%, -50%);left:61.5%""></img><img src=""media/f.png""style = ""width:30px x; height:30px;position:fixed; top:43%;    transform: translate(-50%, -50%);left:40%""></img><img src=""media/j.png""style = ""width:30px; height:30px;position:fixed; top:43%;    transform: translate(-50%, -50%);left:60%""></img>","media/stimuli/inanimate_004_left.png","inanimate","left","pair","media/stimuli/inanimate_005_left.png","inanimate","left","pair","media/stimuli/inanimate_004_right.png","inanimate","right","pair","identity_pose","","","",""
"","","","","","html-keyboard-response","14","80873","0.0-14.0","SS1678233184090","63e64959bf1cb4617fa269e5","6406d7f26dd5b7fc1e3377bd","6407ce5430ef0dd231e64f75","1360","625","","1492","","j","","","<img src=""media/stimuli/inanimate_007_left.png"" class=""coveredImage test"" style = ""width:100px; height:100px; position:fixed; top:10%;    transform: translate(-50%, -50%);left:44.5%""></img><img src=""media/stimuli/inanimate_007_left.png"" class=""coveredImage test"" style = ""width:100px; height:100px; position:fixed; top:10%;    transform: translate(-50%, -50%);left:51.5%""></img><img src=""media/stimuli/inanimate_011_left.png"" class=""coveredImage test"" style = ""width:100px; height:100px;position:fixed; top:25%;        transform: translate(-50%, -50%);left:34.5%""></img><img src=""media/stimuli/inanimate_011_left.png"" class=""coveredImage test"" style = ""width:100px; height:100px;position:fixed; top:25%;        transform: translate(-50%, -50%);left:41.5%""></img><img src=""media/stimuli/inanimate_007_left.png"" class=""coveredImage test"" style = ""width:100px; height:100px;position:fixed; top:25%;        transform: translate(-50%, -50%);left:58%""></img><img src=""media/f.png""style = ""width:30px x; height:30px;position:fixed; top:43%;    transform: translate(-50%, -50%);left:40%""></img><img src=""media/j.png""style = ""width:30px; height:30px;position:fixed; top:43%;    transform: translate(-50%, -50%);left:60%""></img>","media/stimuli/inanimate_007_left.png","inanimate","left","pair","media/stimuli/inanimate_011_left.png","inanimate","left","pair","media/stimuli/inanimate_007_left.png","inanimate","left","single","identity_number","","","",""
"","","","","","html-keyboard-response","15","83991","0.0-15.0","SS1678233184090","63e64959bf1cb4617fa269e5","6406d7f26dd5b7fc1e3377bd","6407ce5430ef0dd231e64f75","1360","625","","3112","","j","","","<img src=""media/stimuli/inanimate_005_right.png"" class=""coveredImage test"" style = ""width:100px; height:100px; position:fixed; top:10%;    transform: translate(-50%, -50%);left:48%""></img><img src=""media/stimuli/animate_005_right.png"" class=""coveredImage test"" style = ""width:100px; height:100px;position:fixed; top:25%;        transform: translate(-50%, -50%);left:38%""></img><img src=""media/stimuli/inanimate_003_right.png"" class=""coveredImage test"" style = ""width:100px; height:100px;position:fixed; top:25%;        transform: translate(-50%, -50%);left:58%""></img><img src=""media/f.png""style = ""width:30px x; height:30px;position:fixed; top:43%;    transform: translate(-50%, -50%);left:40%""></img><img src=""media/j.png""style = ""width:30px; height:30px;position:fixed; top:43%;    transform: translate(-50%, -50%);left:60%""></img>","media/stimuli/inanimate_005_right.png","inanimate","right","single","media/stimuli/animate_005_right.png","animate","right","single","media/stimuli/inanimate_003_right.png","inanimate","right","single","animacy_identity","","","",""
"","","","","","html-keyboard-response","16","85239","0.0-16.0","SS1678233184090","63e64959bf1cb4617fa269e5","6406d7f26dd5b7fc1e3377bd","6407ce5430ef0dd231e64f75","1360","625","","1244","","j","","","<img src=""media/stimuli/animate_002_left.png"" class=""coveredImage test"" style = ""width:100px; height:100px; position:fixed; top:10%;    transform: translate(-50%, -50%);left:44.5%""></img><img src=""media/stimuli/animate_002_left.png"" class=""coveredImage test"" style = ""width:100px; height:100px; position:fixed; top:10%;    transform: translate(-50%, -50%);left:51.5%""></img><img src=""media/stimuli/inanimate_012_left.png"" class=""coveredImage test"" style = ""width:100px; height:100px;position:fixed; top:25%;        transform: translate(-50%, -50%);left:34.5%""></img><img src=""media/stimuli/inanimate_012_left.png"" class=""coveredImage test"" style = ""width:100px; height:100px;position:fixed; top:25%;        transform: translate(-50%, -50%);left:41.5%""></img><img src=""media/stimuli/animate_002_left.png"" class=""coveredImage test"" style = ""width:100px; height:100px;position:fixed; top:25%;        transform: translate(-50%, -50%);left:58%""></img><img src=""media/f.png""style = ""width:30px x; height:30px;position:fixed; top:43%;    transform: translate(-50%, -50%);left:40%""></img><img src=""media/j.png""style = ""width:30px; height:30px;position:fixed; top:43%;    transform: translate(-50%, -50%);left:60%""></img>","media/stimuli/animate_002_left.png","animate","left","pair","media/stimuli/inanimate_012_left.png","inanimate","left","pair","media/stimuli/animate_002_left.png","animate","left","single","animacy_number","","","",""
"","","","","","html-keyboard-response","17","86711","0.0-17.0","SS1678233184090","63e64959bf1cb4617fa269e5","6406d7f26dd5b7fc1e3377bd","6407ce5430ef0dd231e64f75","1360","625","","1464","","f","","","<img src=""media/stimuli/animate_008_left.png"" class=""coveredImage test"" style = ""width:100px; height:100px; position:fixed; top:10%;    transform: translate(-50%, -50%);left:48%""></img><img src=""media/stimuli/animate_008_right.png"" class=""coveredImage test"" style = ""width:100px; height:100px;position:fixed; top:25%;        transform: translate(-50%, -50%);left:38%""></img><img src=""media/stimuli/animate_011_left.png"" class=""coveredImage test"" style = ""width:100px; height:100px;position:fixed; top:25%;        transform: translate(-50%, -50%);left:58%""></img><img src=""media/f.png""style = ""width:30px x; height:30px;position:fixed; top:43%;    transform: translate(-50%, -50%);left:40%""></img><img src=""media/j.png""style = ""width:30px; height:30px;position:fixed; top:43%;    transform: translate(-50%, -50%);left:60%""></img>","media/stimuli/animate_008_left.png","animate","left","single","media/stimuli/animate_008_right.png","animate","right","single","media/stimuli/animate_011_left.png","animate","left","single","pose_identity","","","",""
"","","","","","html-keyboard-response","18","88951","0.0-18.0","SS1678233184090","63e64959bf1cb4617fa269e5","6406d7f26dd5b7fc1e3377bd","6407ce5430ef0dd231e64f75","1360","625","","2235","","f","","","<img src=""media/stimuli/inanimate_008_right.png"" class=""coveredImage test"" style = ""width:100px; height:100px; position:fixed; top:10%;    transform: translate(-50%, -50%);left:48%""></img><img src=""media/stimuli/inanimate_010_right.png"" class=""coveredImage test"" style = ""width:100px; height:100px;position:fixed; top:25%;        transform: translate(-50%, -50%);left:38%""></img><img src=""media/stimuli/animate_012_right.png"" class=""coveredImage test"" style = ""width:100px; height:100px;position:fixed; top:25%;        transform: translate(-50%, -50%);left:58%""></img><img src=""media/f.png""style = ""width:30px x; height:30px;position:fixed; top:43%;    transform: translate(-50%, -50%);left:40%""></img><img src=""media/j.png""style = ""width:30px; height:30px;position:fixed; top:43%;    transform: translate(-50%, -50%);left:60%""></img>","media/stimuli/inanimate_008_right.png","inanimate","right","single","media/stimuli/inanimate_010_right.png","inanimate","right","single","media/stimuli/animate_012_right.png","animate","right","single","identity_animacy","","","",""
"","","","","","html-keyboard-response","19","90888","0.0-19.0","SS1678233184090","63e64959bf1cb4617fa269e5","6406d7f26dd5b7fc1e3377bd","6407ce5430ef0dd231e64f75","1360","625","","1930","","j","","","<img src=""media/stimuli/animate_009_left.png"" class=""coveredImage test"" style = ""width:100px; height:100px; position:fixed; top:10%;    transform: translate(-50%, -50%);left:44.5%""></img><img src=""media/stimuli/animate_009_left.png"" class=""coveredImage test"" style = ""width:100px; height:100px; position:fixed; top:10%;    transform: translate(-50%, -50%);left:51.5%""></img><img src=""media/stimuli/inanimate_008_left.png"" class=""coveredImage test"" style = ""width:100px; height:100px;position:fixed; top:25%;        transform: translate(-50%, -50%);left:34.5%""></img><img src=""media/stimuli/inanimate_008_left.png"" class=""coveredImage test"" style = ""width:100px; height:100px;position:fixed; top:25%;        transform: translate(-50%, -50%);left:41.5%""></img><img src=""media/stimuli/animate_006_left.png"" class=""coveredImage test"" style = ""width:100px; height:100px;position:fixed; top:25%;        transform: translate(-50%, -50%);left:54.5%""></img><img src=""media/stimuli/animate_006_left.png"" class=""coveredImage test"" style = ""width:100px; height:100px;position:fixed; top:25%;        transform: translate(-50%, -50%);left:61.5%""></img><img src=""media/f.png""style = ""width:30px x; height:30px;position:fixed; top:43%;    transform: translate(-50%, -50%);left:40%""></img><img src=""media/j.png""style = ""width:30px; height:30px;position:fixed; top:43%;    transform: translate(-50%, -50%);left:60%""></img>","media/stimuli/animate_009_left.png","animate","left","pair","media/stimuli/inanimate_008_left.png","inanimate","left","pair","media/stimuli/animate_006_left.png","animate","left","pair","animacy_identity","","","",""
"","","","","","html-keyboard-response","20","93822","0.0-20.0","SS1678233184090","63e64959bf1cb4617fa269e5","6406d7f26dd5b7fc1e3377bd","6407ce5430ef0dd231e64f75","1360","625","","2930","","j","","","","","","","","","","","","","","","","","","","",""
"","","","","","survey-likert","21","100999","0.0-21.0","SS1678233184090","63e64959bf1cb4617fa269e5","6406d7f26dd5b7fc1e3377bd","6407ce5430ef0dd231e64f75","1360","625","","7175","","{""Q0"":1}","[0]","complexity","","","","","","","","","","","","","","","media/stimuli/inanimate_006_right.png","inanimate","pair","right"
"","","","","","survey-likert","22","103758","0.0-22.0","SS1678233184090","63e64959bf1cb4617fa269e5","6406d7f26dd5b7fc1e3377bd","6407ce5430ef0dd231e64f75","1360","625","","2756","","{""Q0"":2}","[0]","complexity","","","","","","","","","","","","","","","media/stimuli/animate_012_right.png","animate","single","right"
"","","","","","survey-likert","23","106294","0.0-23.0","SS1678233184090","63e64959bf1cb4617fa269e5","6406d7f26dd5b7fc1e3377bd","6407ce5430ef0dd231e64f75","1360","625","","2532","","{""Q0"":1}","[0]","complexity","","","","","","","","","","","","","","","media/stimuli/inanimate_006_left.png","inanimate","pair","left"
"","","","","","survey-likert","24","110622","0.0-24.0","SS1678233184090","63e64959bf1cb4617fa269e5","6406d7f26dd5b7fc1e3377bd","6407ce5430ef0dd231e64f75","1360","625","","4324","","{""Q0"":2}","[0]","complexity","","","","","","","","","","","","","","","media/stimuli/animate_002_left.png","animate","pair","left"
"","","","","","survey-likert","25","113854","0.0-25.0","SS1678233184090","63e64959bf1cb4617fa269e5","6406d7f26dd5b7fc1e3377bd","6407ce5430ef0dd231e64f75","1360","625","","3228","","{""Q0"":2}","[0]","complexity","","","","","","","","","","","","","","","media/stimuli/animate_011_left.png","animate","single","left"
"","","","","","survey-likert","26","117239","0.0-26.0","SS1678233184090","63e64959bf1cb4617fa269e5","6406d7f26dd5b7fc1e3377bd","6407ce5430ef0dd231e64f75","1360","625","","3381","","{""Q0"":0}","[0]","complexity","","","","","","","","","","","","","","","media/stimuli/inanimate_008_left.png","inanimate","single","left"
"","","","","","survey-likert","27","119480","0.0-27.0","SS1678233184090","63e64959bf1cb4617fa269e5","6406d7f26dd5b7fc1e3377bd","6407ce5430ef0dd231e64f75","1360","625","","2236","","{""Q0"":0}","[0]","complexity","","","","","","","","","","","","","","","media/stimuli/inanimate_009_left.png","inanimate","single","left"
"","","","","","survey-likert","28","122558","0.0-28.0","SS1678233184090","63e64959bf1cb4617fa269e5","6406d7f26dd5b7fc1e3377bd","6407ce5430ef0dd231e64f75","1360","625","","3075","","{""Q0"":2}","[0]","complexity","","","","","","","","","","","","","","","media/stimuli/animate_012_left.png","animate","pair","left"
"","","","","","survey-likert","29","125263","0.0-29.0","SS1678233184090","63e64959bf1cb4617fa269e5","6406d7f26dd5b7fc1e3377bd","6407ce5430ef0dd231e64f75","1360","625","","2701","","{""Q0"":1}","[0]","complexity","","","","","","","","","","","","","","","media/stimuli/inanimate_006_right.png","inanimate","single","right"
"","","","","","survey-likert","30","128295","0.0-30.0","SS1678233184090","63e64959bf1cb4617fa269e5","6406d7f26dd5b7fc1e3377bd","6407ce5430ef0dd231e64f75","1360","625","","3028","","{""Q0"":0}","[0]","complexity","","","","","","","","","","","","","","","media/stimuli/inanimate_009_left.png","inanimate","pair","left"
"","","","","","survey-likert","31","131750","0.0-31.0","SS1678233184090","63e64959bf1cb4617fa269e5","6406d7f26dd5b7fc1e3377bd","6407ce5430ef0dd231e64f75","1360","625","","3451","","{""Q0"":3}","[0]","complexity","","","","","","","","","","","","","","","media/stimuli/animate_003_left.png","animate","pair","left"
"","","","","","survey-likert","32","136814","0.0-32.0","SS1678233184090","63e64959bf1cb4617fa269e5","6406d7f26dd5b7fc1e3377bd","6407ce5430ef0dd231e64f75","1360","625","","5058","","{""Q0"":1}","[0]","complexity","","","","","","","","","","","","","","","media/stimuli/inanimate_004_right.png","inanimate","pair","right"
"","","","","","html-keyboard-response","33","141582","0.0-33.0","SS1678233184090","63e64959bf1cb4617fa269e5","6406d7f26dd5b7fc1e3377bd","6407ce5430ef0dd231e64f75","1360","625","","4764","","l","","","","","","","","","","","","","","","","","","","",""
"","","","","","survey-likert","34","145774","0.0-34.0","SS1678233184090","63e64959bf1cb4617fa269e5","6406d7f26dd5b7fc1e3377bd","6407ce5430ef0dd231e64f75","1360","625","","4190","","{""Q0"":1}","[0]","complexity","","","","","","","","","","","","","","","media/stimuli/inanimate_004_left.png","inanimate","pair","left"
"","","","","","survey-likert","35","148015","0.0-35.0","SS1678233184090","63e64959bf1cb4617fa269e5","6406d7f26dd5b7fc1e3377bd","6407ce5430ef0dd231e64f75","1360","625","","2237","","{""Q0"":2}","[0]","complexity","","","","","","","","","","","","","","","media/stimuli/animate_010_left.png","animate","single","left"
"","","","","","survey-likert","36","150439","0.0-36.0","SS1678233184090","63e64959bf1cb4617fa269e5","6406d7f26dd5b7fc1e3377bd","6407ce5430ef0dd231e64f75","1360","625","","2420","","{""Q0"":0}","[0]","complexity","","","","","","","","","","","","","","","media/stimuli/inanimate_003_right.png","inanimate","single","right"
"","","","","","survey-likert","37","153350","0.0-37.0","SS1678233184090","63e64959bf1cb4617fa269e5","6406d7f26dd5b7fc1e3377bd","6407ce5430ef0dd231e64f75","1360","625","","2907","","{""Q0"":0}","[0]","complexity","","","","","","","","","","","","","","","media/stimuli/inanimate_002_right.png","inanimate","single","right"
"","","","","","survey-likert","38","155582","0.0-38.0","SS1678233184090","63e64959bf1cb4617fa269e5","6406d7f26dd5b7fc1e3377bd","6407ce5430ef0dd231e64f75","1360","625","","2228","","{""Q0"":0}","[0]","complexity","","","","","","","","","","","","","","","media/stimuli/inanimate_001_left.png","inanimate","single","left"
"","","","","","survey-likert","39","158702","0.0-39.0","SS1678233184090","63e64959bf1cb4617fa269e5","6406d7f26dd5b7fc1e3377bd","6407ce5430ef0dd231e64f75","1360","625","","3115","","{""Q0"":2}","[0]","complexity","","","","","","","","","","","","","","","media/stimuli/inanimate_011_left.png","inanimate","pair","left"
"","","","","","survey-likert","40","162031","0.0-40.0","SS1678233184090","63e64959bf1cb4617fa269e5","6406d7f26dd5b7fc1e3377bd","6407ce5430ef0dd231e64f75","1360","625","","3325","","{""Q0"":4}","[0]","complexity","","","","","","","","","","","","","","","media/stimuli/animate_001_left.png","animate","pair","left"
"","","","","","survey-likert","41","164655","0.0-41.0","SS1678233184090","63e64959bf1cb4617fa269e5","6406d7f26dd5b7fc1e3377bd","6407ce5430ef0dd231e64f75","1360","625","","2621","","{""Q0"":2}","[0]","complexity","","","","","","","","","","","","","","","media/stimuli/animate_010_right.png","animate","single","right"
"","","","","","survey-likert","42","168198","0.0-42.0","SS1678233184090","63e64959bf1cb4617fa269e5","6406d7f26dd5b7fc1e3377bd","6407ce5430ef0dd231e64f75","1360","625","","3539","","{""Q0"":2}","[0]","complexity","","","","","","","","","","","","","","","media/stimuli/animate_007_right.png","animate","single","right"
"","","","","","survey-likert","43","170798","0.0-43.0","SS1678233184090","63e64959bf1cb4617fa269e5","6406d7f26dd5b7fc1e3377bd","6407ce5430ef0dd231e64f75","1360","625","","2595","","{""Q0"":1}","[0]","complexity","","","","","","","","","","","","","","","media/stimuli/inanimate_010_right.png","inanimate","single","right"
"","","","","","survey-likert","44","173614","0.0-44.0","SS1678233184090","63e64959bf1cb4617fa269e5","6406d7f26dd5b7fc1e3377bd","6407ce5430ef0dd231e64f75","1360","625","","2812","","{""Q0"":2}","[0]","complexity","","","","","","","","","","","","","","","media/stimuli/animate_009_right.png","animate","single","right"
"","","","","","survey-likert","45","176126","0.0-45.0","SS1678233184090","63e64959bf1cb4617fa269e5","6406d7f26dd5b7fc1e3377bd","6407ce5430ef0dd231e64f75","1360","625","","2507","","{""Q0"":3}","[0]","complexity","","","","","","","","","","","","","","","media/stimuli/animate_005_left.png","animate","pair","left"
"","","","","","html-keyboard-response","46","178697","0.0-46.0","SS1678233184090","63e64959bf1cb4617fa269e5","6406d7f26dd5b7fc1e3377bd","6407ce5430ef0dd231e64f75","1360","625","","2566","","x","","","","","","","","","","","","","","","","","","","",""
"","","","","","html-keyboard-response","47","185919","0.0-47.0","SS1678233184090","63e64959bf1cb4617fa269e5","6406d7f26dd5b7fc1e3377bd","6407ce5430ef0dd231e64f75","1360","625","","7216","","j","","","<img src=""media/stimuli/inanimate_001_right.png"" class=""coveredImage test"" style = ""width:100px; height:100px; position:fixed; top:10%;    transform: translate(-50%, -50%);left:44.5%""></img><img src=""media/stimuli/inanimate_001_right.png"" class=""coveredImage test"" style = ""width:100px; height:100px; position:fixed; top:10%;    transform: translate(-50%, -50%);left:51.5%""></img><img src=""media/stimuli/inanimate_001_left.png"" class=""coveredImage test"" style = ""width:100px; height:100px;position:fixed; top:25%;        transform: translate(-50%, -50%);left:34.5%""></img><img src=""media/stimuli/inanimate_001_left.png"" class=""coveredImage test"" style = ""width:100px; height:100px;position:fixed; top:25%;        transform: translate(-50%, -50%);left:41.5%""></img><img src=""media/stimuli/inanimate_001_right.png"" class=""coveredImage test"" style = ""width:100px; height:100px;position:fixed; top:25%;        transform: translate(-50%, -50%);left:58%""></img><img src=""media/f.png""style = ""width:30px x; height:30px;position:fixed; top:43%;    transform: translate(-50%, -50%);left:40%""></img><img src=""media/j.png""style = ""width:30px; height:30px;position:fixed; top:43%;    transform: translate(-50%, -50%);left:60%""></img>","media/stimuli/inanimate_001_right.png","inanimate","right","pair","media/stimuli/inanimate_001_left.png","inanimate","left","pair","media/stimuli/inanimate_001_right.png","inanimate","right","single","pose_number","","","",""
"","","","","","html-keyboard-response","48","187255","0.0-48.0","SS1678233184090","63e64959bf1cb4617fa269e5","6406d7f26dd5b7fc1e3377bd","6407ce5430ef0dd231e64f75","1360","625","","1330","","j","","","<img src=""media/stimuli/inanimate_008_right.png"" class=""coveredImage test"" style = ""width:100px; height:100px; position:fixed; top:10%;    transform: translate(-50%, -50%);left:44.5%""></img><img src=""media/stimuli/inanimate_008_right.png"" class=""coveredImage test"" style = ""width:100px; height:100px; position:fixed; top:10%;    transform: translate(-50%, -50%);left:51.5%""></img><img src=""media/stimuli/inanimate_004_right.png"" class=""coveredImage test"" style = ""width:100px; height:100px;position:fixed; top:25%;        transform: translate(-50%, -50%);left:34.5%""></img><img src=""media/stimuli/inanimate_004_right.png"" class=""coveredImage test"" style = ""width:100px; height:100px;position:fixed; top:25%;        transform: translate(-50%, -50%);left:41.5%""></img><img src=""media/stimuli/inanimate_008_left.png"" class=""coveredImage test"" style = ""width:100px; height:100px;position:fixed; top:25%;        transform: translate(-50%, -50%);left:54.5%""></img><img src=""media/stimuli/inanimate_008_left.png"" class=""coveredImage test"" style = ""width:100px; height:100px;position:fixed; top:25%;        transform: translate(-50%, -50%);left:61.5%""></img><img src=""media/f.png""style = ""width:30px x; height:30px;position:fixed; top:43%;    transform: translate(-50%, -50%);left:40%""></img><img src=""media/j.png""style = ""width:30px; height:30px;position:fixed; top:43%;    transform: translate(-50%, -50%);left:60%""></img>","media/stimuli/inanimate_008_right.png","inanimate","right","pair","media/stimuli/inanimate_004_right.png","inanimate","right","pair","media/stimuli/inanimate_008_left.png","inanimate","left","pair","identity_pose","","","",""
"","","","","","html-keyboard-response","49","190073","0.0-49.0","SS1678233184090","63e64959bf1cb4617fa269e5","6406d7f26dd5b7fc1e3377bd","6407ce5430ef0dd231e64f75","1360","625","","2811","","j","","","<img src=""media/stimuli/inanimate_003_right.png"" class=""coveredImage test"" style = ""width:100px; height:100px; position:fixed; top:10%;    transform: translate(-50%, -50%);left:48%""></img><img src=""media/stimuli/inanimate_003_right.png"" class=""coveredImage test"" style = ""width:100px; height:100px;position:fixed; top:25%;        transform: translate(-50%, -50%);left:38%""></img><img src=""media/stimuli/inanimate_003_right.png"" class=""coveredImage test"" style = ""width:100px; height:100px;position:fixed; top:25%;        transform: translate(-50%, -50%);left:54.5%""></img><img src=""media/stimuli/inanimate_003_right.png"" class=""coveredImage test"" style = ""width:100px; height:100px;position:fixed; top:25%;        transform: translate(-50%, -50%);left:61.5%""></img><img src=""media/f.png""style = ""width:30px x; height:30px;position:fixed; top:43%;    transform: translate(-50%, -50%);left:40%""></img><img src=""media/j.png""style = ""width:30px; height:30px;position:fixed; top:43%;    transform: translate(-50%, -50%);left:60%""></img>","media/stimuli/inanimate_003_right.png","inanimate","right","single","media/stimuli/inanimate_003_right.png","inanimate","right","single","media/stimuli/inanimate_003_right.png","inanimate","right","pair","filler_number","","","",""
"","","","","","html-keyboard-response","50","191232","0.0-50.0","SS1678233184090","63e64959bf1cb4617fa269e5","6406d7f26dd5b7fc1e3377bd","6407ce5430ef0dd231e64f75","1360","625","","1152","","j","","","<img src=""media/stimuli/inanimate_005_right.png"" class=""coveredImage test"" style = ""width:100px; height:100px; position:fixed; top:10%;    transform: translate(-50%, -50%);left:44.5%""></img><img src=""media/stimuli/inanimate_005_right.png"" class=""coveredImage test"" style = ""width:100px; height:100px; position:fixed; top:10%;    transform: translate(-50%, -50%);left:51.5%""></img><img src=""media/stimuli/animate_011_left.png"" class=""coveredImage test"" style = ""width:100px; height:100px;position:fixed; top:25%;        transform: translate(-50%, -50%);left:38%""></img><img src=""media/stimuli/inanimate_005_right.png"" class=""coveredImage test"" style = ""width:100px; height:100px;position:fixed; top:25%;        transform: translate(-50%, -50%);left:58%""></img><img src=""media/f.png""style = ""width:30px x; height:30px;position:fixed; top:43%;    transform: translate(-50%, -50%);left:40%""></img><img src=""media/j.png""style = ""width:30px; height:30px;position:fixed; top:43%;    transform: translate(-50%, -50%);left:60%""></img>","media/stimuli/inanimate_005_right.png","inanimate","right","pair","media/stimuli/animate_011_left.png","animate","left","single","media/stimuli/inanimate_005_right.png","inanimate","right","single","animacy_pose","","","",""
"","","","","","html-keyboard-response","51","193727","0.0-51.0","SS1678233184090","63e64959bf1cb4617fa269e5","6406d7f26dd5b7fc1e3377bd","6407ce5430ef0dd231e64f75","1360","625","","2488","","f","","","<img src=""media/stimuli/inanimate_010_left.png"" class=""coveredImage test"" style = ""width:100px; height:100px; position:fixed; top:10%;    transform: translate(-50%, -50%);left:44.5%""></img><img src=""media/stimuli/inanimate_010_left.png"" class=""coveredImage test"" style = ""width:100px; height:100px; position:fixed; top:10%;    transform: translate(-50%, -50%);left:51.5%""></img><img src=""media/stimuli/inanimate_010_right.png"" class=""coveredImage test"" style = ""width:100px; height:100px;position:fixed; top:25%;        transform: translate(-50%, -50%);left:34.5%""></img><img src=""media/stimuli/inanimate_010_right.png"" class=""coveredImage test"" style = ""width:100px; height:100px;position:fixed; top:25%;        transform: translate(-50%, -50%);left:41.5%""></img><img src=""media/stimuli/inanimate_010_left.png"" class=""coveredImage test"" style = ""width:100px; height:100px;position:fixed; top:25%;        transform: translate(-50%, -50%);left:58%""></img><img src=""media/f.png""style = ""width:30px x; height:30px;position:fixed; top:43%;    transform: translate(-50%, -50%);left:40%""></img><img src=""media/j.png""style = ""width:30px; height:30px;position:fixed; top:43%;    transform: translate(-50%, -50%);left:60%""></img>","media/stimuli/inanimate_010_left.png","inanimate","left","pair","media/stimuli/inanimate_010_right.png","inanimate","right","pair","media/stimuli/inanimate_010_left.png","inanimate","left","single","pose_number","","","",""
"","","","","","html-keyboard-response","52","195471","0.0-52.0","SS1678233184090","63e64959bf1cb4617fa269e5","6406d7f26dd5b7fc1e3377bd","6407ce5430ef0dd231e64f75","1360","625","","1735","","f","","","<img src=""media/stimuli/inanimate_005_right.png"" class=""coveredImage test"" style = ""width:100px; height:100px; position:fixed; top:10%;    transform: translate(-50%, -50%);left:44.5%""></img><img src=""media/stimuli/inanimate_005_right.png"" class=""coveredImage test"" style = ""width:100px; height:100px; position:fixed; top:10%;    transform: translate(-50%, -50%);left:51.5%""></img><img src=""media/stimuli/inanimate_005_left.png"" class=""coveredImage test"" style = ""width:100px; height:100px;position:fixed; top:25%;        transform: translate(-50%, -50%);left:34.5%""></img><img src=""media/stimuli/inanimate_005_left.png"" class=""coveredImage test"" style = ""width:100px; height:100px;position:fixed; top:25%;        transform: translate(-50%, -50%);left:41.5%""></img><img src=""media/stimuli/inanimate_005_right.png"" class=""coveredImage test"" style = ""width:100px; height:100px;position:fixed; top:25%;        transform: translate(-50%, -50%);left:58%""></img><img src=""media/f.png""style = ""width:30px x; height:30px;position:fixed; top:43%;    transform: translate(-50%, -50%);left:40%""></img><img src=""media/j.png""style = ""width:30px; height:30px;position:fixed; top:43%;    transform: translate(-50%, -50%);left:60%""></img>","media/stimuli/inanimate_005_right.png","inanimate","right","pair","media/stimuli/inanimate_005_left.png","inanimate","left","pair","media/stimuli/inanimate_005_right.png","inanimate","right","single","pose_number","","","",""
"","","","","","html-keyboard-response","53","196863","0.0-53.0","SS1678233184090","63e64959bf1cb4617fa269e5","6406d7f26dd5b7fc1e3377bd","6407ce5430ef0dd231e64f75","1360","625","","1381","","j","","","<img src=""media/stimuli/inanimate_008_right.png"" class=""coveredImage test"" style = ""width:100px; height:100px; position:fixed; top:10%;    transform: translate(-50%, -50%);left:44.5%""></img><img src=""media/stimuli/inanimate_008_right.png"" class=""coveredImage test"" style = ""width:100px; height:100px; position:fixed; top:10%;    transform: translate(-50%, -50%);left:51.5%""></img><img src=""media/stimuli/inanimate_002_right.png"" class=""coveredImage test"" style = ""width:100px; height:100px;position:fixed; top:25%;        transform: translate(-50%, -50%);left:34.5%""></img><img src=""media/stimuli/inanimate_002_right.png"" class=""coveredImage test"" style = ""width:100px; height:100px;position:fixed; top:25%;        transform: translate(-50%, -50%);left:41.5%""></img><img src=""media/stimuli/inanimate_008_left.png"" class=""coveredImage test"" style = ""width:100px; height:100px;position:fixed; top:25%;        transform: translate(-50%, -50%);left:54.5%""></img><img src=""media/stimuli/inanimate_008_left.png"" class=""coveredImage test"" style = ""width:100px; height:100px;position:fixed; top:25%;        transform: translate(-50%, -50%);left:61.5%""></img><img src=""media/f.png""style = ""width:30px x; height:30px;position:fixed; top:43%;    transform: translate(-50%, -50%);left:40%""></img><img src=""media/j.png""style = ""width:30px; height:30px;position:fixed; top:43%;    transform: translate(-50%, -50%);left:60%""></img>","media/stimuli/inanimate_008_right.png","inanimate","right","pair","media/stimuli/inanimate_002_right.png","inanimate","right","pair","media/stimuli/inanimate_008_left.png","inanimate","left","pair","identity_pose","","","",""
"","","","","","html-keyboard-response","54","199870","0.0-54.0","SS1678233184090","63e64959bf1cb4617fa269e5","6406d7f26dd5b7fc1e3377bd","6407ce5430ef0dd231e64f75","1360","625","","2997","","f","","","<img src=""media/stimuli/animate_010_left.png"" class=""coveredImage test"" style = ""width:100px; height:100px; position:fixed; top:10%;    transform: translate(-50%, -50%);left:48%""></img><img src=""media/stimuli/animate_010_right.png"" class=""coveredImage test"" style = ""width:100px; height:100px;position:fixed; top:25%;        transform: translate(-50%, -50%);left:38%""></img><img src=""media/stimuli/animate_010_left.png"" class=""coveredImage test"" style = ""width:100px; height:100px;position:fixed; top:25%;        transform: translate(-50%, -50%);left:54.5%""></img><img src=""media/stimuli/animate_010_left.png"" class=""coveredImage test"" style = ""width:100px; height:100px;position:fixed; top:25%;        transform: translate(-50%, -50%);left:61.5%""></img><img src=""media/f.png""style = ""width:30px x; height:30px;position:fixed; top:43%;    transform: translate(-50%, -50%);left:40%""></img><img src=""media/j.png""style = ""width:30px; height:30px;position:fixed; top:43%;    transform: translate(-50%, -50%);left:60%""></img>","media/stimuli/animate_010_left.png","animate","left","single","media/stimuli/animate_010_right.png","animate","right","single","media/stimuli/animate_010_left.png","animate","left","pair","pose_number","","","",""
"","","","","","html-keyboard-response","55","200953","0.0-55.0","SS1678233184090","63e64959bf1cb4617fa269e5","6406d7f26dd5b7fc1e3377bd","6407ce5430ef0dd231e64f75","1360","625","","1080","","j","","","<img src=""media/stimuli/inanimate_011_right.png"" class=""coveredImage test"" style = ""width:100px; height:100px; position:fixed; top:10%;    transform: translate(-50%, -50%);left:48%""></img><img src=""media/stimuli/animate_011_right.png"" class=""coveredImage test"" style = ""width:100px; height:100px;position:fixed; top:25%;        transform: translate(-50%, -50%);left:38%""></img><img src=""media/stimuli/inanimate_011_right.png"" class=""coveredImage test"" style = ""width:100px; height:100px;position:fixed; top:25%;        transform: translate(-50%, -50%);left:54.5%""></img><img src=""media/stimuli/inanimate_011_right.png"" class=""coveredImage test"" style = ""width:100px; height:100px;position:fixed; top:25%;        transform: translate(-50%, -50%);left:61.5%""></img><img src=""media/f.png""style = ""width:30px x; height:30px;position:fixed; top:43%;    transform: translate(-50%, -50%);left:40%""></img><img src=""media/j.png""style = ""width:30px; height:30px;position:fixed; top:43%;    transform: translate(-50%, -50%);left:60%""></img>","media/stimuli/inanimate_011_right.png","inanimate","right","single","media/stimuli/animate_011_right.png","animate","right","single","media/stimuli/inanimate_011_right.png","inanimate","right","pair","animacy_number","","","",""
"","","","","","html-keyboard-response","56","201921","0.0-56.0","SS1678233184090","63e64959bf1cb4617fa269e5","6406d7f26dd5b7fc1e3377bd","6407ce5430ef0dd231e64f75","1360","625","","960","","f","","","<img src=""media/stimuli/inanimate_005_right.png"" class=""coveredImage test"" style = ""width:100px; height:100px; position:fixed; top:10%;    transform: translate(-50%, -50%);left:44.5%""></img><img src=""media/stimuli/inanimate_005_right.png"" class=""coveredImage test"" style = ""width:100px; height:100px; position:fixed; top:10%;    transform: translate(-50%, -50%);left:51.5%""></img><img src=""media/stimuli/inanimate_005_right.png"" class=""coveredImage test"" style = ""width:100px; height:100px;position:fixed; top:25%;        transform: translate(-50%, -50%);left:38%""></img><img src=""media/stimuli/animate_012_left.png"" class=""coveredImage test"" style = ""width:100px; height:100px;position:fixed; top:25%;        transform: translate(-50%, -50%);left:58%""></img><img src=""media/f.png""style = ""width:30px x; height:30px;position:fixed; top:43%;    transform: translate(-50%, -50%);left:40%""></img><img src=""media/j.png""style = ""width:30px; height:30px;position:fixed; top:43%;    transform: translate(-50%, -50%);left:60%""></img>","media/stimuli/inanimate_005_right.png","inanimate","right","pair","media/stimuli/inanimate_005_right.png","inanimate","right","single","media/stimuli/animate_012_left.png","animate","left","single","pose_animacy","","","",""
"","","","","","html-keyboard-response","57","202951","0.0-57.0","SS1678233184090","63e64959bf1cb4617fa269e5","6406d7f26dd5b7fc1e3377bd","6407ce5430ef0dd231e64f75","1360","625","","1024","","f","","","<img src=""media/stimuli/animate_005_right.png"" class=""coveredImage test"" style = ""width:100px; height:100px; position:fixed; top:10%;    transform: translate(-50%, -50%);left:48%""></img><img src=""media/stimuli/animate_005_left.png"" class=""coveredImage test"" style = ""width:100px; height:100px;position:fixed; top:25%;        transform: translate(-50%, -50%);left:38%""></img><img src=""media/stimuli/animate_010_right.png"" class=""coveredImage test"" style = ""width:100px; height:100px;position:fixed; top:25%;        transform: translate(-50%, -50%);left:58%""></img><img src=""media/f.png""style = ""width:30px x; height:30px;position:fixed; top:43%;    transform: translate(-50%, -50%);left:40%""></img><img src=""media/j.png""style = ""width:30px; height:30px;position:fixed; top:43%;    transform: translate(-50%, -50%);left:60%""></img>","media/stimuli/animate_005_right.png","animate","right","single","media/stimuli/animate_005_left.png","animate","left","single","media/stimuli/animate_010_right.png","animate","right","single","pose_identity","","","",""
"","","","","","html-keyboard-response","58","203815","0.0-58.0","SS1678233184090","63e64959bf1cb4617fa269e5","6406d7f26dd5b7fc1e3377bd","6407ce5430ef0dd231e64f75","1360","625","","855","","f","","","<img src=""media/stimuli/animate_001_left.png"" class=""coveredImage test"" style = ""width:100px; height:100px; position:fixed; top:10%;    transform: translate(-50%, -50%);left:44.5%""></img><img src=""media/stimuli/animate_001_left.png"" class=""coveredImage test"" style = ""width:100px; height:100px; position:fixed; top:10%;    transform: translate(-50%, -50%);left:51.5%""></img><img src=""media/stimuli/animate_001_left.png"" class=""coveredImage test"" style = ""width:100px; height:100px;position:fixed; top:25%;        transform: translate(-50%, -50%);left:34.5%""></img><img src=""media/stimuli/animate_001_left.png"" class=""coveredImage test"" style = ""width:100px; height:100px;position:fixed; top:25%;        transform: translate(-50%, -50%);left:41.5%""></img><img src=""media/stimuli/inanimate_003_right.png"" class=""coveredImage test"" style = ""width:100px; height:100px;position:fixed; top:25%;        transform: translate(-50%, -50%);left:54.5%""></img><img src=""media/stimuli/inanimate_003_right.png"" class=""coveredImage test"" style = ""width:100px; height:100px;position:fixed; top:25%;        transform: translate(-50%, -50%);left:61.5%""></img><img src=""media/f.png""style = ""width:30px x; height:30px;position:fixed; top:43%;    transform: translate(-50%, -50%);left:40%""></img><img src=""media/j.png""style = ""width:30px; height:30px;position:fixed; top:43%;    transform: translate(-50%, -50%);left:60%""></img>","media/stimuli/animate_001_left.png","animate","left","pair","media/stimuli/animate_001_left.png","animate","left","pair","media/stimuli/inanimate_003_right.png","inanimate","right","pair","pose_animacy","","","",""
"","","","","","html-keyboard-response","59","205901","0.0-59.0","SS1678233184090","63e64959bf1cb4617fa269e5","6406d7f26dd5b7fc1e3377bd","6407ce5430ef0dd231e64f75","1360","625","","2081",""," ","","","","","","","","","","","","","","","","","","","",""
"","","","","","html-keyboard-response","60","211561","0.0-60.0","SS1678233184090","63e64959bf1cb4617fa269e5","6406d7f26dd5b7fc1e3377bd","6407ce5430ef0dd231e64f75","1360","625","","5657","","j","","","<img src=""media/stimuli/animate_001_left.png"" class=""coveredImage test"" style = ""width:100px; height:100px; position:fixed; top:10%;    transform: translate(-50%, -50%);left:44.5%""></img><img src=""media/stimuli/animate_001_left.png"" class=""coveredImage test"" style = ""width:100px; height:100px; position:fixed; top:10%;    transform: translate(-50%, -50%);left:51.5%""></img><img src=""media/stimuli/animate_001_right.png"" class=""coveredImage test"" style = ""width:100px; height:100px;position:fixed; top:25%;        transform: translate(-50%, -50%);left:34.5%""></img><img src=""media/stimuli/animate_001_right.png"" class=""coveredImage test"" style = ""width:100px; height:100px;position:fixed; top:25%;        transform: translate(-50%, -50%);left:41.5%""></img><img src=""media/stimuli/animate_001_left.png"" class=""coveredImage test"" style = ""width:100px; height:100px;position:fixed; top:25%;        transform: translate(-50%, -50%);left:58%""></img><img src=""media/f.png""style = ""width:30px x; height:30px;position:fixed; top:43%;    transform: translate(-50%, -50%);left:40%""></img><img src=""media/j.png""style = ""width:30px; height:30px;position:fixed; top:43%;    transform: translate(-50%, -50%);left:60%""></img>","media/stimuli/animate_001_left.png","animate","left","pair","media/stimuli/animate_001_right.png","animate","right","pair","media/stimuli/animate_001_left.png","animate","left","single","pose_number","","","",""
"","","","","","html-keyboard-response","61","214255","0.0-61.0","SS1678233184090","63e64959bf1cb4617fa269e5","6406d7f26dd5b7fc1e3377bd","6407ce5430ef0dd231e64f75","1360","625","","2687","","f","","","<img src=""media/stimuli/inanimate_002_left.png"" class=""coveredImage test"" style = ""width:100px; height:100px; position:fixed; top:10%;    transform: translate(-50%, -50%);left:48%""></img><img src=""media/stimuli/inanimate_011_left.png"" class=""coveredImage test"" style = ""width:100px; height:100px;position:fixed; top:25%;        transform: translate(-50%, -50%);left:38%""></img><img src=""media/stimuli/animate_012_left.png"" class=""coveredImage test"" style = ""width:100px; height:100px;position:fixed; top:25%;        transform: translate(-50%, -50%);left:58%""></img><img src=""media/f.png""style = ""width:30px x; height:30px;position:fixed; top:43%;    transform: translate(-50%, -50%);left:40%""></img><img src=""media/j.png""style = ""width:30px; height:30px;position:fixed; top:43%;    transform: translate(-50%, -50%);left:60%""></img>","media/stimuli/inanimate_002_left.png","inanimate","left","single","media/stimuli/inanimate_011_left.png","inanimate","left","single","media/stimuli/animate_012_left.png","animate","left","single","identity_animacy","","","",""
"","","","","","html-keyboard-response","62","216527","0.0-62.0","SS1678233184090","63e64959bf1cb4617fa269e5","6406d7f26dd5b7fc1e3377bd","6407ce5430ef0dd231e64f75","1360","625","","2262","","f","","","<img src=""media/stimuli/inanimate_006_right.png"" class=""coveredImage test"" style = ""width:100px; height:100px; position:fixed; top:10%;    transform: translate(-50%, -50%);left:48%""></img><img src=""media/stimuli/inanimate_006_left.png"" class=""coveredImage test"" style = ""width:100px; height:100px;position:fixed; top:25%;        transform: translate(-50%, -50%);left:38%""></img><img src=""media/stimuli/inanimate_006_right.png"" class=""coveredImage test"" style = ""width:100px; height:100px;position:fixed; top:25%;        transform: translate(-50%, -50%);left:54.5%""></img><img src=""media/stimuli/inanimate_006_right.png"" class=""coveredImage test"" style = ""width:100px; height:100px;position:fixed; top:25%;        transform: translate(-50%, -50%);left:61.5%""></img><img src=""media/f.png""style = ""width:30px x; height:30px;position:fixed; top:43%;    transform: translate(-50%, -50%);left:40%""></img><img src=""media/j.png""style = ""width:30px; height:30px;position:fixed; top:43%;    transform: translate(-50%, -50%);left:60%""></img>","media/stimuli/inanimate_006_right.png","inanimate","right","single","media/stimuli/inanimate_006_left.png","inanimate","left","single","media/stimuli/inanimate_006_right.png","inanimate","right","pair","pose_number","","","",""
"","","","","","html-keyboard-response","63","218431","0.0-63.0","SS1678233184090","63e64959bf1cb4617fa269e5","6406d7f26dd5b7fc1e3377bd","6407ce5430ef0dd231e64f75","1360","625","","1896","","j","","","<img src=""media/stimuli/inanimate_010_right.png"" class=""coveredImage test"" style = ""width:100px; height:100px; position:fixed; top:10%;    transform: translate(-50%, -50%);left:44.5%""></img><img src=""media/stimuli/inanimate_010_right.png"" class=""coveredImage test"" style = ""width:100px; height:100px; position:fixed; top:10%;    transform: translate(-50%, -50%);left:51.5%""></img><img src=""media/stimuli/inanimate_004_right.png"" class=""coveredImage test"" style = ""width:100px; height:100px;position:fixed; top:25%;        transform: translate(-50%, -50%);left:34.5%""></img><img src=""media/stimuli/inanimate_004_right.png"" class=""coveredImage test"" style = ""width:100px; height:100px;position:fixed; top:25%;        transform: translate(-50%, -50%);left:41.5%""></img><img src=""media/stimuli/inanimate_010_right.png"" class=""coveredImage test"" style = ""width:100px; height:100px;position:fixed; top:25%;        transform: translate(-50%, -50%);left:58%""></img><img src=""media/f.png""style = ""width:30px x; height:30px;position:fixed; top:43%;    transform: translate(-50%, -50%);left:40%""></img><img src=""media/j.png""style = ""width:30px; height:30px;position:fixed; top:43%;    transform: translate(-50%, -50%);left:60%""></img>","media/stimuli/inanimate_010_right.png","inanimate","right","pair","media/stimuli/inanimate_004_right.png","inanimate","right","pair","media/stimuli/inanimate_010_right.png","inanimate","right","single","identity_number","","","",""
"","","","","","html-keyboard-response","64","219575","0.0-64.0","SS1678233184090","63e64959bf1cb4617fa269e5","6406d7f26dd5b7fc1e3377bd","6407ce5430ef0dd231e64f75","1360","625","","1137","","f","","","<img src=""media/stimuli/animate_005_left.png"" class=""coveredImage test"" style = ""width:100px; height:100px; position:fixed; top:10%;    transform: translate(-50%, -50%);left:48%""></img><img src=""media/stimuli/animate_005_left.png"" class=""coveredImage test"" style = ""width:100px; height:100px;position:fixed; top:25%;        transform: translate(-50%, -50%);left:34.5%""></img><img src=""media/stimuli/animate_005_left.png"" class=""coveredImage test"" style = ""width:100px; height:100px;position:fixed; top:25%;        transform: translate(-50%, -50%);left:41.5%""></img><img src=""media/stimuli/animate_011_left.png"" class=""coveredImage test"" style = ""width:100px; height:100px;position:fixed; top:25%;        transform: translate(-50%, -50%);left:58%""></img><img src=""media/f.png""style = ""width:30px x; height:30px;position:fixed; top:43%;    transform: translate(-50%, -50%);left:40%""></img><img src=""media/j.png""style = ""width:30px; height:30px;position:fixed; top:43%;    transform: translate(-50%, -50%);left:60%""></img>","media/stimuli/animate_005_left.png","animate","left","single","media/stimuli/animate_005_left.png","animate","left","pair","media/stimuli/animate_011_left.png","animate","left","single","number_identity","","","",""
"","","","","","html-keyboard-response","65","220415","0.0-65.0","SS1678233184090","63e64959bf1cb4617fa269e5","6406d7f26dd5b7fc1e3377bd","6407ce5430ef0dd231e64f75","1360","625","","830","","f","","","<img src=""media/stimuli/animate_007_left.png"" class=""coveredImage test"" style = ""width:100px; height:100px; position:fixed; top:10%;    transform: translate(-50%, -50%);left:48%""></img><img src=""media/stimuli/animate_007_right.png"" class=""coveredImage test"" style = ""width:100px; height:100px;position:fixed; top:25%;        transform: translate(-50%, -50%);left:38%""></img><img src=""media/stimuli/animate_008_left.png"" class=""coveredImage test"" style = ""width:100px; height:100px;position:fixed; top:25%;        transform: translate(-50%, -50%);left:58%""></img><img src=""media/f.png""style = ""width:30px x; height:30px;position:fixed; top:43%;    transform: translate(-50%, -50%);left:40%""></img><img src=""media/j.png""style = ""width:30px; height:30px;position:fixed; top:43%;    transform: translate(-50%, -50%);left:60%""></img>","media/stimuli/animate_007_left.png","animate","left","single","media/stimuli/animate_007_right.png","animate","right","single","media/stimuli/animate_008_left.png","animate","left","single","pose_identity","","","",""
"","","","","","html-keyboard-response","66","221305","0.0-66.0","SS1678233184090","63e64959bf1cb4617fa269e5","6406d7f26dd5b7fc1e3377bd","6407ce5430ef0dd231e64f75","1360","625","","878","","f","","","<img src=""media/stimuli/inanimate_006_right.png"" class=""coveredImage test"" style = ""width:100px; height:100px; position:fixed; top:10%;    transform: translate(-50%, -50%);left:44.5%""></img><img src=""media/stimuli/inanimate_006_right.png"" class=""coveredImage test"" style = ""width:100px; height:100px; position:fixed; top:10%;    transform: translate(-50%, -50%);left:51.5%""></img><img src=""media/stimuli/inanimate_006_right.png"" class=""coveredImage test"" style = ""width:100px; height:100px;position:fixed; top:25%;        transform: translate(-50%, -50%);left:38%""></img><img src=""media/stimuli/animate_005_right.png"" class=""coveredImage test"" style = ""width:100px; height:100px;position:fixed; top:25%;        transform: translate(-50%, -50%);left:54.5%""></img><img src=""media/stimuli/animate_005_right.png"" class=""coveredImage test"" style = ""width:100px; height:100px;position:fixed; top:25%;        transform: translate(-50%, -50%);left:61.5%""></img><img src=""media/f.png""style = ""width:30px x; height:30px;position:fixed; top:43%;    transform: translate(-50%, -50%);left:40%""></img><img src=""media/j.png""style = ""width:30px; height:30px;position:fixed; top:43%;    transform: translate(-50%, -50%);left:60%""></img>","media/stimuli/inanimate_006_right.png","inanimate","right","pair","media/stimuli/inanimate_006_right.png","inanimate","right","single","media/stimuli/animate_005_right.png","animate","right","pair","number_animacy","","","",""
"","","","","","html-keyboard-response","67","222368","0.0-67.0","SS1678233184090","63e64959bf1cb4617fa269e5","6406d7f26dd5b7fc1e3377bd","6407ce5430ef0dd231e64f75","1360","625","","1053","","f","","","<img src=""media/stimuli/animate_012_right.png"" class=""coveredImage test"" style = ""width:100px; height:100px; position:fixed; top:10%;    transform: translate(-50%, -50%);left:44.5%""></img><img src=""media/stimuli/animate_012_right.png"" class=""coveredImage test"" style = ""width:100px; height:100px; position:fixed; top:10%;    transform: translate(-50%, -50%);left:51.5%""></img><img src=""media/stimuli/animate_012_right.png"" class=""coveredImage test"" style = ""width:100px; height:100px;position:fixed; top:25%;        transform: translate(-50%, -50%);left:38%""></img><img src=""media/stimuli/inanimate_004_right.png"" class=""coveredImage test"" style = ""width:100px; height:100px;position:fixed; top:25%;        transform: translate(-50%, -50%);left:54.5%""></img><img src=""media/stimuli/inanimate_004_right.png"" class=""coveredImage test"" style = ""width:100px; height:100px;position:fixed; top:25%;        transform: translate(-50%, -50%);left:61.5%""></img><img src=""media/f.png""style = ""width:30px x; height:30px;position:fixed; top:43%;    transform: translate(-50%, -50%);left:40%""></img><img src=""media/j.png""style = ""width:30px; height:30px;position:fixed; top:43%;    transform: translate(-50%, -50%);left:60%""></img>","media/stimuli/animate_012_right.png","animate","right","pair","media/stimuli/animate_012_right.png","animate","right","single","media/stimuli/inanimate_004_right.png","inanimate","right","pair","number_animacy","","","",""
"","","","","","html-keyboard-response","68","223351","0.0-68.0","SS1678233184090","63e64959bf1cb4617fa269e5","6406d7f26dd5b7fc1e3377bd","6407ce5430ef0dd231e64f75","1360","625","","978","","f","","","<img src=""media/stimuli/inanimate_012_right.png"" class=""coveredImage test"" style = ""width:100px; height:100px; position:fixed; top:10%;    transform: translate(-50%, -50%);left:48%""></img><img src=""media/stimuli/inanimate_012_left.png"" class=""coveredImage test"" style = ""width:100px; height:100px;position:fixed; top:25%;        transform: translate(-50%, -50%);left:38%""></img><img src=""media/stimuli/animate_001_right.png"" class=""coveredImage test"" style = ""width:100px; height:100px;position:fixed; top:25%;        transform: translate(-50%, -50%);left:58%""></img><img src=""media/f.png""style = ""width:30px x; height:30px;position:fixed; top:43%;    transform: translate(-50%, -50%);left:40%""></img><img src=""media/j.png""style = ""width:30px; height:30px;position:fixed; top:43%;    transform: translate(-50%, -50%);left:60%""></img>","media/stimuli/inanimate_012_right.png","inanimate","right","single","media/stimuli/inanimate_012_left.png","inanimate","left","single","media/stimuli/animate_001_right.png","animate","right","single","pose_animacy","","","",""
"","","","","","html-keyboard-response","69","224343","0.0-69.0","SS1678233184090","63e64959bf1cb4617fa269e5","6406d7f26dd5b7fc1e3377bd","6407ce5430ef0dd231e64f75","1360","625","","984","","j","","","<img src=""media/stimuli/inanimate_011_left.png"" class=""coveredImage test"" style = ""width:100px; height:100px; position:fixed; top:10%;    transform: translate(-50%, -50%);left:48%""></img><img src=""media/stimuli/inanimate_007_left.png"" class=""coveredImage test"" style = ""width:100px; height:100px;position:fixed; top:25%;        transform: translate(-50%, -50%);left:38%""></img><img src=""media/stimuli/inanimate_011_right.png"" class=""coveredImage test"" style = ""width:100px; height:100px;position:fixed; top:25%;        transform: translate(-50%, -50%);left:58%""></img><img src=""media/f.png""style = ""width:30px x; height:30px;position:fixed; top:43%;    transform: translate(-50%, -50%);left:40%""></img><img src=""media/j.png""style = ""width:30px; height:30px;position:fixed; top:43%;    transform: translate(-50%, -50%);left:60%""></img>","media/stimuli/inanimate_011_left.png","inanimate","left","single","media/stimuli/inanimate_007_left.png","inanimate","left","single","media/stimuli/inanimate_011_right.png","inanimate","right","single","identity_pose","","","",""
"","","","","","html-keyboard-response","70","225872","0.0-70.0","SS1678233184090","63e64959bf1cb4617fa269e5","6406d7f26dd5b7fc1e3377bd","6407ce5430ef0dd231e64f75","1360","625","","1520","","f","","","<img src=""media/stimuli/animate_003_left.png"" class=""coveredImage test"" style = ""width:100px; height:100px; position:fixed; top:10%;    transform: translate(-50%, -50%);left:44.5%""></img><img src=""media/stimuli/animate_003_left.png"" class=""coveredImage test"" style = ""width:100px; height:100px; position:fixed; top:10%;    transform: translate(-50%, -50%);left:51.5%""></img><img src=""media/stimuli/animate_003_left.png"" class=""coveredImage test"" style = ""width:100px; height:100px;position:fixed; top:25%;        transform: translate(-50%, -50%);left:38%""></img><img src=""media/stimuli/animate_001_left.png"" class=""coveredImage test"" style = ""width:100px; height:100px;position:fixed; top:25%;        transform: translate(-50%, -50%);left:54.5%""></img><img src=""media/stimuli/animate_001_left.png"" class=""coveredImage test"" style = ""width:100px; height:100px;position:fixed; top:25%;        transform: translate(-50%, -50%);left:61.5%""></img><img src=""media/f.png""style = ""width:30px x; height:30px;position:fixed; top:43%;    transform: translate(-50%, -50%);left:40%""></img><img src=""media/j.png""style = ""width:30px; height:30px;position:fixed; top:43%;    transform: translate(-50%, -50%);left:60%""></img>","media/stimuli/animate_003_left.png","animate","left","pair","media/stimuli/animate_003_left.png","animate","left","single","media/stimuli/animate_001_left.png","animate","left","pair","number_identity","","","",""
"","","","","","html-keyboard-response","71","226631","0.0-71.0","SS1678233184090","63e64959bf1cb4617fa269e5","6406d7f26dd5b7fc1e3377bd","6407ce5430ef0dd231e64f75","1360","625","","751","","f","","","<img src=""media/stimuli/inanimate_006_right.png"" class=""coveredImage test"" style = ""width:100px; height:100px; position:fixed; top:10%;    transform: translate(-50%, -50%);left:44.5%""></img><img src=""media/stimuli/inanimate_006_right.png"" class=""coveredImage test"" style = ""width:100px; height:100px; position:fixed; top:10%;    transform: translate(-50%, -50%);left:51.5%""></img><img src=""media/stimuli/inanimate_006_right.png"" class=""coveredImage test"" style = ""width:100px; height:100px;position:fixed; top:25%;        transform: translate(-50%, -50%);left:38%""></img><img src=""media/stimuli/animate_011_right.png"" class=""coveredImage test"" style = ""width:100px; height:100px;position:fixed; top:25%;        transform: translate(-50%, -50%);left:54.5%""></img><img src=""media/stimuli/animate_011_right.png"" class=""coveredImage test"" style = ""width:100px; height:100px;position:fixed; top:25%;        transform: translate(-50%, -50%);left:61.5%""></img><img src=""media/f.png""style = ""width:30px x; height:30px;position:fixed; top:43%;    transform: translate(-50%, -50%);left:40%""></img><img src=""media/j.png""style = ""width:30px; height:30px;position:fixed; top:43%;    transform: translate(-50%, -50%);left:60%""></img>","media/stimuli/inanimate_006_right.png","inanimate","right","pair","media/stimuli/inanimate_006_right.png","inanimate","right","single","media/stimuli/animate_011_right.png","animate","right","pair","number_animacy","","","",""
"","","","","","html-keyboard-response","72","228247","0.0-72.0","SS1678233184090","63e64959bf1cb4617fa269e5","6406d7f26dd5b7fc1e3377bd","6407ce5430ef0dd231e64f75","1360","625","","1607","","j","","","<img src=""media/stimuli/animate_007_right.png"" class=""coveredImage test"" style = ""width:100px; height:100px; position:fixed; top:10%;    transform: translate(-50%, -50%);left:48%""></img><img src=""media/stimuli/inanimate_008_right.png"" class=""coveredImage test"" style = ""width:100px; height:100px;position:fixed; top:25%;        transform: translate(-50%, -50%);left:38%""></img><img src=""media/stimuli/animate_001_right.png"" class=""coveredImage test"" style = ""width:100px; height:100px;position:fixed; top:25%;        transform: translate(-50%, -50%);left:58%""></img><img src=""media/f.png""style = ""width:30px x; height:30px;position:fixed; top:43%;    transform: translate(-50%, -50%);left:40%""></img><img src=""media/j.png""style = ""width:30px; height:30px;position:fixed; top:43%;    transform: translate(-50%, -50%);left:60%""></img>","media/stimuli/animate_007_right.png","animate","right","single","media/stimuli/inanimate_008_right.png","inanimate","right","single","media/stimuli/animate_001_right.png","animate","right","single","animacy_identity","","","",""
"","","","","","html-keyboard-response","73","230031","0.0-73.0","SS1678233184090","63e64959bf1cb4617fa269e5","6406d7f26dd5b7fc1e3377bd","6407ce5430ef0dd231e64f75","1360","625","","1775","","f","","","<img src=""media/stimuli/inanimate_012_left.png"" class=""coveredImage test"" style = ""width:100px; height:100px; position:fixed; top:10%;    transform: translate(-50%, -50%);left:48%""></img><img src=""media/stimuli/animate_003_left.png"" class=""coveredImage test"" style = ""width:100px; height:100px;position:fixed; top:25%;        transform: translate(-50%, -50%);left:38%""></img><img src=""media/stimuli/inanimate_005_left.png"" class=""coveredImage test"" style = ""width:100px; height:100px;position:fixed; top:25%;        transform: translate(-50%, -50%);left:58%""></img><img src=""media/f.png""style = ""width:30px x; height:30px;position:fixed; top:43%;    transform: translate(-50%, -50%);left:40%""></img><img src=""media/j.png""style = ""width:30px; height:30px;position:fixed; top:43%;    transform: translate(-50%, -50%);left:60%""></img>","media/stimuli/inanimate_012_left.png","inanimate","left","single","media/stimuli/animate_003_left.png","animate","left","single","media/stimuli/inanimate_005_left.png","inanimate","left","single","animacy_identity","","","",""
"","","","","","html-keyboard-response","74","230905","0.0-74.0","SS1678233184090","63e64959bf1cb4617fa269e5","6406d7f26dd5b7fc1e3377bd","6407ce5430ef0dd231e64f75","1360","625","","864","","f","","","<img src=""media/stimuli/inanimate_004_left.png"" class=""coveredImage test"" style = ""width:100px; height:100px; position:fixed; top:10%;    transform: translate(-50%, -50%);left:44.5%""></img><img src=""media/stimuli/inanimate_004_left.png"" class=""coveredImage test"" style = ""width:100px; height:100px; position:fixed; top:10%;    transform: translate(-50%, -50%);left:51.5%""></img><img src=""media/stimuli/inanimate_004_right.png"" class=""coveredImage test"" style = ""width:100px; height:100px;position:fixed; top:25%;        transform: translate(-50%, -50%);left:34.5%""></img><img src=""media/stimuli/inanimate_004_right.png"" class=""coveredImage test"" style = ""width:100px; height:100px;position:fixed; top:25%;        transform: translate(-50%, -50%);left:41.5%""></img><img src=""media/stimuli/inanimate_006_left.png"" class=""coveredImage test"" style = ""width:100px; height:100px;position:fixed; top:25%;        transform: translate(-50%, -50%);left:54.5%""></img><img src=""media/stimuli/inanimate_006_left.png"" class=""coveredImage test"" style = ""width:100px; height:100px;position:fixed; top:25%;        transform: translate(-50%, -50%);left:61.5%""></img><img src=""media/f.png""style = ""width:30px x; height:30px;position:fixed; top:43%;    transform: translate(-50%, -50%);left:40%""></img><img src=""media/j.png""style = ""width:30px; height:30px;position:fixed; top:43%;    transform: translate(-50%, -50%);left:60%""></img>","media/stimuli/inanimate_004_left.png","inanimate","left","pair","media/stimuli/inanimate_004_right.png","inanimate","right","pair","media/stimuli/inanimate_006_left.png","inanimate","left","pair","pose_identity","","","",""
"","","","","","html-keyboard-response","75","232768","0.0-75.0","SS1678233184090","63e64959bf1cb4617fa269e5","6406d7f26dd5b7fc1e3377bd","6407ce5430ef0dd231e64f75","1360","625","","1855","","f","","","<img src=""media/stimuli/inanimate_002_left.png"" class=""coveredImage test"" style = ""width:100px; height:100px; position:fixed; top:10%;    transform: translate(-50%, -50%);left:44.5%""></img><img src=""media/stimuli/inanimate_002_left.png"" class=""coveredImage test"" style = ""width:100px; height:100px; position:fixed; top:10%;    transform: translate(-50%, -50%);left:51.5%""></img><img src=""media/stimuli/inanimate_002_right.png"" class=""coveredImage test"" style = ""width:100px; height:100px;position:fixed; top:25%;        transform: translate(-50%, -50%);left:34.5%""></img><img src=""media/stimuli/inanimate_002_right.png"" class=""coveredImage test"" style = ""width:100px; height:100px;position:fixed; top:25%;        transform: translate(-50%, -50%);left:41.5%""></img><img src=""media/stimuli/inanimate_002_left.png"" class=""coveredImage test"" style = ""width:100px; height:100px;position:fixed; top:25%;        transform: translate(-50%, -50%);left:58%""></img><img src=""media/f.png""style = ""width:30px x; height:30px;position:fixed; top:43%;    transform: translate(-50%, -50%);left:40%""></img><img src=""media/j.png""style = ""width:30px; height:30px;position:fixed; top:43%;    transform: translate(-50%, -50%);left:60%""></img>","media/stimuli/inanimate_002_left.png","inanimate","left","pair","media/stimuli/inanimate_002_right.png","inanimate","right","pair","media/stimuli/inanimate_002_left.png","inanimate","left","single","pose_number","","","",""
"","","","","","html-keyboard-response","76","234437","0.0-76.0","SS1678233184090","63e64959bf1cb4617fa269e5","6406d7f26dd5b7fc1e3377bd","6407ce5430ef0dd231e64f75","1360","625","","1662",""," ","","","","","","","","","","","","","","","","","","","",""
"","","","","","html-keyboard-response","77","236544","0.0-77.0","SS1678233184090","63e64959bf1cb4617fa269e5","6406d7f26dd5b7fc1e3377bd","6407ce5430ef0dd231e64f75","1360","625","","2104","","f","","","<img src=""media/stimuli/inanimate_012_right.png"" class=""coveredImage test"" style = ""width:100px; height:100px; position:fixed; top:10%;    transform: translate(-50%, -50%);left:48%""></img><img src=""media/stimuli/inanimate_012_right.png"" class=""coveredImage test"" style = ""width:100px; height:100px;position:fixed; top:25%;        transform: translate(-50%, -50%);left:34.5%""></img><img src=""media/stimuli/inanimate_012_right.png"" class=""coveredImage test"" style = ""width:100px; height:100px;position:fixed; top:25%;        transform: translate(-50%, -50%);left:41.5%""></img><img src=""media/stimuli/inanimate_008_right.png"" class=""coveredImage test"" style = ""width:100px; height:100px;position:fixed; top:25%;        transform: translate(-50%, -50%);left:58%""></img><img src=""media/f.png""style = ""width:30px x; height:30px;position:fixed; top:43%;    transform: translate(-50%, -50%);left:40%""></img><img src=""media/j.png""style = ""width:30px; height:30px;position:fixed; top:43%;    transform: translate(-50%, -50%);left:60%""></img>","media/stimuli/inanimate_012_right.png","inanimate","right","single","media/stimuli/inanimate_012_right.png","inanimate","right","pair","media/stimuli/inanimate_008_right.png","inanimate","right","single","number_identity","","","",""
"","","","","","html-keyboard-response","78","238199","0.0-78.0","SS1678233184090","63e64959bf1cb4617fa269e5","6406d7f26dd5b7fc1e3377bd","6407ce5430ef0dd231e64f75","1360","625","","1646","","f","","","<img src=""media/stimuli/animate_011_right.png"" class=""coveredImage test"" style = ""width:100px; height:100px; position:fixed; top:10%;    transform: translate(-50%, -50%);left:48%""></img><img src=""media/stimuli/animate_009_right.png"" class=""coveredImage test"" style = ""width:100px; height:100px;position:fixed; top:25%;        transform: translate(-50%, -50%);left:38%""></img><img src=""media/stimuli/inanimate_012_right.png"" class=""coveredImage test"" style = ""width:100px; height:100px;position:fixed; top:25%;        transform: translate(-50%, -50%);left:58%""></img><img src=""media/f.png""style = ""width:30px x; height:30px;position:fixed; top:43%;    transform: translate(-50%, -50%);left:40%""></img><img src=""media/j.png""style = ""width:30px; height:30px;position:fixed; top:43%;    transform: translate(-50%, -50%);left:60%""></img>","media/stimuli/animate_011_right.png","animate","right","single","media/stimuli/animate_009_right.png","animate","right","single","media/stimuli/inanimate_012_right.png","inanimate","right","single","identity_animacy","","","",""
"","","","","","html-keyboard-response","79","239102","0.0-79.0","SS1678233184090","63e64959bf1cb4617fa269e5","6406d7f26dd5b7fc1e3377bd","6407ce5430ef0dd231e64f75","1360","625","","895","","f","","","<img src=""media/stimuli/animate_007_right.png"" class=""coveredImage test"" style = ""width:100px; height:100px; position:fixed; top:10%;    transform: translate(-50%, -50%);left:44.5%""></img><img src=""media/stimuli/animate_007_right.png"" class=""coveredImage test"" style = ""width:100px; height:100px; position:fixed; top:10%;    transform: translate(-50%, -50%);left:51.5%""></img><img src=""media/stimuli/animate_007_left.png"" class=""coveredImage test"" style = ""width:100px; height:100px;position:fixed; top:25%;        transform: translate(-50%, -50%);left:38%""></img><img src=""media/stimuli/inanimate_011_right.png"" class=""coveredImage test"" style = ""width:100px; height:100px;position:fixed; top:25%;        transform: translate(-50%, -50%);left:58%""></img><img src=""media/f.png""style = ""width:30px x; height:30px;position:fixed; top:43%;    transform: translate(-50%, -50%);left:40%""></img><img src=""media/j.png""style = ""width:30px; height:30px;position:fixed; top:43%;    transform: translate(-50%, -50%);left:60%""></img>","media/stimuli/animate_007_right.png","animate","right","pair","media/stimuli/animate_007_left.png","animate","left","single","media/stimuli/inanimate_011_right.png","inanimate","right","single","pose_animacy","","","",""
"","","","","","html-keyboard-response","80","240077","0.0-80.0","SS1678233184090","63e64959bf1cb4617fa269e5","6406d7f26dd5b7fc1e3377bd","6407ce5430ef0dd231e64f75","1360","625","","966","","j","","","<img src=""media/stimuli/inanimate_010_left.png"" class=""coveredImage test"" style = ""width:100px; height:100px; position:fixed; top:10%;    transform: translate(-50%, -50%);left:48%""></img><img src=""media/stimuli/inanimate_006_left.png"" class=""coveredImage test"" style = ""width:100px; height:100px;position:fixed; top:25%;        transform: translate(-50%, -50%);left:38%""></img><img src=""media/stimuli/inanimate_010_right.png"" class=""coveredImage test"" style = ""width:100px; height:100px;position:fixed; top:25%;        transform: translate(-50%, -50%);left:58%""></img><img src=""media/f.png""style = ""width:30px x; height:30px;position:fixed; top:43%;    transform: translate(-50%, -50%);left:40%""></img><img src=""media/j.png""style = ""width:30px; height:30px;position:fixed; top:43%;    transform: translate(-50%, -50%);left:60%""></img>","media/stimuli/inanimate_010_left.png","inanimate","left","single","media/stimuli/inanimate_006_left.png","inanimate","left","single","media/stimuli/inanimate_010_right.png","inanimate","right","single","identity_pose","","","",""
"","","","","","html-keyboard-response","81","240922","0.0-81.0","SS1678233184090","63e64959bf1cb4617fa269e5","6406d7f26dd5b7fc1e3377bd","6407ce5430ef0dd231e64f75","1360","625","","838","","j","","","<img src=""media/stimuli/animate_002_left.png"" class=""coveredImage test"" style = ""width:100px; height:100px; position:fixed; top:10%;    transform: translate(-50%, -50%);left:44.5%""></img><img src=""media/stimuli/animate_002_left.png"" class=""coveredImage test"" style = ""width:100px; height:100px; position:fixed; top:10%;    transform: translate(-50%, -50%);left:51.5%""></img><img src=""media/stimuli/inanimate_005_left.png"" class=""coveredImage test"" style = ""width:100px; height:100px;position:fixed; top:25%;        transform: translate(-50%, -50%);left:34.5%""></img><img src=""media/stimuli/inanimate_005_left.png"" class=""coveredImage test"" style = ""width:100px; height:100px;position:fixed; top:25%;        transform: translate(-50%, -50%);left:41.5%""></img><img src=""media/stimuli/animate_002_left.png"" class=""coveredImage test"" style = ""width:100px; height:100px;position:fixed; top:25%;        transform: translate(-50%, -50%);left:58%""></img><img src=""media/f.png""style = ""width:30px x; height:30px;position:fixed; top:43%;    transform: translate(-50%, -50%);left:40%""></img><img src=""media/j.png""style = ""width:30px; height:30px;position:fixed; top:43%;    transform: translate(-50%, -50%);left:60%""></img>","media/stimuli/animate_002_left.png","animate","left","pair","media/stimuli/inanimate_005_left.png","inanimate","left","pair","media/stimuli/animate_002_left.png","animate","left","single","animacy_number","","","",""
"","","","","","html-keyboard-response","82","241733","0.0-82.0","SS1678233184090","63e64959bf1cb4617fa269e5","6406d7f26dd5b7fc1e3377bd","6407ce5430ef0dd231e64f75","1360","625","","805","","f","","","<img src=""media/stimuli/inanimate_006_left.png"" class=""coveredImage test"" style = ""width:100px; height:100px; position:fixed; top:10%;    transform: translate(-50%, -50%);left:48%""></img><img src=""media/stimuli/inanimate_006_right.png"" class=""coveredImage test"" style = ""width:100px; height:100px;position:fixed; top:25%;        transform: translate(-50%, -50%);left:38%""></img><img src=""media/stimuli/inanimate_008_left.png"" class=""coveredImage test"" style = ""width:100px; height:100px;position:fixed; top:25%;        transform: translate(-50%, -50%);left:58%""></img><img src=""media/f.png""style = ""width:30px x; height:30px;position:fixed; top:43%;    transform: translate(-50%, -50%);left:40%""></img><img src=""media/j.png""style = ""width:30px; height:30px;position:fixed; top:43%;    transform: translate(-50%, -50%);left:60%""></img>","media/stimuli/inanimate_006_left.png","inanimate","left","single","media/stimuli/inanimate_006_right.png","inanimate","right","single","media/stimuli/inanimate_008_left.png","inanimate","left","single","pose_identity","","","",""
"","","","","","html-keyboard-response","83","243528","0.0-83.0","SS1678233184090","63e64959bf1cb4617fa269e5","6406d7f26dd5b7fc1e3377bd","6407ce5430ef0dd231e64f75","1360","625","","1790","","f","","","<img src=""media/stimuli/inanimate_006_right.png"" class=""coveredImage test"" style = ""width:100px; height:100px; position:fixed; top:10%;    transform: translate(-50%, -50%);left:44.5%""></img><img src=""media/stimuli/inanimate_006_right.png"" class=""coveredImage test"" style = ""width:100px; height:100px; position:fixed; top:10%;    transform: translate(-50%, -50%);left:51.5%""></img><img src=""media/stimuli/inanimate_011_right.png"" class=""coveredImage test"" style = ""width:100px; height:100px;position:fixed; top:25%;        transform: translate(-50%, -50%);left:34.5%""></img><img src=""media/stimuli/inanimate_011_right.png"" class=""coveredImage test"" style = ""width:100px; height:100px;position:fixed; top:25%;        transform: translate(-50%, -50%);left:41.5%""></img><img src=""media/stimuli/animate_002_right.png"" class=""coveredImage test"" style = ""width:100px; height:100px;position:fixed; top:25%;        transform: translate(-50%, -50%);left:54.5%""></img><img src=""media/stimuli/animate_002_right.png"" class=""coveredImage test"" style = ""width:100px; height:100px;position:fixed; top:25%;        transform: translate(-50%, -50%);left:61.5%""></img><img src=""media/f.png""style = ""width:30px x; height:30px;position:fixed; top:43%;    transform: translate(-50%, -50%);left:40%""></img><img src=""media/j.png""style = ""width:30px; height:30px;position:fixed; top:43%;    transform: translate(-50%, -50%);left:60%""></img>","media/stimuli/inanimate_006_right.png","inanimate","right","pair","media/stimuli/inanimate_011_right.png","inanimate","right","pair","media/stimuli/animate_002_right.png","animate","right","pair","identity_animacy","","","",""
"","","","","","html-keyboard-response","84","245991","0.0-84.0","SS1678233184090","63e64959bf1cb4617fa269e5","6406d7f26dd5b7fc1e3377bd","6407ce5430ef0dd231e64f75","1360","625","","2449","","f","","","<img src=""media/stimuli/inanimate_009_left.png"" class=""coveredImage test"" style = ""width:100px; height:100px; position:fixed; top:10%;    transform: translate(-50%, -50%);left:48%""></img><img src=""media/stimuli/inanimate_009_right.png"" class=""coveredImage test"" style = ""width:100px; height:100px;position:fixed; top:25%;        transform: translate(-50%, -50%);left:38%""></img><img src=""media/stimuli/inanimate_009_left.png"" class=""coveredImage test"" style = ""width:100px; height:100px;position:fixed; top:25%;        transform: translate(-50%, -50%);left:54.5%""></img><img src=""media/stimuli/inanimate_009_left.png"" class=""coveredImage test"" style = ""width:100px; height:100px;position:fixed; top:25%;        transform: translate(-50%, -50%);left:61.5%""></img><img src=""media/f.png""style = ""width:30px x; height:30px;position:fixed; top:43%;    transform: translate(-50%, -50%);left:40%""></img><img src=""media/j.png""style = ""width:30px; height:30px;position:fixed; top:43%;    transform: translate(-50%, -50%);left:60%""></img>","media/stimuli/inanimate_009_left.png","inanimate","left","single","media/stimuli/inanimate_009_right.png","inanimate","right","single","media/stimuli/inanimate_009_left.png","inanimate","left","pair","pose_number","","","",""
"","","","","","html-keyboard-response","85","247447","0.0-85.0","SS1678233184090","63e64959bf1cb4617fa269e5","6406d7f26dd5b7fc1e3377bd","6407ce5430ef0dd231e64f75","1360","625","","1446","","j","","","<img src=""media/stimuli/animate_012_right.png"" class=""coveredImage test"" style = ""width:100px; height:100px; position:fixed; top:10%;    transform: translate(-50%, -50%);left:44.5%""></img><img src=""media/stimuli/animate_012_right.png"" class=""coveredImage test"" style = ""width:100px; height:100px; position:fixed; top:10%;    transform: translate(-50%, -50%);left:51.5%""></img><img src=""media/stimuli/animate_007_right.png"" class=""coveredImage test"" style = ""width:100px; height:100px;position:fixed; top:25%;        transform: translate(-50%, -50%);left:34.5%""></img><img src=""media/stimuli/animate_007_right.png"" class=""coveredImage test"" style = ""width:100px; height:100px;position:fixed; top:25%;        transform: translate(-50%, -50%);left:41.5%""></img><img src=""media/stimuli/animate_012_right.png"" class=""coveredImage test"" style = ""width:100px; height:100px;position:fixed; top:25%;        transform: translate(-50%, -50%);left:58%""></img><img src=""media/f.png""style = ""width:30px x; height:30px;position:fixed; top:43%;    transform: translate(-50%, -50%);left:40%""></img><img src=""media/j.png""style = ""width:30px; height:30px;position:fixed; top:43%;    transform: translate(-50%, -50%);left:60%""></img>","media/stimuli/animate_012_right.png","animate","right","pair","media/stimuli/animate_007_right.png","animate","right","pair","media/stimuli/animate_012_right.png","animate","right","single","identity_number","","","",""
"","","","","","html-keyboard-response","86","249958","0.0-86.0","SS1678233184090","63e64959bf1cb4617fa269e5","6406d7f26dd5b7fc1e3377bd","6407ce5430ef0dd231e64f75","1360","625","","2501","","f","","","<img src=""media/stimuli/inanimate_008_right.png"" class=""coveredImage test"" style = ""width:100px; height:100px; position:fixed; top:10%;    transform: translate(-50%, -50%);left:48%""></img><img src=""media/stimuli/inanimate_006_right.png"" class=""coveredImage test"" style = ""width:100px; height:100px;position:fixed; top:25%;        transform: translate(-50%, -50%);left:38%""></img><img src=""media/stimuli/animate_005_right.png"" class=""coveredImage test"" style = ""width:100px; height:100px;position:fixed; top:25%;        transform: translate(-50%, -50%);left:58%""></img><img src=""media/f.png""style = ""width:30px x; height:30px;position:fixed; top:43%;    transform: translate(-50%, -50%);left:40%""></img><img src=""media/j.png""style = ""width:30px; height:30px;position:fixed; top:43%;    transform: translate(-50%, -50%);left:60%""></img>","media/stimuli/inanimate_008_right.png","inanimate","right","single","media/stimuli/inanimate_006_right.png","inanimate","right","single","media/stimuli/animate_005_right.png","animate","right","single","identity_animacy","","","",""
"","","","","","html-keyboard-response","87","250742","0.0-87.0","SS1678233184090","63e64959bf1cb4617fa269e5","6406d7f26dd5b7fc1e3377bd","6407ce5430ef0dd231e64f75","1360","625","","774","","j","","","<img src=""media/stimuli/animate_007_right.png"" class=""coveredImage test"" style = ""width:100px; height:100px; position:fixed; top:10%;    transform: translate(-50%, -50%);left:44.5%""></img><img src=""media/stimuli/animate_007_right.png"" class=""coveredImage test"" style = ""width:100px; height:100px; position:fixed; top:10%;    transform: translate(-50%, -50%);left:51.5%""></img><img src=""media/stimuli/inanimate_009_right.png"" class=""coveredImage test"" style = ""width:100px; height:100px;position:fixed; top:25%;        transform: translate(-50%, -50%);left:38%""></img><img src=""media/stimuli/animate_007_left.png"" class=""coveredImage test"" style = ""width:100px; height:100px;position:fixed; top:25%;        transform: translate(-50%, -50%);left:58%""></img><img src=""media/f.png""style = ""width:30px x; height:30px;position:fixed; top:43%;    transform: translate(-50%, -50%);left:40%""></img><img src=""media/j.png""style = ""width:30px; height:30px;position:fixed; top:43%;    transform: translate(-50%, -50%);left:60%""></img>","media/stimuli/animate_007_right.png","animate","right","pair","media/stimuli/inanimate_009_right.png","inanimate","right","single","media/stimuli/animate_007_left.png","animate","left","single","animacy_pose","","","",""
"","","","","","html-keyboard-response","88","252398","0.0-88.0","SS1678233184090","63e64959bf1cb4617fa269e5","6406d7f26dd5b7fc1e3377bd","6407ce5430ef0dd231e64f75","1360","625","","1644","","j","","","<img src=""media/stimuli/inanimate_012_left.png"" class=""coveredImage test"" style = ""width:100px; height:100px; position:fixed; top:10%;    transform: translate(-50%, -50%);left:48%""></img><img src=""media/stimuli/inanimate_001_left.png"" class=""coveredImage test"" style = ""width:100px; height:100px;position:fixed; top:25%;        transform: translate(-50%, -50%);left:38%""></img><img src=""media/stimuli/inanimate_012_right.png"" class=""coveredImage test"" style = ""width:100px; height:100px;position:fixed; top:25%;        transform: translate(-50%, -50%);left:58%""></img><img src=""media/f.png""style = ""width:30px x; height:30px;position:fixed; top:43%;    transform: translate(-50%, -50%);left:40%""></img><img src=""media/j.png""style = ""width:30px; height:30px;position:fixed; top:43%;    transform: translate(-50%, -50%);left:60%""></img>","media/stimuli/inanimate_012_left.png","inanimate","left","single","media/stimuli/inanimate_001_left.png","inanimate","left","single","media/stimuli/inanimate_012_right.png","inanimate","right","single","identity_pose","","","",""
"","","","","","html-keyboard-response","89","253877","0.0-89.0","SS1678233184090","63e64959bf1cb4617fa269e5","6406d7f26dd5b7fc1e3377bd","6407ce5430ef0dd231e64f75","1360","625","","1471",""," ","","","","","","","","","","","","","","","","","","","",""
"","","","","","html-keyboard-response","90","255710","0.0-90.0","SS1678233184090","63e64959bf1cb4617fa269e5","6406d7f26dd5b7fc1e3377bd","6407ce5430ef0dd231e64f75","1360","625","","1830","","f","","","<img src=""media/stimuli/inanimate_012_right.png"" class=""coveredImage test"" style = ""width:100px; height:100px; position:fixed; top:10%;    transform: translate(-50%, -50%);left:44.5%""></img><img src=""media/stimuli/inanimate_012_right.png"" class=""coveredImage test"" style = ""width:100px; height:100px; position:fixed; top:10%;    transform: translate(-50%, -50%);left:51.5%""></img><img src=""media/stimuli/inanimate_012_left.png"" class=""coveredImage test"" style = ""width:100px; height:100px;position:fixed; top:25%;        transform: translate(-50%, -50%);left:34.5%""></img><img src=""media/stimuli/inanimate_012_left.png"" class=""coveredImage test"" style = ""width:100px; height:100px;position:fixed; top:25%;        transform: translate(-50%, -50%);left:41.5%""></img><img src=""media/stimuli/inanimate_012_right.png"" class=""coveredImage test"" style = ""width:100px; height:100px;position:fixed; top:25%;        transform: translate(-50%, -50%);left:58%""></img><img src=""media/f.png""style = ""width:30px x; height:30px;position:fixed; top:43%;    transform: translate(-50%, -50%);left:40%""></img><img src=""media/j.png""style = ""width:30px; height:30px;position:fixed; top:43%;    transform: translate(-50%, -50%);left:60%""></img>","media/stimuli/inanimate_012_right.png","inanimate","right","pair","media/stimuli/inanimate_012_left.png","inanimate","left","pair","media/stimuli/inanimate_012_right.png","inanimate","right","single","pose_number","","","",""
"","","","","","html-keyboard-response","91","256686","0.0-91.0","SS1678233184090","63e64959bf1cb4617fa269e5","6406d7f26dd5b7fc1e3377bd","6407ce5430ef0dd231e64f75","1360","625","","966","","j","","","<img src=""media/stimuli/inanimate_003_left.png"" class=""coveredImage test"" style = ""width:100px; height:100px; position:fixed; top:10%;    transform: translate(-50%, -50%);left:44.5%""></img><img src=""media/stimuli/inanimate_003_left.png"" class=""coveredImage test"" style = ""width:100px; height:100px; position:fixed; top:10%;    transform: translate(-50%, -50%);left:51.5%""></img><img src=""media/stimuli/inanimate_003_left.png"" class=""coveredImage test"" style = ""width:100px; height:100px;position:fixed; top:25%;        transform: translate(-50%, -50%);left:38%""></img><img src=""media/stimuli/inanimate_003_right.png"" class=""coveredImage test"" style = ""width:100px; height:100px;position:fixed; top:25%;        transform: translate(-50%, -50%);left:54.5%""></img><img src=""media/stimuli/inanimate_003_right.png"" class=""coveredImage test"" style = ""width:100px; height:100px;position:fixed; top:25%;        transform: translate(-50%, -50%);left:61.5%""></img><img src=""media/f.png""style = ""width:30px x; height:30px;position:fixed; top:43%;    transform: translate(-50%, -50%);left:40%""></img><img src=""media/j.png""style = ""width:30px; height:30px;position:fixed; top:43%;    transform: translate(-50%, -50%);left:60%""></img>","media/stimuli/inanimate_003_left.png","inanimate","left","pair","media/stimuli/inanimate_003_left.png","inanimate","left","single","media/stimuli/inanimate_003_right.png","inanimate","right","pair","number_pose","","","",""
"","","","","","html-keyboard-response","92","257574","0.0-92.0","SS1678233184090","63e64959bf1cb4617fa269e5","6406d7f26dd5b7fc1e3377bd","6407ce5430ef0dd231e64f75","1360","625","","876","","j","","","<img src=""media/stimuli/inanimate_004_left.png"" class=""coveredImage test"" style = ""width:100px; height:100px; position:fixed; top:10%;    transform: translate(-50%, -50%);left:44.5%""></img><img src=""media/stimuli/inanimate_004_left.png"" class=""coveredImage test"" style = ""width:100px; height:100px; position:fixed; top:10%;    transform: translate(-50%, -50%);left:51.5%""></img><img src=""media/stimuli/inanimate_002_left.png"" class=""coveredImage test"" style = ""width:100px; height:100px;position:fixed; top:25%;        transform: translate(-50%, -50%);left:34.5%""></img><img src=""media/stimuli/inanimate_002_left.png"" class=""coveredImage test"" style = ""width:100px; height:100px;position:fixed; top:25%;        transform: translate(-50%, -50%);left:41.5%""></img><img src=""media/stimuli/inanimate_004_right.png"" class=""coveredImage test"" style = ""width:100px; height:100px;position:fixed; top:25%;        transform: translate(-50%, -50%);left:54.5%""></img><img src=""media/stimuli/inanimate_004_right.png"" class=""coveredImage test"" style = ""width:100px; height:100px;position:fixed; top:25%;        transform: translate(-50%, -50%);left:61.5%""></img><img src=""media/f.png""style = ""width:30px x; height:30px;position:fixed; top:43%;    transform: translate(-50%, -50%);left:40%""></img><img src=""media/j.png""style = ""width:30px; height:30px;position:fixed; top:43%;    transform: translate(-50%, -50%);left:60%""></img>","media/stimuli/inanimate_004_left.png","inanimate","left","pair","media/stimuli/inanimate_002_left.png","inanimate","left","pair","media/stimuli/inanimate_004_right.png","inanimate","right","pair","identity_pose","","","",""
"","","","","","html-keyboard-response","93","258383","0.0-93.0","SS1678233184090","63e64959bf1cb4617fa269e5","6406d7f26dd5b7fc1e3377bd","6407ce5430ef0dd231e64f75","1360","625","","798","","j","","","<img src=""media/stimuli/inanimate_004_left.png"" class=""coveredImage test"" style = ""width:100px; height:100px; position:fixed; top:10%;    transform: translate(-50%, -50%);left:44.5%""></img><img src=""media/stimuli/inanimate_004_left.png"" class=""coveredImage test"" style = ""width:100px; height:100px; position:fixed; top:10%;    transform: translate(-50%, -50%);left:51.5%""></img><img src=""media/stimuli/inanimate_004_left.png"" class=""coveredImage test"" style = ""width:100px; height:100px;position:fixed; top:25%;        transform: translate(-50%, -50%);left:38%""></img><img src=""media/stimuli/inanimate_004_right.png"" class=""coveredImage test"" style = ""width:100px; height:100px;position:fixed; top:25%;        transform: translate(-50%, -50%);left:54.5%""></img><img src=""media/stimuli/inanimate_004_right.png"" class=""coveredImage test"" style = ""width:100px; height:100px;position:fixed; top:25%;        transform: translate(-50%, -50%);left:61.5%""></img><img src=""media/f.png""style = ""width:30px x; height:30px;position:fixed; top:43%;    transform: translate(-50%, -50%);left:40%""></img><img src=""media/j.png""style = ""width:30px; height:30px;position:fixed; top:43%;    transform: translate(-50%, -50%);left:60%""></img>","media/stimuli/inanimate_004_left.png","inanimate","left","pair","media/stimuli/inanimate_004_left.png","inanimate","left","single","media/stimuli/inanimate_004_right.png","inanimate","right","pair","number_pose","","","",""
