"success","timeout","failed_images","failed_audio","failed_video","trial_type","trial_index","time_elapsed","internal_node_id","subject","prolific_id","study","session","window_width","window_height","view_history","rt","stimulus_type","response","question_order","rating_type","stimulus","target","target_animacy","target_pose","target_number","left","left_animacy","left_pose","left_number","right","right_animacy","right_pose","right_number","comparison_type","rating_stimulus","rating_animacy","rating_number","rating_pose"
"true","false","[]","[]","[]","preload","0","4922","0.0-0.0","SS1678233195456","62fe673463cda03362b2d4c3","6406d7f26dd5b7fc1e3377bd","6407ce4a2b2e52d02597e76e","1366","657","","","","","","","","","","","","","","","","","","","","","","","",""
"","","","","","instructions","1","154868","0.0-1.0","SS1678233195456","62fe673463cda03362b2d4c3","6406d7f26dd5b7fc1e3377bd","6407ce4a2b2e52d02597e76e","1366","657","[{""page_index"":0,""viewing_time"":149937}]","149940","","","","","","","","","","","","","","","","","","","","","",""
"","","","","","instructions","2","170704","0.0-2.0","SS1678233195456","62fe673463cda03362b2d4c3","6406d7f26dd5b7fc1e3377bd","6407ce4a2b2e52d02597e76e","1366","657","[{""page_index"":0,""viewing_time"":13830}]","13831","instructions","","","","","","","","","","","","","","","","","","","","",""
"","","","","","instructions","3","173152","0.0-3.0","SS1678233195456","62fe673463cda03362b2d4c3","6406d7f26dd5b7fc1e3377bd","6407ce4a2b2e52d02597e76e","1366","657","[{""page_index"":0,""viewing_time"":2441}]","2442","instructions","","","","","","","","","","","","","","","","","","","","",""
"","","","","","survey-likert","4","186458","0.0-4.0","SS1678233195456","62fe673463cda03362b2d4c3","6406d7f26dd5b7fc1e3377bd","6407ce4a2b2e52d02597e76e","1366","657","","13293","","{""Q0"":5}","[0]","anchoring","","","","","","","","","","","","","","","","","",""
"","","","","","survey-likert","5","198160","0.0-5.0","SS1678233195456","62fe673463cda03362b2d4c3","6406d7f26dd5b7fc1e3377bd","6407ce4a2b2e52d02597e76e","1366","657","","11672","","{""Q0"":1}","[0]","anchoring","","","","","","","","","","","","","","","","","",""
"","","","","","instructions","6","199688","0.0-6.0","SS1678233195456","62fe673463cda03362b2d4c3","6406d7f26dd5b7fc1e3377bd","6407ce4a2b2e52d02597e76e","1366","657","[{""page_index"":0,""viewing_time"":1476}]","1477","instructions","","","","","","","","","","","","","","","","","","","","",""
"true","","","","","fullscreen","7","201837","0.0-7.0","SS1678233195456","62fe673463cda03362b2d4c3","6406d7f26dd5b7fc1e3377bd","6407ce4a2b2e52d02597e76e","1366","657","","","","","","","","","","","","","","","","","","","","","","","",""
"","","","","","html-keyboard-response","8","220877","0.0-8.0","SS1678233195456","62fe673463cda03362b2d4c3","6406d7f26dd5b7fc1e3377bd","6407ce4a2b2e52d02597e76e","1366","657","","19015","","f","","","<img src=""media/stimuli/inanimate_003_right.png"" class=""coveredImage test"" style = ""width:100px; height:100px; position:fixed; top:10%;    transform: translate(-50%, -50%);left:48%""></img><img src=""media/stimuli/inanimate_012_right.png"" class=""coveredImage test"" style = ""width:100px; height:100px;position:fixed; top:25%;        transform: translate(-50%, -50%);left:38%""></img><img src=""media/stimuli/inanimate_003_right.png"" class=""coveredImage test"" style = ""width:100px; height:100px;position:fixed; top:25%;        transform: translate(-50%, -50%);left:54.5%""></img><img src=""media/stimuli/inanimate_003_right.png"" class=""coveredImage test"" style = ""width:100px; height:100px;position:fixed; top:25%;        transform: translate(-50%, -50%);left:61.5%""></img><img src=""media/f.png""style = ""width:30px x; height:30px;position:fixed; top:43%;    transform: translate(-50%, -50%);left:40%""></img><img src=""media/j.png""style = ""width:30px; height:30px;position:fixed; top:43%;    transform: translate(-50%, -50%);left:60%""></img>","media/stimuli/inanimate_003_right.png","inanimate","right","single","media/stimuli/inanimate_012_right.png","inanimate","right","single","media/stimuli/inanimate_003_right.png","inanimate","right","pair","identity_number","","","",""
"","","","","","html-keyboard-response","9","225835","0.0-9.0","SS1678233195456","62fe673463cda03362b2d4c3","6406d7f26dd5b7fc1e3377bd","6407ce4a2b2e52d02597e76e","1366","657","","4941","","f","","","<img src=""media/stimuli/animate_008_right.png"" class=""coveredImage test"" style = ""width:100px; height:100px; position:fixed; top:10%;    transform: translate(-50%, -50%);left:44.5%""></img><img src=""media/stimuli/animate_008_right.png"" class=""coveredImage test"" style = ""width:100px; height:100px; position:fixed; top:10%;    transform: translate(-50%, -50%);left:51.5%""></img><img src=""media/stimuli/animate_008_left.png"" class=""coveredImage test"" style = ""width:100px; height:100px;position:fixed; top:25%;        transform: translate(-50%, -50%);left:34.5%""></img><img src=""media/stimuli/animate_008_left.png"" class=""coveredImage test"" style = ""width:100px; height:100px;position:fixed; top:25%;        transform: translate(-50%, -50%);left:41.5%""></img><img src=""media/stimuli/animate_007_right.png"" class=""coveredImage test"" style = ""width:100px; height:100px;position:fixed; top:25%;        transform: translate(-50%, -50%);left:54.5%""></img><img src=""media/stimuli/animate_007_right.png"" class=""coveredImage test"" style = ""width:100px; height:100px;position:fixed; top:25%;        transform: translate(-50%, -50%);left:61.5%""></img><img src=""media/f.png""style = ""width:30px x; height:30px;position:fixed; top:43%;    transform: translate(-50%, -50%);left:40%""></img><img src=""media/j.png""style = ""width:30px; height:30px;position:fixed; top:43%;    transform: translate(-50%, -50%);left:60%""></img>","media/stimuli/animate_008_right.png","animate","right","pair","media/stimuli/animate_008_left.png","animate","left","pair","media/stimuli/animate_007_right.png","animate","right","pair","pose_identity","","","",""
"","","","","","html-keyboard-response","10","227822","0.0-10.0","SS1678233195456","62fe673463cda03362b2d4c3","6406d7f26dd5b7fc1e3377bd","6407ce4a2b2e52d02597e76e","1366","657","","1973","","f","","","<img src=""media/stimuli/animate_004_right.png"" class=""coveredImage test"" style = ""width:100px; height:100px; position:fixed; top:10%;    transform: translate(-50%, -50%);left:44.5%""></img><img src=""media/stimuli/animate_004_right.png"" class=""coveredImage test"" style = ""width:100px; height:100px; position:fixed; top:10%;    transform: translate(-50%, -50%);left:51.5%""></img><img src=""media/stimuli/animate_004_right.png"" class=""coveredImage test"" style = ""width:100px; height:100px;position:fixed; top:25%;        transform: translate(-50%, -50%);left:38%""></img><img src=""media/stimuli/inanimate_012_right.png"" class=""coveredImage test"" style = ""width:100px; height:100px;position:fixed; top:25%;        transform: translate(-50%, -50%);left:54.5%""></img><img src=""media/stimuli/inanimate_012_right.png"" class=""coveredImage test"" style = ""width:100px; height:100px;position:fixed; top:25%;        transform: translate(-50%, -50%);left:61.5%""></img><img src=""media/f.png""style = ""width:30px x; height:30px;position:fixed; top:43%;    transform: translate(-50%, -50%);left:40%""></img><img src=""media/j.png""style = ""width:30px; height:30px;position:fixed; top:43%;    transform: translate(-50%, -50%);left:60%""></img>","media/stimuli/animate_004_right.png","animate","right","pair","media/stimuli/animate_004_right.png","animate","right","single","media/stimuli/inanimate_012_right.png","inanimate","right","pair","number_animacy","","","",""
"","","","","","html-keyboard-response","11","229395","0.0-11.0","SS1678233195456","62fe673463cda03362b2d4c3","6406d7f26dd5b7fc1e3377bd","6407ce4a2b2e52d02597e76e","1366","657","","1555","","f","","","<img src=""media/stimuli/inanimate_012_left.png"" class=""coveredImage test"" style = ""width:100px; height:100px; position:fixed; top:10%;    transform: translate(-50%, -50%);left:44.5%""></img><img src=""media/stimuli/inanimate_012_left.png"" class=""coveredImage test"" style = ""width:100px; height:100px; position:fixed; top:10%;    transform: translate(-50%, -50%);left:51.5%""></img><img src=""media/stimuli/inanimate_012_left.png"" class=""coveredImage test"" style = ""width:100px; height:100px;position:fixed; top:25%;        transform: translate(-50%, -50%);left:38%""></img><img src=""media/stimuli/animate_003_left.png"" class=""coveredImage test"" style = ""width:100px; height:100px;position:fixed; top:25%;        transform: translate(-50%, -50%);left:54.5%""></img><img src=""media/stimuli/animate_003_left.png"" class=""coveredImage test"" style = ""width:100px; height:100px;position:fixed; top:25%;        transform: translate(-50%, -50%);left:61.5%""></img><img src=""media/f.png""style = ""width:30px x; height:30px;position:fixed; top:43%;    transform: translate(-50%, -50%);left:40%""></img><img src=""media/j.png""style = ""width:30px; height:30px;position:fixed; top:43%;    transform: translate(-50%, -50%);left:60%""></img>","media/stimuli/inanimate_012_left.png","inanimate","left","pair","media/stimuli/inanimate_012_left.png","inanimate","left","single","media/stimuli/animate_003_left.png","animate","left","pair","number_animacy","","","",""
"","","","","","html-keyboard-response","12","232416","0.0-12.0","SS1678233195456","62fe673463cda03362b2d4c3","6406d7f26dd5b7fc1e3377bd","6407ce4a2b2e52d02597e76e","1366","657","","3007","","j","","","<img src=""media/stimuli/inanimate_002_left.png"" class=""coveredImage test"" style = ""width:100px; height:100px; position:fixed; top:10%;    transform: translate(-50%, -50%);left:48%""></img><img src=""media/stimuli/inanimate_002_right.png"" class=""coveredImage test"" style = ""width:100px; height:100px;position:fixed; top:25%;        transform: translate(-50%, -50%);left:38%""></img><img src=""media/stimuli/inanimate_002_left.png"" class=""coveredImage test"" style = ""width:100px; height:100px;position:fixed; top:25%;        transform: translate(-50%, -50%);left:54.5%""></img><img src=""media/stimuli/inanimate_002_left.png"" class=""coveredImage test"" style = ""width:100px; height:100px;position:fixed; top:25%;        transform: translate(-50%, -50%);left:61.5%""></img><img src=""media/f.png""style = ""width:30px x; height:30px;position:fixed; top:43%;    transform: translate(-50%, -50%);left:40%""></img><img src=""media/j.png""style = ""width:30px; height:30px;position:fixed; top:43%;    transform: translate(-50%, -50%);left:60%""></img>","media/stimuli/inanimate_002_left.png","inanimate","left","single","media/stimuli/inanimate_002_right.png","inanimate","right","single","media/stimuli/inanimate_002_left.png","inanimate","left","pair","pose_number","","","",""
"","","","","","html-keyboard-response","13","233628","0.0-13.0","SS1678233195456","62fe673463cda03362b2d4c3","6406d7f26dd5b7fc1e3377bd","6407ce4a2b2e52d02597e76e","1366","657","","1149","","f","","","<img src=""media/stimuli/inanimate_006_left.png"" class=""coveredImage test"" style = ""width:100px; height:100px; position:fixed; top:10%;    transform: translate(-50%, -50%);left:44.5%""></img><img src=""media/stimuli/inanimate_006_left.png"" class=""coveredImage test"" style = ""width:100px; height:100px; position:fixed; top:10%;    transform: translate(-50%, -50%);left:51.5%""></img><img src=""media/stimuli/inanimate_006_left.png"" class=""coveredImage test"" style = ""width:100px; height:100px;position:fixed; top:25%;        transform: translate(-50%, -50%);left:38%""></img><img src=""media/stimuli/inanimate_009_left.png"" class=""coveredImage test"" style = ""width:100px; height:100px;position:fixed; top:25%;        transform: translate(-50%, -50%);left:54.5%""></img><img src=""media/stimuli/inanimate_009_left.png"" class=""coveredImage test"" style = ""width:100px; height:100px;position:fixed; top:25%;        transform: translate(-50%, -50%);left:61.5%""></img><img src=""media/f.png""style = ""width:30px x; height:30px;position:fixed; top:43%;    transform: translate(-50%, -50%);left:40%""></img><img src=""media/j.png""style = ""width:30px; height:30px;position:fixed; top:43%;    transform: translate(-50%, -50%);left:60%""></img>","media/stimuli/inanimate_006_left.png","inanimate","left","pair","media/stimuli/inanimate_006_left.png","inanimate","left","single","media/stimuli/inanimate_009_left.png","inanimate","left","pair","number_identity","","","",""
"","","","","","html-keyboard-response","14","234782","0.0-14.0","SS1678233195456","62fe673463cda03362b2d4c3","6406d7f26dd5b7fc1e3377bd","6407ce4a2b2e52d02597e76e","1366","657","","1141","","f","","","<img src=""media/stimuli/animate_001_right.png"" class=""coveredImage test"" style = ""width:100px; height:100px; position:fixed; top:10%;    transform: translate(-50%, -50%);left:48%""></img><img src=""media/stimuli/animate_001_right.png"" class=""coveredImage test"" style = ""width:100px; height:100px;position:fixed; top:25%;        transform: translate(-50%, -50%);left:34.5%""></img><img src=""media/stimuli/animate_001_right.png"" class=""coveredImage test"" style = ""width:100px; height:100px;position:fixed; top:25%;        transform: translate(-50%, -50%);left:41.5%""></img><img src=""media/stimuli/animate_003_right.png"" class=""coveredImage test"" style = ""width:100px; height:100px;position:fixed; top:25%;        transform: translate(-50%, -50%);left:58%""></img><img src=""media/f.png""style = ""width:30px x; height:30px;position:fixed; top:43%;    transform: translate(-50%, -50%);left:40%""></img><img src=""media/j.png""style = ""width:30px; height:30px;position:fixed; top:43%;    transform: translate(-50%, -50%);left:60%""></img>","media/stimuli/animate_001_right.png","animate","right","single","media/stimuli/animate_001_right.png","animate","right","pair","media/stimuli/animate_003_right.png","animate","right","single","number_identity","","","",""
"","","","","","html-keyboard-response","15","237150","0.0-15.0","SS1678233195456","62fe673463cda03362b2d4c3","6406d7f26dd5b7fc1e3377bd","6407ce4a2b2e52d02597e76e","1366","657","","2357","","j","","","<img src=""media/stimuli/inanimate_003_right.png"" class=""coveredImage test"" style = ""width:100px; height:100px; position:fixed; top:10%;    transform: translate(-50%, -50%);left:48%""></img><img src=""media/stimuli/animate_012_right.png"" class=""coveredImage test"" style = ""width:100px; height:100px;position:fixed; top:25%;        transform: translate(-50%, -50%);left:38%""></img><img src=""media/stimuli/inanimate_006_right.png"" class=""coveredImage test"" style = ""width:100px; height:100px;position:fixed; top:25%;        transform: translate(-50%, -50%);left:58%""></img><img src=""media/f.png""style = ""width:30px x; height:30px;position:fixed; top:43%;    transform: translate(-50%, -50%);left:40%""></img><img src=""media/j.png""style = ""width:30px; height:30px;position:fixed; top:43%;    transform: translate(-50%, -50%);left:60%""></img>","media/stimuli/inanimate_003_right.png","inanimate","right","single","media/stimuli/animate_012_right.png","animate","right","single","media/stimuli/inanimate_006_right.png","inanimate","right","single","animacy_identity","","","",""
"","","","","","html-keyboard-response","16","240228","0.0-16.0","SS1678233195456","62fe673463cda03362b2d4c3","6406d7f26dd5b7fc1e3377bd","6407ce4a2b2e52d02597e76e","1366","657","","3060","","f","","","<img src=""media/stimuli/inanimate_006_left.png"" class=""coveredImage test"" style = ""width:100px; height:100px; position:fixed; top:10%;    transform: translate(-50%, -50%);left:48%""></img><img src=""media/stimuli/inanimate_006_left.png"" class=""coveredImage test"" style = ""width:100px; height:100px;position:fixed; top:25%;        transform: translate(-50%, -50%);left:34.5%""></img><img src=""media/stimuli/inanimate_006_left.png"" class=""coveredImage test"" style = ""width:100px; height:100px;position:fixed; top:25%;        transform: translate(-50%, -50%);left:41.5%""></img><img src=""media/stimuli/inanimate_006_right.png"" class=""coveredImage test"" style = ""width:100px; height:100px;position:fixed; top:25%;        transform: translate(-50%, -50%);left:58%""></img><img src=""media/f.png""style = ""width:30px x; height:30px;position:fixed; top:43%;    transform: translate(-50%, -50%);left:40%""></img><img src=""media/j.png""style = ""width:30px; height:30px;position:fixed; top:43%;    transform: translate(-50%, -50%);left:60%""></img>","media/stimuli/inanimate_006_left.png","inanimate","left","single","media/stimuli/inanimate_006_left.png","inanimate","left","pair","media/stimuli/inanimate_006_right.png","inanimate","right","single","number_pose","","","",""
"","","","","","html-keyboard-response","17","242025","0.0-17.0","SS1678233195456","62fe673463cda03362b2d4c3","6406d7f26dd5b7fc1e3377bd","6407ce4a2b2e52d02597e76e","1366","657","","1784","","j","","","<img src=""media/stimuli/inanimate_001_right.png"" class=""coveredImage test"" style = ""width:100px; height:100px; position:fixed; top:10%;    transform: translate(-50%, -50%);left:44.5%""></img><img src=""media/stimuli/inanimate_001_right.png"" class=""coveredImage test"" style = ""width:100px; height:100px; position:fixed; top:10%;    transform: translate(-50%, -50%);left:51.5%""></img><img src=""media/stimuli/animate_003_right.png"" class=""coveredImage test"" style = ""width:100px; height:100px;position:fixed; top:25%;        transform: translate(-50%, -50%);left:34.5%""></img><img src=""media/stimuli/animate_003_right.png"" class=""coveredImage test"" style = ""width:100px; height:100px;position:fixed; top:25%;        transform: translate(-50%, -50%);left:41.5%""></img><img src=""media/stimuli/inanimate_007_right.png"" class=""coveredImage test"" style = ""width:100px; height:100px;position:fixed; top:25%;        transform: translate(-50%, -50%);left:54.5%""></img><img src=""media/stimuli/inanimate_007_right.png"" class=""coveredImage test"" style = ""width:100px; height:100px;position:fixed; top:25%;        transform: translate(-50%, -50%);left:61.5%""></img><img src=""media/f.png""style = ""width:30px x; height:30px;position:fixed; top:43%;    transform: translate(-50%, -50%);left:40%""></img><img src=""media/j.png""style = ""width:30px; height:30px;position:fixed; top:43%;    transform: translate(-50%, -50%);left:60%""></img>","media/stimuli/inanimate_001_right.png","inanimate","right","pair","media/stimuli/animate_003_right.png","animate","right","pair","media/stimuli/inanimate_007_right.png","inanimate","right","pair","animacy_identity","","","",""
"","","","","","html-keyboard-response","18","244172","0.0-18.0","SS1678233195456","62fe673463cda03362b2d4c3","6406d7f26dd5b7fc1e3377bd","6407ce4a2b2e52d02597e76e","1366","657","","2133","","j","","","<img src=""media/stimuli/inanimate_009_left.png"" class=""coveredImage test"" style = ""width:100px; height:100px; position:fixed; top:10%;    transform: translate(-50%, -50%);left:48%""></img><img src=""media/stimuli/animate_003_left.png"" class=""coveredImage test"" style = ""width:100px; height:100px;position:fixed; top:25%;        transform: translate(-50%, -50%);left:38%""></img><img src=""media/stimuli/inanimate_007_left.png"" class=""coveredImage test"" style = ""width:100px; height:100px;position:fixed; top:25%;        transform: translate(-50%, -50%);left:58%""></img><img src=""media/f.png""style = ""width:30px x; height:30px;position:fixed; top:43%;    transform: translate(-50%, -50%);left:40%""></img><img src=""media/j.png""style = ""width:30px; height:30px;position:fixed; top:43%;    transform: translate(-50%, -50%);left:60%""></img>","media/stimuli/inanimate_009_left.png","inanimate","left","single","media/stimuli/animate_003_left.png","animate","left","single","media/stimuli/inanimate_007_left.png","inanimate","left","single","animacy_identity","","","",""
"","","","","","html-keyboard-response","19","245356","0.0-19.0","SS1678233195456","62fe673463cda03362b2d4c3","6406d7f26dd5b7fc1e3377bd","6407ce4a2b2e52d02597e76e","1366","657","","1171","","j","","","<img src=""media/stimuli/inanimate_003_right.png"" class=""coveredImage test"" style = ""width:100px; height:100px; position:fixed; top:10%;    transform: translate(-50%, -50%);left:48%""></img><img src=""media/stimuli/animate_007_right.png"" class=""coveredImage test"" style = ""width:100px; height:100px;position:fixed; top:25%;        transform: translate(-50%, -50%);left:38%""></img><img src=""media/stimuli/inanimate_001_right.png"" class=""coveredImage test"" style = ""width:100px; height:100px;position:fixed; top:25%;        transform: translate(-50%, -50%);left:58%""></img><img src=""media/f.png""style = ""width:30px x; height:30px;position:fixed; top:43%;    transform: translate(-50%, -50%);left:40%""></img><img src=""media/j.png""style = ""width:30px; height:30px;position:fixed; top:43%;    transform: translate(-50%, -50%);left:60%""></img>","media/stimuli/inanimate_003_right.png","inanimate","right","single","media/stimuli/animate_007_right.png","animate","right","single","media/stimuli/inanimate_001_right.png","inanimate","right","single","animacy_identity","","","",""
"","","","","","html-keyboard-response","20","247789","0.0-20.0","SS1678233195456","62fe673463cda03362b2d4c3","6406d7f26dd5b7fc1e3377bd","6407ce4a2b2e52d02597e76e","1366","657","","2419","","f","","","<img src=""media/stimuli/animate_008_right.png"" class=""coveredImage test"" style = ""width:100px; height:100px; position:fixed; top:10%;    transform: translate(-50%, -50%);left:44.5%""></img><img src=""media/stimuli/animate_008_right.png"" class=""coveredImage test"" style = ""width:100px; height:100px; position:fixed; top:10%;    transform: translate(-50%, -50%);left:51.5%""></img><img src=""media/stimuli/animate_008_left.png"" class=""coveredImage test"" style = ""width:100px; height:100px;position:fixed; top:25%;        transform: translate(-50%, -50%);left:34.5%""></img><img src=""media/stimuli/animate_008_left.png"" class=""coveredImage test"" style = ""width:100px; height:100px;position:fixed; top:25%;        transform: translate(-50%, -50%);left:41.5%""></img><img src=""media/stimuli/animate_010_right.png"" class=""coveredImage test"" style = ""width:100px; height:100px;position:fixed; top:25%;        transform: translate(-50%, -50%);left:54.5%""></img><img src=""media/stimuli/animate_010_right.png"" class=""coveredImage test"" style = ""width:100px; height:100px;position:fixed; top:25%;        transform: translate(-50%, -50%);left:61.5%""></img><img src=""media/f.png""style = ""width:30px x; height:30px;position:fixed; top:43%;    transform: translate(-50%, -50%);left:40%""></img><img src=""media/j.png""style = ""width:30px; height:30px;position:fixed; top:43%;    transform: translate(-50%, -50%);left:60%""></img>","media/stimuli/animate_008_right.png","animate","right","pair","media/stimuli/animate_008_left.png","animate","left","pair","media/stimuli/animate_010_right.png","animate","right","pair","pose_identity","","","",""
"","","","","","html-keyboard-response","21","249164","0.0-21.0","SS1678233195456","62fe673463cda03362b2d4c3","6406d7f26dd5b7fc1e3377bd","6407ce4a2b2e52d02597e76e","1366","657","","1354","","j","","","<img src=""media/stimuli/animate_004_left.png"" class=""coveredImage test"" style = ""width:100px; height:100px; position:fixed; top:10%;    transform: translate(-50%, -50%);left:48%""></img><img src=""media/stimuli/animate_010_left.png"" class=""coveredImage test"" style = ""width:100px; height:100px;position:fixed; top:25%;        transform: translate(-50%, -50%);left:38%""></img><img src=""media/stimuli/animate_004_right.png"" class=""coveredImage test"" style = ""width:100px; height:100px;position:fixed; top:25%;        transform: translate(-50%, -50%);left:58%""></img><img src=""media/f.png""style = ""width:30px x; height:30px;position:fixed; top:43%;    transform: translate(-50%, -50%);left:40%""></img><img src=""media/j.png""style = ""width:30px; height:30px;position:fixed; top:43%;    transform: translate(-50%, -50%);left:60%""></img>","media/stimuli/animate_004_left.png","animate","left","single","media/stimuli/animate_010_left.png","animate","left","single","media/stimuli/animate_004_right.png","animate","right","single","identity_pose","","","",""
"","","","","","html-keyboard-response","22","250255","0.0-22.0","SS1678233195456","62fe673463cda03362b2d4c3","6406d7f26dd5b7fc1e3377bd","6407ce4a2b2e52d02597e76e","1366","657","","1068","","j","","","<img src=""media/stimuli/animate_001_left.png"" class=""coveredImage test"" style = ""width:100px; height:100px; position:fixed; top:10%;    transform: translate(-50%, -50%);left:48%""></img><img src=""media/stimuli/inanimate_010_left.png"" class=""coveredImage test"" style = ""width:100px; height:100px;position:fixed; top:25%;        transform: translate(-50%, -50%);left:38%""></img><img src=""media/stimuli/animate_001_left.png"" class=""coveredImage test"" style = ""width:100px; height:100px;position:fixed; top:25%;        transform: translate(-50%, -50%);left:54.5%""></img><img src=""media/stimuli/animate_001_left.png"" class=""coveredImage test"" style = ""width:100px; height:100px;position:fixed; top:25%;        transform: translate(-50%, -50%);left:61.5%""></img><img src=""media/f.png""style = ""width:30px x; height:30px;position:fixed; top:43%;    transform: translate(-50%, -50%);left:40%""></img><img src=""media/j.png""style = ""width:30px; height:30px;position:fixed; top:43%;    transform: translate(-50%, -50%);left:60%""></img>","media/stimuli/animate_001_left.png","animate","left","single","media/stimuli/inanimate_010_left.png","inanimate","left","single","media/stimuli/animate_001_left.png","animate","left","pair","animacy_number","","","",""
"","","","","","html-keyboard-response","23","251929","0.0-23.0","SS1678233195456","62fe673463cda03362b2d4c3","6406d7f26dd5b7fc1e3377bd","6407ce4a2b2e52d02597e76e","1366","657","","1663","","j","","","<img src=""media/stimuli/animate_005_left.png"" class=""coveredImage test"" style = ""width:100px; height:100px; position:fixed; top:10%;    transform: translate(-50%, -50%);left:48%""></img><img src=""media/stimuli/animate_005_right.png"" class=""coveredImage test"" style = ""width:100px; height:100px;position:fixed; top:25%;        transform: translate(-50%, -50%);left:38%""></img><img src=""media/stimuli/animate_005_left.png"" class=""coveredImage test"" style = ""width:100px; height:100px;position:fixed; top:25%;        transform: translate(-50%, -50%);left:54.5%""></img><img src=""media/stimuli/animate_005_left.png"" class=""coveredImage test"" style = ""width:100px; height:100px;position:fixed; top:25%;        transform: translate(-50%, -50%);left:61.5%""></img><img src=""media/f.png""style = ""width:30px x; height:30px;position:fixed; top:43%;    transform: translate(-50%, -50%);left:40%""></img><img src=""media/j.png""style = ""width:30px; height:30px;position:fixed; top:43%;    transform: translate(-50%, -50%);left:60%""></img>","media/stimuli/animate_005_left.png","animate","left","single","media/stimuli/animate_005_right.png","animate","right","single","media/stimuli/animate_005_left.png","animate","left","pair","pose_number","","","",""
"","","","","","html-keyboard-response","24","256259","0.0-24.0","SS1678233195456","62fe673463cda03362b2d4c3","6406d7f26dd5b7fc1e3377bd","6407ce4a2b2e52d02597e76e","1366","657","","4316","","enter","","","","","","","","","","","","","","","","","","","",""
"","","","","","html-keyboard-response","25","262933","0.0-25.0","SS1678233195456","62fe673463cda03362b2d4c3","6406d7f26dd5b7fc1e3377bd","6407ce4a2b2e52d02597e76e","1366","657","","6663","","j","","","<img src=""media/stimuli/animate_012_left.png"" class=""coveredImage test"" style = ""width:100px; height:100px; position:fixed; top:10%;    transform: translate(-50%, -50%);left:48%""></img><img src=""media/stimuli/animate_012_left.png"" class=""coveredImage test"" style = ""width:100px; height:100px;position:fixed; top:25%;        transform: translate(-50%, -50%);left:34.5%""></img><img src=""media/stimuli/animate_012_left.png"" class=""coveredImage test"" style = ""width:100px; height:100px;position:fixed; top:25%;        transform: translate(-50%, -50%);left:41.5%""></img><img src=""media/stimuli/animate_012_right.png"" class=""coveredImage test"" style = ""width:100px; height:100px;position:fixed; top:25%;        transform: translate(-50%, -50%);left:58%""></img><img src=""media/f.png""style = ""width:30px x; height:30px;position:fixed; top:43%;    transform: translate(-50%, -50%);left:40%""></img><img src=""media/j.png""style = ""width:30px; height:30px;position:fixed; top:43%;    transform: translate(-50%, -50%);left:60%""></img>","media/stimuli/animate_012_left.png","animate","left","single","media/stimuli/animate_012_left.png","animate","left","pair","media/stimuli/animate_012_right.png","animate","right","single","number_pose","","","",""
"","","","","","html-keyboard-response","26","264009","0.0-26.0","SS1678233195456","62fe673463cda03362b2d4c3","6406d7f26dd5b7fc1e3377bd","6407ce4a2b2e52d02597e76e","1366","657","","1062","","f","","","<img src=""media/stimuli/animate_008_left.png"" class=""coveredImage test"" style = ""width:100px; height:100px; position:fixed; top:10%;    transform: translate(-50%, -50%);left:44.5%""></img><img src=""media/stimuli/animate_008_left.png"" class=""coveredImage test"" style = ""width:100px; height:100px; position:fixed; top:10%;    transform: translate(-50%, -50%);left:51.5%""></img><img src=""media/stimuli/animate_008_left.png"" class=""coveredImage test"" style = ""width:100px; height:100px;position:fixed; top:25%;        transform: translate(-50%, -50%);left:38%""></img><img src=""media/stimuli/animate_010_left.png"" class=""coveredImage test"" style = ""width:100px; height:100px;position:fixed; top:25%;        transform: translate(-50%, -50%);left:54.5%""></img><img src=""media/stimuli/animate_010_left.png"" class=""coveredImage test"" style = ""width:100px; height:100px;position:fixed; top:25%;        transform: translate(-50%, -50%);left:61.5%""></img><img src=""media/f.png""style = ""width:30px x; height:30px;position:fixed; top:43%;    transform: translate(-50%, -50%);left:40%""></img><img src=""media/j.png""style = ""width:30px; height:30px;position:fixed; top:43%;    transform: translate(-50%, -50%);left:60%""></img>","media/stimuli/animate_008_left.png","animate","left","pair","media/stimuli/animate_008_left.png","animate","left","single","media/stimuli/animate_010_left.png","animate","left","pair","number_identity","","","",""
"","","","","","html-keyboard-response","27","265049","0.0-27.0","SS1678233195456","62fe673463cda03362b2d4c3","6406d7f26dd5b7fc1e3377bd","6407ce4a2b2e52d02597e76e","1366","657","","1021","","j","","","<img src=""media/stimuli/inanimate_012_left.png"" class=""coveredImage test"" style = ""width:100px; height:100px; position:fixed; top:10%;    transform: translate(-50%, -50%);left:44.5%""></img><img src=""media/stimuli/inanimate_012_left.png"" class=""coveredImage test"" style = ""width:100px; height:100px; position:fixed; top:10%;    transform: translate(-50%, -50%);left:51.5%""></img><img src=""media/stimuli/inanimate_012_left.png"" class=""coveredImage test"" style = ""width:100px; height:100px;position:fixed; top:25%;        transform: translate(-50%, -50%);left:38%""></img><img src=""media/stimuli/animate_008_left.png"" class=""coveredImage test"" style = ""width:100px; height:100px;position:fixed; top:25%;        transform: translate(-50%, -50%);left:54.5%""></img><img src=""media/stimuli/animate_008_left.png"" class=""coveredImage test"" style = ""width:100px; height:100px;position:fixed; top:25%;        transform: translate(-50%, -50%);left:61.5%""></img><img src=""media/f.png""style = ""width:30px x; height:30px;position:fixed; top:43%;    transform: translate(-50%, -50%);left:40%""></img><img src=""media/j.png""style = ""width:30px; height:30px;position:fixed; top:43%;    transform: translate(-50%, -50%);left:60%""></img>","media/stimuli/inanimate_012_left.png","inanimate","left","pair","media/stimuli/inanimate_012_left.png","inanimate","left","single","media/stimuli/animate_008_left.png","animate","left","pair","number_animacy","","","",""
"","","","","","html-keyboard-response","28","266148","0.0-28.0","SS1678233195456","62fe673463cda03362b2d4c3","6406d7f26dd5b7fc1e3377bd","6407ce4a2b2e52d02597e76e","1366","657","","1079","","f","","","<img src=""media/stimuli/inanimate_011_right.png"" class=""coveredImage test"" style = ""width:100px; height:100px; position:fixed; top:10%;    transform: translate(-50%, -50%);left:48%""></img><img src=""media/stimuli/inanimate_011_right.png"" class=""coveredImage test"" style = ""width:100px; height:100px;position:fixed; top:25%;        transform: translate(-50%, -50%);left:34.5%""></img><img src=""media/stimuli/inanimate_011_right.png"" class=""coveredImage test"" style = ""width:100px; height:100px;position:fixed; top:25%;        transform: translate(-50%, -50%);left:41.5%""></img><img src=""media/stimuli/animate_001_left.png"" class=""coveredImage test"" style = ""width:100px; height:100px;position:fixed; top:25%;        transform: translate(-50%, -50%);left:54.5%""></img><img src=""media/stimuli/animate_001_left.png"" class=""coveredImage test"" style = ""width:100px; height:100px;position:fixed; top:25%;        transform: translate(-50%, -50%);left:61.5%""></img><img src=""media/f.png""style = ""width:30px x; height:30px;position:fixed; top:43%;    transform: translate(-50%, -50%);left:40%""></img><img src=""media/j.png""style = ""width:30px; height:30px;position:fixed; top:43%;    transform: translate(-50%, -50%);left:60%""></img>","media/stimuli/inanimate_011_right.png","inanimate","right","single","media/stimuli/inanimate_011_right.png","inanimate","right","pair","media/stimuli/animate_001_left.png","animate","left","pair","pose_animacy","","","",""
"","","","","","html-keyboard-response","29","267108","0.0-29.0","SS1678233195456","62fe673463cda03362b2d4c3","6406d7f26dd5b7fc1e3377bd","6407ce4a2b2e52d02597e76e","1366","657","","946","","f","","","<img src=""media/stimuli/inanimate_010_left.png"" class=""coveredImage test"" style = ""width:100px; height:100px; position:fixed; top:10%;    transform: translate(-50%, -50%);left:48%""></img><img src=""media/stimuli/inanimate_010_left.png"" class=""coveredImage test"" style = ""width:100px; height:100px;position:fixed; top:25%;        transform: translate(-50%, -50%);left:34.5%""></img><img src=""media/stimuli/inanimate_010_left.png"" class=""coveredImage test"" style = ""width:100px; height:100px;position:fixed; top:25%;        transform: translate(-50%, -50%);left:41.5%""></img><img src=""media/stimuli/animate_003_left.png"" class=""coveredImage test"" style = ""width:100px; height:100px;position:fixed; top:25%;        transform: translate(-50%, -50%);left:58%""></img><img src=""media/f.png""style = ""width:30px x; height:30px;position:fixed; top:43%;    transform: translate(-50%, -50%);left:40%""></img><img src=""media/j.png""style = ""width:30px; height:30px;position:fixed; top:43%;    transform: translate(-50%, -50%);left:60%""></img>","media/stimuli/inanimate_010_left.png","inanimate","left","single","media/stimuli/inanimate_010_left.png","inanimate","left","pair","media/stimuli/animate_003_left.png","animate","left","single","number_animacy","","","",""
"","","","","","html-keyboard-response","30","268240","0.0-30.0","SS1678233195456","62fe673463cda03362b2d4c3","6406d7f26dd5b7fc1e3377bd","6407ce4a2b2e52d02597e76e","1366","657","","1119","","j","","","<img src=""media/stimuli/inanimate_006_left.png"" class=""coveredImage test"" style = ""width:100px; height:100px; position:fixed; top:10%;    transform: translate(-50%, -50%);left:44.5%""></img><img src=""media/stimuli/inanimate_006_left.png"" class=""coveredImage test"" style = ""width:100px; height:100px; position:fixed; top:10%;    transform: translate(-50%, -50%);left:51.5%""></img><img src=""media/stimuli/inanimate_001_left.png"" class=""coveredImage test"" style = ""width:100px; height:100px;position:fixed; top:25%;        transform: translate(-50%, -50%);left:34.5%""></img><img src=""media/stimuli/inanimate_001_left.png"" class=""coveredImage test"" style = ""width:100px; height:100px;position:fixed; top:25%;        transform: translate(-50%, -50%);left:41.5%""></img><img src=""media/stimuli/inanimate_006_right.png"" class=""coveredImage test"" style = ""width:100px; height:100px;position:fixed; top:25%;        transform: translate(-50%, -50%);left:54.5%""></img><img src=""media/stimuli/inanimate_006_right.png"" class=""coveredImage test"" style = ""width:100px; height:100px;position:fixed; top:25%;        transform: translate(-50%, -50%);left:61.5%""></img><img src=""media/f.png""style = ""width:30px x; height:30px;position:fixed; top:43%;    transform: translate(-50%, -50%);left:40%""></img><img src=""media/j.png""style = ""width:30px; height:30px;position:fixed; top:43%;    transform: translate(-50%, -50%);left:60%""></img>","media/stimuli/inanimate_006_left.png","inanimate","left","pair","media/stimuli/inanimate_001_left.png","inanimate","left","pair","media/stimuli/inanimate_006_right.png","inanimate","right","pair","identity_pose","","","",""
"","","","","","html-keyboard-response","31","269098","0.0-31.0","SS1678233195456","62fe673463cda03362b2d4c3","6406d7f26dd5b7fc1e3377bd","6407ce4a2b2e52d02597e76e","1366","657","","837","","f","","","<img src=""media/stimuli/inanimate_006_left.png"" class=""coveredImage test"" style = ""width:100px; height:100px; position:fixed; top:10%;    transform: translate(-50%, -50%);left:44.5%""></img><img src=""media/stimuli/inanimate_006_left.png"" class=""coveredImage test"" style = ""width:100px; height:100px; position:fixed; top:10%;    transform: translate(-50%, -50%);left:51.5%""></img><img src=""media/stimuli/inanimate_006_left.png"" class=""coveredImage test"" style = ""width:100px; height:100px;position:fixed; top:25%;        transform: translate(-50%, -50%);left:38%""></img><img src=""media/stimuli/animate_010_left.png"" class=""coveredImage test"" style = ""width:100px; height:100px;position:fixed; top:25%;        transform: translate(-50%, -50%);left:54.5%""></img><img src=""media/stimuli/animate_010_left.png"" class=""coveredImage test"" style = ""width:100px; height:100px;position:fixed; top:25%;        transform: translate(-50%, -50%);left:61.5%""></img><img src=""media/f.png""style = ""width:30px x; height:30px;position:fixed; top:43%;    transform: translate(-50%, -50%);left:40%""></img><img src=""media/j.png""style = ""width:30px; height:30px;position:fixed; top:43%;    transform: translate(-50%, -50%);left:60%""></img>","media/stimuli/inanimate_006_left.png","inanimate","left","pair","media/stimuli/inanimate_006_left.png","inanimate","left","single","media/stimuli/animate_010_left.png","animate","left","pair","number_animacy","","","",""
"","","","","","html-keyboard-response","32","269864","0.0-32.0","SS1678233195456","62fe673463cda03362b2d4c3","6406d7f26dd5b7fc1e3377bd","6407ce4a2b2e52d02597e76e","1366","657","","750","","j","","","<img src=""media/stimuli/inanimate_004_right.png"" class=""coveredImage test"" style = ""width:100px; height:100px; position:fixed; top:10%;    transform: translate(-50%, -50%);left:48%""></img><img src=""media/stimuli/inanimate_011_right.png"" class=""coveredImage test"" style = ""width:100px; height:100px;position:fixed; top:25%;        transform: translate(-50%, -50%);left:38%""></img><img src=""media/stimuli/inanimate_004_right.png"" class=""coveredImage test"" style = ""width:100px; height:100px;position:fixed; top:25%;        transform: translate(-50%, -50%);left:54.5%""></img><img src=""media/stimuli/inanimate_004_right.png"" class=""coveredImage test"" style = ""width:100px; height:100px;position:fixed; top:25%;        transform: translate(-50%, -50%);left:61.5%""></img><img src=""media/f.png""style = ""width:30px x; height:30px;position:fixed; top:43%;    transform: translate(-50%, -50%);left:40%""></img><img src=""media/j.png""style = ""width:30px; height:30px;position:fixed; top:43%;    transform: translate(-50%, -50%);left:60%""></img>","media/stimuli/inanimate_004_right.png","inanimate","right","single","media/stimuli/inanimate_011_right.png","inanimate","right","single","media/stimuli/inanimate_004_right.png","inanimate","right","pair","identity_number","","","",""
"","","","","","html-keyboard-response","33","270974","0.0-33.0","SS1678233195456","62fe673463cda03362b2d4c3","6406d7f26dd5b7fc1e3377bd","6407ce4a2b2e52d02597e76e","1366","657","","1094","","j","","","<img src=""media/stimuli/animate_007_right.png"" class=""coveredImage test"" style = ""width:100px; height:100px; position:fixed; top:10%;    transform: translate(-50%, -50%);left:48%""></img><img src=""media/stimuli/animate_009_right.png"" class=""coveredImage test"" style = ""width:100px; height:100px;position:fixed; top:25%;        transform: translate(-50%, -50%);left:38%""></img><img src=""media/stimuli/animate_007_left.png"" class=""coveredImage test"" style = ""width:100px; height:100px;position:fixed; top:25%;        transform: translate(-50%, -50%);left:58%""></img><img src=""media/f.png""style = ""width:30px x; height:30px;position:fixed; top:43%;    transform: translate(-50%, -50%);left:40%""></img><img src=""media/j.png""style = ""width:30px; height:30px;position:fixed; top:43%;    transform: translate(-50%, -50%);left:60%""></img>","media/stimuli/animate_007_right.png","animate","right","single","media/stimuli/animate_009_right.png","animate","right","single","media/stimuli/animate_007_left.png","animate","left","single","identity_pose","","","",""
"","","","","","html-keyboard-response","34","273592","0.0-34.0","SS1678233195456","62fe673463cda03362b2d4c3","6406d7f26dd5b7fc1e3377bd","6407ce4a2b2e52d02597e76e","1366","657","","2602","","j","","","<img src=""media/stimuli/inanimate_004_left.png"" class=""coveredImage test"" style = ""width:100px; height:100px; position:fixed; top:10%;    transform: translate(-50%, -50%);left:44.5%""></img><img src=""media/stimuli/inanimate_004_left.png"" class=""coveredImage test"" style = ""width:100px; height:100px; position:fixed; top:10%;    transform: translate(-50%, -50%);left:51.5%""></img><img src=""media/stimuli/animate_005_left.png"" class=""coveredImage test"" style = ""width:100px; height:100px;position:fixed; top:25%;        transform: translate(-50%, -50%);left:34.5%""></img><img src=""media/stimuli/animate_005_left.png"" class=""coveredImage test"" style = ""width:100px; height:100px;position:fixed; top:25%;        transform: translate(-50%, -50%);left:41.5%""></img><img src=""media/stimuli/inanimate_010_left.png"" class=""coveredImage test"" style = ""width:100px; height:100px;position:fixed; top:25%;        transform: translate(-50%, -50%);left:54.5%""></img><img src=""media/stimuli/inanimate_010_left.png"" class=""coveredImage test"" style = ""width:100px; height:100px;position:fixed; top:25%;        transform: translate(-50%, -50%);left:61.5%""></img><img src=""media/f.png""style = ""width:30px x; height:30px;position:fixed; top:43%;    transform: translate(-50%, -50%);left:40%""></img><img src=""media/j.png""style = ""width:30px; height:30px;position:fixed; top:43%;    transform: translate(-50%, -50%);left:60%""></img>","media/stimuli/inanimate_004_left.png","inanimate","left","pair","media/stimuli/animate_005_left.png","animate","left","pair","media/stimuli/inanimate_010_left.png","inanimate","left","pair","animacy_identity","","","",""
"","","","","","html-keyboard-response","35","277437","0.0-35.0","SS1678233195456","62fe673463cda03362b2d4c3","6406d7f26dd5b7fc1e3377bd","6407ce4a2b2e52d02597e76e","1366","657","","3833","","f","","","<img src=""media/stimuli/animate_009_right.png"" class=""coveredImage test"" style = ""width:100px; height:100px; position:fixed; top:10%;    transform: translate(-50%, -50%);left:48%""></img><img src=""media/stimuli/animate_009_right.png"" class=""coveredImage test"" style = ""width:100px; height:100px;position:fixed; top:25%;        transform: translate(-50%, -50%);left:34.5%""></img><img src=""media/stimuli/animate_009_right.png"" class=""coveredImage test"" style = ""width:100px; height:100px;position:fixed; top:25%;        transform: translate(-50%, -50%);left:41.5%""></img><img src=""media/stimuli/animate_009_left.png"" class=""coveredImage test"" style = ""width:100px; height:100px;position:fixed; top:25%;        transform: translate(-50%, -50%);left:58%""></img><img src=""media/f.png""style = ""width:30px x; height:30px;position:fixed; top:43%;    transform: translate(-50%, -50%);left:40%""></img><img src=""media/j.png""style = ""width:30px; height:30px;position:fixed; top:43%;    transform: translate(-50%, -50%);left:60%""></img>","media/stimuli/animate_009_right.png","animate","right","single","media/stimuli/animate_009_right.png","animate","right","pair","media/stimuli/animate_009_left.png","animate","left","single","number_pose","","","",""
"","","","","","html-keyboard-response","36","278687","0.0-36.0","SS1678233195456","62fe673463cda03362b2d4c3","6406d7f26dd5b7fc1e3377bd","6407ce4a2b2e52d02597e76e","1366","657","","1236","","j","","","<img src=""media/stimuli/animate_005_right.png"" class=""coveredImage test"" style = ""width:100px; height:100px; position:fixed; top:10%;    transform: translate(-50%, -50%);left:48%""></img><img src=""media/stimuli/inanimate_006_right.png"" class=""coveredImage test"" style = ""width:100px; height:100px;position:fixed; top:25%;        transform: translate(-50%, -50%);left:38%""></img><img src=""media/stimuli/animate_005_right.png"" class=""coveredImage test"" style = ""width:100px; height:100px;position:fixed; top:25%;        transform: translate(-50%, -50%);left:54.5%""></img><img src=""media/stimuli/animate_005_right.png"" class=""coveredImage test"" style = ""width:100px; height:100px;position:fixed; top:25%;        transform: translate(-50%, -50%);left:61.5%""></img><img src=""media/f.png""style = ""width:30px x; height:30px;position:fixed; top:43%;    transform: translate(-50%, -50%);left:40%""></img><img src=""media/j.png""style = ""width:30px; height:30px;position:fixed; top:43%;    transform: translate(-50%, -50%);left:60%""></img>","media/stimuli/animate_005_right.png","animate","right","single","media/stimuli/inanimate_006_right.png","inanimate","right","single","media/stimuli/animate_005_right.png","animate","right","pair","animacy_number","","","",""
"","","","","","html-keyboard-response","37","279677","0.0-37.0","SS1678233195456","62fe673463cda03362b2d4c3","6406d7f26dd5b7fc1e3377bd","6407ce4a2b2e52d02597e76e","1366","657","","981","","enter","","","","","","","","","","","","","","","","","","","",""
"","","","","","html-keyboard-response","38","280631","0.0-38.0","SS1678233195456","62fe673463cda03362b2d4c3","6406d7f26dd5b7fc1e3377bd","6407ce4a2b2e52d02597e76e","1366","657","","937","","j","","","<img src=""media/stimuli/animate_004_right.png"" class=""coveredImage test"" style = ""width:100px; height:100px; position:fixed; top:10%;    transform: translate(-50%, -50%);left:44.5%""></img><img src=""media/stimuli/animate_004_right.png"" class=""coveredImage test"" style = ""width:100px; height:100px; position:fixed; top:10%;    transform: translate(-50%, -50%);left:51.5%""></img><img src=""media/stimuli/inanimate_002_right.png"" class=""coveredImage test"" style = ""width:100px; height:100px;position:fixed; top:25%;        transform: translate(-50%, -50%);left:34.5%""></img><img src=""media/stimuli/inanimate_002_right.png"" class=""coveredImage test"" style = ""width:100px; height:100px;position:fixed; top:25%;        transform: translate(-50%, -50%);left:41.5%""></img><img src=""media/stimuli/animate_004_right.png"" class=""coveredImage test"" style = ""width:100px; height:100px;position:fixed; top:25%;        transform: translate(-50%, -50%);left:58%""></img><img src=""media/f.png""style = ""width:30px x; height:30px;position:fixed; top:43%;    transform: translate(-50%, -50%);left:40%""></img><img src=""media/j.png""style = ""width:30px; height:30px;position:fixed; top:43%;    transform: translate(-50%, -50%);left:60%""></img>","media/stimuli/animate_004_right.png","animate","right","pair","media/stimuli/inanimate_002_right.png","inanimate","right","pair","media/stimuli/animate_004_right.png","animate","right","single","animacy_number","","","",""
"","","","","","html-keyboard-response","39","281430","0.0-39.0","SS1678233195456","62fe673463cda03362b2d4c3","6406d7f26dd5b7fc1e3377bd","6407ce4a2b2e52d02597e76e","1366","657","","784","","j","","","<img src=""media/stimuli/inanimate_009_left.png"" class=""coveredImage test"" style = ""width:100px; height:100px; position:fixed; top:10%;    transform: translate(-50%, -50%);left:48%""></img><img src=""media/stimuli/inanimate_004_left.png"" class=""coveredImage test"" style = ""width:100px; height:100px;position:fixed; top:25%;        transform: translate(-50%, -50%);left:38%""></img><img src=""media/stimuli/inanimate_009_right.png"" class=""coveredImage test"" style = ""width:100px; height:100px;position:fixed; top:25%;        transform: translate(-50%, -50%);left:58%""></img><img src=""media/f.png""style = ""width:30px x; height:30px;position:fixed; top:43%;    transform: translate(-50%, -50%);left:40%""></img><img src=""media/j.png""style = ""width:30px; height:30px;position:fixed; top:43%;    transform: translate(-50%, -50%);left:60%""></img>","media/stimuli/inanimate_009_left.png","inanimate","left","single","media/stimuli/inanimate_004_left.png","inanimate","left","single","media/stimuli/inanimate_009_right.png","inanimate","right","single","identity_pose","","","",""
"","","","","","html-keyboard-response","40","282411","0.0-40.0","SS1678233195456","62fe673463cda03362b2d4c3","6406d7f26dd5b7fc1e3377bd","6407ce4a2b2e52d02597e76e","1366","657","","957","","f","","","<img src=""media/stimuli/animate_001_left.png"" class=""coveredImage test"" style = ""width:100px; height:100px; position:fixed; top:10%;    transform: translate(-50%, -50%);left:48%""></img><img src=""media/stimuli/animate_001_left.png"" class=""coveredImage test"" style = ""width:100px; height:100px;position:fixed; top:25%;        transform: translate(-50%, -50%);left:34.5%""></img><img src=""media/stimuli/animate_001_left.png"" class=""coveredImage test"" style = ""width:100px; height:100px;position:fixed; top:25%;        transform: translate(-50%, -50%);left:41.5%""></img><img src=""media/stimuli/inanimate_011_right.png"" class=""coveredImage test"" style = ""width:100px; height:100px;position:fixed; top:25%;        transform: translate(-50%, -50%);left:54.5%""></img><img src=""media/stimuli/inanimate_011_right.png"" class=""coveredImage test"" style = ""width:100px; height:100px;position:fixed; top:25%;        transform: translate(-50%, -50%);left:61.5%""></img><img src=""media/f.png""style = ""width:30px x; height:30px;position:fixed; top:43%;    transform: translate(-50%, -50%);left:40%""></img><img src=""media/j.png""style = ""width:30px; height:30px;position:fixed; top:43%;    transform: translate(-50%, -50%);left:60%""></img>","media/stimuli/animate_001_left.png","animate","left","single","media/stimuli/animate_001_left.png","animate","left","pair","media/stimuli/inanimate_011_right.png","inanimate","right","pair","pose_animacy","","","",""
"","","","","","html-keyboard-response","41","284146","0.0-41.0","SS1678233195456","62fe673463cda03362b2d4c3","6406d7f26dd5b7fc1e3377bd","6407ce4a2b2e52d02597e76e","1366","657","","1711","","f","","","<img src=""media/stimuli/inanimate_012_left.png"" class=""coveredImage test"" style = ""width:100px; height:100px; position:fixed; top:10%;    transform: translate(-50%, -50%);left:48%""></img><img src=""media/stimuli/inanimate_005_left.png"" class=""coveredImage test"" style = ""width:100px; height:100px;position:fixed; top:25%;        transform: translate(-50%, -50%);left:38%""></img><img src=""media/stimuli/animate_007_left.png"" class=""coveredImage test"" style = ""width:100px; height:100px;position:fixed; top:25%;        transform: translate(-50%, -50%);left:58%""></img><img src=""media/f.png""style = ""width:30px x; height:30px;position:fixed; top:43%;    transform: translate(-50%, -50%);left:40%""></img><img src=""media/j.png""style = ""width:30px; height:30px;position:fixed; top:43%;    transform: translate(-50%, -50%);left:60%""></img>","media/stimuli/inanimate_012_left.png","inanimate","left","single","media/stimuli/inanimate_005_left.png","inanimate","left","single","media/stimuli/animate_007_left.png","animate","left","single","identity_animacy","","","",""
"","","","","","html-keyboard-response","42","285117","0.0-42.0","SS1678233195456","62fe673463cda03362b2d4c3","6406d7f26dd5b7fc1e3377bd","6407ce4a2b2e52d02597e76e","1366","657","","956","","j","","","<img src=""media/stimuli/animate_009_right.png"" class=""coveredImage test"" style = ""width:100px; height:100px; position:fixed; top:10%;    transform: translate(-50%, -50%);left:44.5%""></img><img src=""media/stimuli/animate_009_right.png"" class=""coveredImage test"" style = ""width:100px; height:100px; position:fixed; top:10%;    transform: translate(-50%, -50%);left:51.5%""></img><img src=""media/stimuli/animate_011_right.png"" class=""coveredImage test"" style = ""width:100px; height:100px;position:fixed; top:25%;        transform: translate(-50%, -50%);left:34.5%""></img><img src=""media/stimuli/animate_011_right.png"" class=""coveredImage test"" style = ""width:100px; height:100px;position:fixed; top:25%;        transform: translate(-50%, -50%);left:41.5%""></img><img src=""media/stimuli/animate_009_right.png"" class=""coveredImage test"" style = ""width:100px; height:100px;position:fixed; top:25%;        transform: translate(-50%, -50%);left:58%""></img><img src=""media/f.png""style = ""width:30px x; height:30px;position:fixed; top:43%;    transform: translate(-50%, -50%);left:40%""></img><img src=""media/j.png""style = ""width:30px; height:30px;position:fixed; top:43%;    transform: translate(-50%, -50%);left:60%""></img>","media/stimuli/animate_009_right.png","animate","right","pair","media/stimuli/animate_011_right.png","animate","right","pair","media/stimuli/animate_009_right.png","animate","right","single","identity_number","","","",""
"","","","","","html-keyboard-response","43","285853","0.0-43.0","SS1678233195456","62fe673463cda03362b2d4c3","6406d7f26dd5b7fc1e3377bd","6407ce4a2b2e52d02597e76e","1366","657","","722","","f","","","<img src=""media/stimuli/inanimate_012_left.png"" class=""coveredImage test"" style = ""width:100px; height:100px; position:fixed; top:10%;    transform: translate(-50%, -50%);left:48%""></img><img src=""media/stimuli/inanimate_012_left.png"" class=""coveredImage test"" style = ""width:100px; height:100px;position:fixed; top:25%;        transform: translate(-50%, -50%);left:38%""></img><img src=""media/stimuli/animate_003_right.png"" class=""coveredImage test"" style = ""width:100px; height:100px;position:fixed; top:25%;        transform: translate(-50%, -50%);left:58%""></img><img src=""media/f.png""style = ""width:30px x; height:30px;position:fixed; top:43%;    transform: translate(-50%, -50%);left:40%""></img><img src=""media/j.png""style = ""width:30px; height:30px;position:fixed; top:43%;    transform: translate(-50%, -50%);left:60%""></img>","media/stimuli/inanimate_012_left.png","inanimate","left","single","media/stimuli/inanimate_012_left.png","inanimate","left","single","media/stimuli/animate_003_right.png","animate","right","single","pose_animacy","","","",""
"","","","","","html-keyboard-response","44","287292","0.0-44.0","SS1678233195456","62fe673463cda03362b2d4c3","6406d7f26dd5b7fc1e3377bd","6407ce4a2b2e52d02597e76e","1366","657","","1416","","f","","","<img src=""media/stimuli/inanimate_005_right.png"" class=""coveredImage test"" style = ""width:100px; height:100px; position:fixed; top:10%;    transform: translate(-50%, -50%);left:44.5%""></img><img src=""media/stimuli/inanimate_005_right.png"" class=""coveredImage test"" style = ""width:100px; height:100px; position:fixed; top:10%;    transform: translate(-50%, -50%);left:51.5%""></img><img src=""media/stimuli/inanimate_006_right.png"" class=""coveredImage test"" style = ""width:100px; height:100px;position:fixed; top:25%;        transform: translate(-50%, -50%);left:34.5%""></img><img src=""media/stimuli/inanimate_006_right.png"" class=""coveredImage test"" style = ""width:100px; height:100px;position:fixed; top:25%;        transform: translate(-50%, -50%);left:41.5%""></img><img src=""media/stimuli/animate_008_right.png"" class=""coveredImage test"" style = ""width:100px; height:100px;position:fixed; top:25%;        transform: translate(-50%, -50%);left:54.5%""></img><img src=""media/stimuli/animate_008_right.png"" class=""coveredImage test"" style = ""width:100px; height:100px;position:fixed; top:25%;        transform: translate(-50%, -50%);left:61.5%""></img><img src=""media/f.png""style = ""width:30px x; height:30px;position:fixed; top:43%;    transform: translate(-50%, -50%);left:40%""></img><img src=""media/j.png""style = ""width:30px; height:30px;position:fixed; top:43%;    transform: translate(-50%, -50%);left:60%""></img>","media/stimuli/inanimate_005_right.png","inanimate","right","pair","media/stimuli/inanimate_006_right.png","inanimate","right","pair","media/stimuli/animate_008_right.png","animate","right","pair","identity_animacy","","","",""
"","","","","","html-keyboard-response","45","288144","0.0-45.0","SS1678233195456","62fe673463cda03362b2d4c3","6406d7f26dd5b7fc1e3377bd","6407ce4a2b2e52d02597e76e","1366","657","","836","","f","","","<img src=""media/stimuli/animate_011_left.png"" class=""coveredImage test"" style = ""width:100px; height:100px; position:fixed; top:10%;    transform: translate(-50%, -50%);left:44.5%""></img><img src=""media/stimuli/animate_011_left.png"" class=""coveredImage test"" style = ""width:100px; height:100px; position:fixed; top:10%;    transform: translate(-50%, -50%);left:51.5%""></img><img src=""media/stimuli/animate_011_left.png"" class=""coveredImage test"" style = ""width:100px; height:100px;position:fixed; top:25%;        transform: translate(-50%, -50%);left:38%""></img><img src=""media/stimuli/inanimate_003_left.png"" class=""coveredImage test"" style = ""width:100px; height:100px;position:fixed; top:25%;        transform: translate(-50%, -50%);left:54.5%""></img><img src=""media/stimuli/inanimate_003_left.png"" class=""coveredImage test"" style = ""width:100px; height:100px;position:fixed; top:25%;        transform: translate(-50%, -50%);left:61.5%""></img><img src=""media/f.png""style = ""width:30px x; height:30px;position:fixed; top:43%;    transform: translate(-50%, -50%);left:40%""></img><img src=""media/j.png""style = ""width:30px; height:30px;position:fixed; top:43%;    transform: translate(-50%, -50%);left:60%""></img>","media/stimuli/animate_011_left.png","animate","left","pair","media/stimuli/animate_011_left.png","animate","left","single","media/stimuli/inanimate_003_left.png","inanimate","left","pair","number_animacy","","","",""
"","","","","","html-keyboard-response","46","288920","0.0-46.0","SS1678233195456","62fe673463cda03362b2d4c3","6406d7f26dd5b7fc1e3377bd","6407ce4a2b2e52d02597e76e","1366","657","","748","","f","","","<img src=""media/stimuli/inanimate_001_right.png"" class=""coveredImage test"" style = ""width:100px; height:100px; position:fixed; top:10%;    transform: translate(-50%, -50%);left:44.5%""></img><img src=""media/stimuli/inanimate_001_right.png"" class=""coveredImage test"" style = ""width:100px; height:100px; position:fixed; top:10%;    transform: translate(-50%, -50%);left:51.5%""></img><img src=""media/stimuli/inanimate_001_right.png"" class=""coveredImage test"" style = ""width:100px; height:100px;position:fixed; top:25%;        transform: translate(-50%, -50%);left:38%""></img><img src=""media/stimuli/inanimate_008_right.png"" class=""coveredImage test"" style = ""width:100px; height:100px;position:fixed; top:25%;        transform: translate(-50%, -50%);left:54.5%""></img><img src=""media/stimuli/inanimate_008_right.png"" class=""coveredImage test"" style = ""width:100px; height:100px;position:fixed; top:25%;        transform: translate(-50%, -50%);left:61.5%""></img><img src=""media/f.png""style = ""width:30px x; height:30px;position:fixed; top:43%;    transform: translate(-50%, -50%);left:40%""></img><img src=""media/j.png""style = ""width:30px; height:30px;position:fixed; top:43%;    transform: translate(-50%, -50%);left:60%""></img>","media/stimuli/inanimate_001_right.png","inanimate","right","pair","media/stimuli/inanimate_001_right.png","inanimate","right","single","media/stimuli/inanimate_008_right.png","inanimate","right","pair","number_identity","","","",""
"","","","","","html-keyboard-response","47","289590","0.0-47.0","SS1678233195456","62fe673463cda03362b2d4c3","6406d7f26dd5b7fc1e3377bd","6407ce4a2b2e52d02597e76e","1366","657","","656","","j","","","<img src=""media/stimuli/animate_002_left.png"" class=""coveredImage test"" style = ""width:100px; height:100px; position:fixed; top:10%;    transform: translate(-50%, -50%);left:44.5%""></img><img src=""media/stimuli/animate_002_left.png"" class=""coveredImage test"" style = ""width:100px; height:100px; position:fixed; top:10%;    transform: translate(-50%, -50%);left:51.5%""></img><img src=""media/stimuli/inanimate_007_right.png"" class=""coveredImage test"" style = ""width:100px; height:100px;position:fixed; top:25%;        transform: translate(-50%, -50%);left:34.5%""></img><img src=""media/stimuli/inanimate_007_right.png"" class=""coveredImage test"" style = ""width:100px; height:100px;position:fixed; top:25%;        transform: translate(-50%, -50%);left:41.5%""></img><img src=""media/stimuli/animate_002_left.png"" class=""coveredImage test"" style = ""width:100px; height:100px;position:fixed; top:25%;        transform: translate(-50%, -50%);left:54.5%""></img><img src=""media/stimuli/animate_002_left.png"" class=""coveredImage test"" style = ""width:100px; height:100px;position:fixed; top:25%;        transform: translate(-50%, -50%);left:61.5%""></img><img src=""media/f.png""style = ""width:30px x; height:30px;position:fixed; top:43%;    transform: translate(-50%, -50%);left:40%""></img><img src=""media/j.png""style = ""width:30px; height:30px;position:fixed; top:43%;    transform: translate(-50%, -50%);left:60%""></img>","media/stimuli/animate_002_left.png","animate","left","pair","media/stimuli/inanimate_007_right.png","inanimate","right","pair","media/stimuli/animate_002_left.png","animate","left","pair","animacy_pose","","","",""
"","","","","","html-keyboard-response","48","290328","0.0-48.0","SS1678233195456","62fe673463cda03362b2d4c3","6406d7f26dd5b7fc1e3377bd","6407ce4a2b2e52d02597e76e","1366","657","","718","","j","","","<img src=""media/stimuli/animate_012_left.png"" class=""coveredImage test"" style = ""width:100px; height:100px; position:fixed; top:10%;    transform: translate(-50%, -50%);left:48%""></img><img src=""media/stimuli/inanimate_005_right.png"" class=""coveredImage test"" style = ""width:100px; height:100px;position:fixed; top:25%;        transform: translate(-50%, -50%);left:38%""></img><img src=""media/stimuli/animate_012_left.png"" class=""coveredImage test"" style = ""width:100px; height:100px;position:fixed; top:25%;        transform: translate(-50%, -50%);left:58%""></img><img src=""media/f.png""style = ""width:30px x; height:30px;position:fixed; top:43%;    transform: translate(-50%, -50%);left:40%""></img><img src=""media/j.png""style = ""width:30px; height:30px;position:fixed; top:43%;    transform: translate(-50%, -50%);left:60%""></img>","media/stimuli/animate_012_left.png","animate","left","single","media/stimuli/inanimate_005_right.png","inanimate","right","single","media/stimuli/animate_012_left.png","animate","left","single","animacy_pose","","","",""
"","","","","","html-keyboard-response","49","291987","0.0-49.0","SS1678233195456","62fe673463cda03362b2d4c3","6406d7f26dd5b7fc1e3377bd","6407ce4a2b2e52d02597e76e","1366","657","","1645","","f","","","<img src=""media/stimuli/inanimate_009_left.png"" class=""coveredImage test"" style = ""width:100px; height:100px; position:fixed; top:10%;    transform: translate(-50%, -50%);left:48%""></img><img src=""media/stimuli/inanimate_005_left.png"" class=""coveredImage test"" style = ""width:100px; height:100px;position:fixed; top:25%;        transform: translate(-50%, -50%);left:38%""></img><img src=""media/stimuli/animate_001_left.png"" class=""coveredImage test"" style = ""width:100px; height:100px;position:fixed; top:25%;        transform: translate(-50%, -50%);left:58%""></img><img src=""media/f.png""style = ""width:30px x; height:30px;position:fixed; top:43%;    transform: translate(-50%, -50%);left:40%""></img><img src=""media/j.png""style = ""width:30px; height:30px;position:fixed; top:43%;    transform: translate(-50%, -50%);left:60%""></img>","media/stimuli/inanimate_009_left.png","inanimate","left","single","media/stimuli/inanimate_005_left.png","inanimate","left","single","media/stimuli/animate_001_left.png","animate","left","single","identity_animacy","","","",""
"","","","","","html-keyboard-response","50","292728","0.0-50.0","SS1678233195456","62fe673463cda03362b2d4c3","6406d7f26dd5b7fc1e3377bd","6407ce4a2b2e52d02597e76e","1366","657","","727","","enter","","","","","","","","","","","","","","","","","","","",""
"","","","","","html-keyboard-response","51","294350","0.0-51.0","SS1678233195456","62fe673463cda03362b2d4c3","6406d7f26dd5b7fc1e3377bd","6407ce4a2b2e52d02597e76e","1366","657","","1610","","j","","","<img src=""media/stimuli/animate_007_left.png"" class=""coveredImage test"" style = ""width:100px; height:100px; position:fixed; top:10%;    transform: translate(-50%, -50%);left:48%""></img><img src=""media/stimuli/inanimate_004_left.png"" class=""coveredImage test"" style = ""width:100px; height:100px;position:fixed; top:25%;        transform: translate(-50%, -50%);left:38%""></img><img src=""media/stimuli/animate_010_left.png"" class=""coveredImage test"" style = ""width:100px; height:100px;position:fixed; top:25%;        transform: translate(-50%, -50%);left:58%""></img><img src=""media/f.png""style = ""width:30px x; height:30px;position:fixed; top:43%;    transform: translate(-50%, -50%);left:40%""></img><img src=""media/j.png""style = ""width:30px; height:30px;position:fixed; top:43%;    transform: translate(-50%, -50%);left:60%""></img>","media/stimuli/animate_007_left.png","animate","left","single","media/stimuli/inanimate_004_left.png","inanimate","left","single","media/stimuli/animate_010_left.png","animate","left","single","animacy_identity","","","",""
"","","","","","html-keyboard-response","52","295028","0.0-52.0","SS1678233195456","62fe673463cda03362b2d4c3","6406d7f26dd5b7fc1e3377bd","6407ce4a2b2e52d02597e76e","1366","657","","656","","f","","","<img src=""media/stimuli/animate_008_left.png"" class=""coveredImage test"" style = ""width:100px; height:100px; position:fixed; top:10%;    transform: translate(-50%, -50%);left:44.5%""></img><img src=""media/stimuli/animate_008_left.png"" class=""coveredImage test"" style = ""width:100px; height:100px; position:fixed; top:10%;    transform: translate(-50%, -50%);left:51.5%""></img><img src=""media/stimuli/inanimate_011_right.png"" class=""coveredImage test"" style = ""width:100px; height:100px;position:fixed; top:25%;        transform: translate(-50%, -50%);left:34.5%""></img><img src=""media/stimuli/inanimate_011_right.png"" class=""coveredImage test"" style = ""width:100px; height:100px;position:fixed; top:25%;        transform: translate(-50%, -50%);left:41.5%""></img><img src=""media/stimuli/animate_008_left.png"" class=""coveredImage test"" style = ""width:100px; height:100px;position:fixed; top:25%;        transform: translate(-50%, -50%);left:54.5%""></img><img src=""media/stimuli/animate_008_left.png"" class=""coveredImage test"" style = ""width:100px; height:100px;position:fixed; top:25%;        transform: translate(-50%, -50%);left:61.5%""></img><img src=""media/f.png""style = ""width:30px x; height:30px;position:fixed; top:43%;    transform: translate(-50%, -50%);left:40%""></img><img src=""media/j.png""style = ""width:30px; height:30px;position:fixed; top:43%;    transform: translate(-50%, -50%);left:60%""></img>","media/stimuli/animate_008_left.png","animate","left","pair","media/stimuli/inanimate_011_right.png","inanimate","right","pair","media/stimuli/animate_008_left.png","animate","left","pair","animacy_pose","","","",""
"","","","","","html-keyboard-response","53","295866","0.0-53.0","SS1678233195456","62fe673463cda03362b2d4c3","6406d7f26dd5b7fc1e3377bd","6407ce4a2b2e52d02597e76e","1366","657","","822","","j","","","<img src=""media/stimuli/animate_010_right.png"" class=""coveredImage test"" style = ""width:100px; height:100px; position:fixed; top:10%;    transform: translate(-50%, -50%);left:44.5%""></img><img src=""media/stimuli/animate_010_right.png"" class=""coveredImage test"" style = ""width:100px; height:100px; position:fixed; top:10%;    transform: translate(-50%, -50%);left:51.5%""></img><img src=""media/stimuli/animate_012_right.png"" class=""coveredImage test"" style = ""width:100px; height:100px;position:fixed; top:25%;        transform: translate(-50%, -50%);left:34.5%""></img><img src=""media/stimuli/animate_012_right.png"" class=""coveredImage test"" style = ""width:100px; height:100px;position:fixed; top:25%;        transform: translate(-50%, -50%);left:41.5%""></img><img src=""media/stimuli/animate_010_right.png"" class=""coveredImage test"" style = ""width:100px; height:100px;position:fixed; top:25%;        transform: translate(-50%, -50%);left:58%""></img><img src=""media/f.png""style = ""width:30px x; height:30px;position:fixed; top:43%;    transform: translate(-50%, -50%);left:40%""></img><img src=""media/j.png""style = ""width:30px; height:30px;position:fixed; top:43%;    transform: translate(-50%, -50%);left:60%""></img>","media/stimuli/animate_010_right.png","animate","right","pair","media/stimuli/animate_012_right.png","animate","right","pair","media/stimuli/animate_010_right.png","animate","right","single","identity_number","","","",""
"","","","","","html-keyboard-response","54","297714","0.0-54.0","SS1678233195456","62fe673463cda03362b2d4c3","6406d7f26dd5b7fc1e3377bd","6407ce4a2b2e52d02597e76e","1366","657","","1831","","f","","","<img src=""media/stimuli/animate_004_left.png"" class=""coveredImage test"" style = ""width:100px; height:100px; position:fixed; top:10%;    transform: translate(-50%, -50%);left:44.5%""></img><img src=""media/stimuli/animate_004_left.png"" class=""coveredImage test"" style = ""width:100px; height:100px; position:fixed; top:10%;    transform: translate(-50%, -50%);left:51.5%""></img><img src=""media/stimuli/animate_004_left.png"" class=""coveredImage test"" style = ""width:100px; height:100px;position:fixed; top:25%;        transform: translate(-50%, -50%);left:38%""></img><img src=""media/stimuli/animate_004_right.png"" class=""coveredImage test"" style = ""width:100px; height:100px;position:fixed; top:25%;        transform: translate(-50%, -50%);left:54.5%""></img><img src=""media/stimuli/animate_004_right.png"" class=""coveredImage test"" style = ""width:100px; height:100px;position:fixed; top:25%;        transform: translate(-50%, -50%);left:61.5%""></img><img src=""media/f.png""style = ""width:30px x; height:30px;position:fixed; top:43%;    transform: translate(-50%, -50%);left:40%""></img><img src=""media/j.png""style = ""width:30px; height:30px;position:fixed; top:43%;    transform: translate(-50%, -50%);left:60%""></img>","media/stimuli/animate_004_left.png","animate","left","pair","media/stimuli/animate_004_left.png","animate","left","single","media/stimuli/animate_004_right.png","animate","right","pair","number_pose","","","",""
"","","","","","html-keyboard-response","55","298752","0.0-55.0","SS1678233195456","62fe673463cda03362b2d4c3","6406d7f26dd5b7fc1e3377bd","6407ce4a2b2e52d02597e76e","1366","657","","1009","","f","","","<img src=""media/stimuli/inanimate_001_right.png"" class=""coveredImage test"" style = ""width:100px; height:100px; position:fixed; top:10%;    transform: translate(-50%, -50%);left:44.5%""></img><img src=""media/stimuli/inanimate_001_right.png"" class=""coveredImage test"" style = ""width:100px; height:100px; position:fixed; top:10%;    transform: translate(-50%, -50%);left:51.5%""></img><img src=""media/stimuli/inanimate_003_right.png"" class=""coveredImage test"" style = ""width:100px; height:100px;position:fixed; top:25%;        transform: translate(-50%, -50%);left:34.5%""></img><img src=""media/stimuli/inanimate_003_right.png"" class=""coveredImage test"" style = ""width:100px; height:100px;position:fixed; top:25%;        transform: translate(-50%, -50%);left:41.5%""></img><img src=""media/stimuli/animate_006_right.png"" class=""coveredImage test"" style = ""width:100px; height:100px;position:fixed; top:25%;        transform: translate(-50%, -50%);left:54.5%""></img><img src=""media/stimuli/animate_006_right.png"" class=""coveredImage test"" style = ""width:100px; height:100px;position:fixed; top:25%;        transform: translate(-50%, -50%);left:61.5%""></img><img src=""media/f.png""style = ""width:30px x; height:30px;position:fixed; top:43%;    transform: translate(-50%, -50%);left:40%""></img><img src=""media/j.png""style = ""width:30px; height:30px;position:fixed; top:43%;    transform: translate(-50%, -50%);left:60%""></img>","media/stimuli/inanimate_001_right.png","inanimate","right","pair","media/stimuli/inanimate_003_right.png","inanimate","right","pair","media/stimuli/animate_006_right.png","animate","right","pair","identity_animacy","","","",""
"","","","","","html-keyboard-response","56","299827","0.0-56.0","SS1678233195456","62fe673463cda03362b2d4c3","6406d7f26dd5b7fc1e3377bd","6407ce4a2b2e52d02597e76e","1366","657","","1052","","j","","","<img src=""media/stimuli/inanimate_003_left.png"" class=""coveredImage test"" style = ""width:100px; height:100px; position:fixed; top:10%;    transform: translate(-50%, -50%);left:44.5%""></img><img src=""media/stimuli/inanimate_003_left.png"" class=""coveredImage test"" style = ""width:100px; height:100px; position:fixed; top:10%;    transform: translate(-50%, -50%);left:51.5%""></img><img src=""media/stimuli/animate_006_left.png"" class=""coveredImage test"" style = ""width:100px; height:100px;position:fixed; top:25%;        transform: translate(-50%, -50%);left:34.5%""></img><img src=""media/stimuli/animate_006_left.png"" class=""coveredImage test"" style = ""width:100px; height:100px;position:fixed; top:25%;        transform: translate(-50%, -50%);left:41.5%""></img><img src=""media/stimuli/inanimate_003_left.png"" class=""coveredImage test"" style = ""width:100px; height:100px;position:fixed; top:25%;        transform: translate(-50%, -50%);left:58%""></img><img src=""media/f.png""style = ""width:30px x; height:30px;position:fixed; top:43%;    transform: translate(-50%, -50%);left:40%""></img><img src=""media/j.png""style = ""width:30px; height:30px;position:fixed; top:43%;    transform: translate(-50%, -50%);left:60%""></img>","media/stimuli/inanimate_003_left.png","inanimate","left","pair","media/stimuli/animate_006_left.png","animate","left","pair","media/stimuli/inanimate_003_left.png","inanimate","left","single","animacy_number","","","",""
"","","","","","html-keyboard-response","57","301581","0.0-57.0","SS1678233195456","62fe673463cda03362b2d4c3","6406d7f26dd5b7fc1e3377bd","6407ce4a2b2e52d02597e76e","1366","657","","1732","","j","","","<img src=""media/stimuli/animate_002_left.png"" class=""coveredImage test"" style = ""width:100px; height:100px; position:fixed; top:10%;    transform: translate(-50%, -50%);left:44.5%""></img><img src=""media/stimuli/animate_002_left.png"" class=""coveredImage test"" style = ""width:100px; height:100px; position:fixed; top:10%;    transform: translate(-50%, -50%);left:51.5%""></img><img src=""media/stimuli/animate_002_right.png"" class=""coveredImage test"" style = ""width:100px; height:100px;position:fixed; top:25%;        transform: translate(-50%, -50%);left:34.5%""></img><img src=""media/stimuli/animate_002_right.png"" class=""coveredImage test"" style = ""width:100px; height:100px;position:fixed; top:25%;        transform: translate(-50%, -50%);left:41.5%""></img><img src=""media/stimuli/animate_002_left.png"" class=""coveredImage test"" style = ""width:100px; height:100px;position:fixed; top:25%;        transform: translate(-50%, -50%);left:58%""></img><img src=""media/f.png""style = ""width:30px x; height:30px;position:fixed; top:43%;    transform: translate(-50%, -50%);left:40%""></img><img src=""media/j.png""style = ""width:30px; height:30px;position:fixed; top:43%;    transform: translate(-50%, -50%);left:60%""></img>","media/stimuli/animate_002_left.png","animate","left","pair","media/stimuli/animate_002_right.png","animate","right","pair","media/stimuli/animate_002_left.png","animate","left","single","pose_number","","","",""
"","","","","","html-keyboard-response","58","303028","0.0-58.0","SS1678233195456","62fe673463cda03362b2d4c3","6406d7f26dd5b7fc1e3377bd","6407ce4a2b2e52d02597e76e","1366","657","","1425","","f","","","<img src=""media/stimuli/animate_001_left.png"" class=""coveredImage test"" style = ""width:100px; height:100px; position:fixed; top:10%;    transform: translate(-50%, -50%);left:48%""></img><img src=""media/stimuli/animate_001_left.png"" class=""coveredImage test"" style = ""width:100px; height:100px;position:fixed; top:25%;        transform: translate(-50%, -50%);left:34.5%""></img><img src=""media/stimuli/animate_001_left.png"" class=""coveredImage test"" style = ""width:100px; height:100px;position:fixed; top:25%;        transform: translate(-50%, -50%);left:41.5%""></img><img src=""media/stimuli/inanimate_007_right.png"" class=""coveredImage test"" style = ""width:100px; height:100px;position:fixed; top:25%;        transform: translate(-50%, -50%);left:54.5%""></img><img src=""media/stimuli/inanimate_007_right.png"" class=""coveredImage test"" style = ""width:100px; height:100px;position:fixed; top:25%;        transform: translate(-50%, -50%);left:61.5%""></img><img src=""media/f.png""style = ""width:30px x; height:30px;position:fixed; top:43%;    transform: translate(-50%, -50%);left:40%""></img><img src=""media/j.png""style = ""width:30px; height:30px;position:fixed; top:43%;    transform: translate(-50%, -50%);left:60%""></img>","media/stimuli/animate_001_left.png","animate","left","single","media/stimuli/animate_001_left.png","animate","left","pair","media/stimuli/inanimate_007_right.png","inanimate","right","pair","pose_animacy","","","",""
"","","","","","html-keyboard-response","59","305081","0.0-59.0","SS1678233195456","62fe673463cda03362b2d4c3","6406d7f26dd5b7fc1e3377bd","6407ce4a2b2e52d02597e76e","1366","657","","2028","","j","","","<img src=""media/stimuli/animate_009_right.png"" class=""coveredImage test"" style = ""width:100px; height:100px; position:fixed; top:10%;    transform: translate(-50%, -50%);left:44.5%""></img><img src=""media/stimuli/animate_009_right.png"" class=""coveredImage test"" style = ""width:100px; height:100px; position:fixed; top:10%;    transform: translate(-50%, -50%);left:51.5%""></img><img src=""media/stimuli/inanimate_001_right.png"" class=""coveredImage test"" style = ""width:100px; height:100px;position:fixed; top:25%;        transform: translate(-50%, -50%);left:34.5%""></img><img src=""media/stimuli/inanimate_001_right.png"" class=""coveredImage test"" style = ""width:100px; height:100px;position:fixed; top:25%;        transform: translate(-50%, -50%);left:41.5%""></img><img src=""media/stimuli/animate_004_right.png"" class=""coveredImage test"" style = ""width:100px; height:100px;position:fixed; top:25%;        transform: translate(-50%, -50%);left:54.5%""></img><img src=""media/stimuli/animate_004_right.png"" class=""coveredImage test"" style = ""width:100px; height:100px;position:fixed; top:25%;        transform: translate(-50%, -50%);left:61.5%""></img><img src=""media/f.png""style = ""width:30px x; height:30px;position:fixed; top:43%;    transform: translate(-50%, -50%);left:40%""></img><img src=""media/j.png""style = ""width:30px; height:30px;position:fixed; top:43%;    transform: translate(-50%, -50%);left:60%""></img>","media/stimuli/animate_009_right.png","animate","right","pair","media/stimuli/inanimate_001_right.png","inanimate","right","pair","media/stimuli/animate_004_right.png","animate","right","pair","animacy_identity","","","",""
"","","","","","html-keyboard-response","60","305793","0.0-60.0","SS1678233195456","62fe673463cda03362b2d4c3","6406d7f26dd5b7fc1e3377bd","6407ce4a2b2e52d02597e76e","1366","657","","694","","f","","","<img src=""media/stimuli/inanimate_009_right.png"" class=""coveredImage test"" style = ""width:100px; height:100px; position:fixed; top:10%;    transform: translate(-50%, -50%);left:44.5%""></img><img src=""media/stimuli/inanimate_009_right.png"" class=""coveredImage test"" style = ""width:100px; height:100px; position:fixed; top:10%;    transform: translate(-50%, -50%);left:51.5%""></img><img src=""media/stimuli/inanimate_009_left.png"" class=""coveredImage test"" style = ""width:100px; height:100px;position:fixed; top:25%;        transform: translate(-50%, -50%);left:34.5%""></img><img src=""media/stimuli/inanimate_009_left.png"" class=""coveredImage test"" style = ""width:100px; height:100px;position:fixed; top:25%;        transform: translate(-50%, -50%);left:41.5%""></img><img src=""media/stimuli/animate_009_right.png"" class=""coveredImage test"" style = ""width:100px; height:100px;position:fixed; top:25%;        transform: translate(-50%, -50%);left:54.5%""></img><img src=""media/stimuli/animate_009_right.png"" class=""coveredImage test"" style = ""width:100px; height:100px;position:fixed; top:25%;        transform: translate(-50%, -50%);left:61.5%""></img><img src=""media/f.png""style = ""width:30px x; height:30px;position:fixed; top:43%;    transform: translate(-50%, -50%);left:40%""></img><img src=""media/j.png""style = ""width:30px; height:30px;position:fixed; top:43%;    transform: translate(-50%, -50%);left:60%""></img>","media/stimuli/inanimate_009_right.png","inanimate","right","pair","media/stimuli/inanimate_009_left.png","inanimate","left","pair","media/stimuli/animate_009_right.png","animate","right","pair","pose_animacy","","","",""
"","","","","","html-keyboard-response","61","306958","0.0-61.0","SS1678233195456","62fe673463cda03362b2d4c3","6406d7f26dd5b7fc1e3377bd","6407ce4a2b2e52d02597e76e","1366","657","","1140","","f","","","<img src=""media/stimuli/animate_009_right.png"" class=""coveredImage test"" style = ""width:100px; height:100px; position:fixed; top:10%;    transform: translate(-50%, -50%);left:44.5%""></img><img src=""media/stimuli/animate_009_right.png"" class=""coveredImage test"" style = ""width:100px; height:100px; position:fixed; top:10%;    transform: translate(-50%, -50%);left:51.5%""></img><img src=""media/stimuli/animate_005_right.png"" class=""coveredImage test"" style = ""width:100px; height:100px;position:fixed; top:25%;        transform: translate(-50%, -50%);left:34.5%""></img><img src=""media/stimuli/animate_005_right.png"" class=""coveredImage test"" style = ""width:100px; height:100px;position:fixed; top:25%;        transform: translate(-50%, -50%);left:41.5%""></img><img src=""media/stimuli/inanimate_002_right.png"" class=""coveredImage test"" style = ""width:100px; height:100px;position:fixed; top:25%;        transform: translate(-50%, -50%);left:54.5%""></img><img src=""media/stimuli/inanimate_002_right.png"" class=""coveredImage test"" style = ""width:100px; height:100px;position:fixed; top:25%;        transform: translate(-50%, -50%);left:61.5%""></img><img src=""media/f.png""style = ""width:30px x; height:30px;position:fixed; top:43%;    transform: translate(-50%, -50%);left:40%""></img><img src=""media/j.png""style = ""width:30px; height:30px;position:fixed; top:43%;    transform: translate(-50%, -50%);left:60%""></img>","media/stimuli/animate_009_right.png","animate","right","pair","media/stimuli/animate_005_right.png","animate","right","pair","media/stimuli/inanimate_002_right.png","inanimate","right","pair","identity_animacy","","","",""
"","","","","","html-keyboard-response","62","307587","0.0-62.0","SS1678233195456","62fe673463cda03362b2d4c3","6406d7f26dd5b7fc1e3377bd","6407ce4a2b2e52d02597e76e","1366","657","","615","","j","","","<img src=""media/stimuli/animate_002_right.png"" class=""coveredImage test"" style = ""width:100px; height:100px; position:fixed; top:10%;    transform: translate(-50%, -50%);left:44.5%""></img><img src=""media/stimuli/animate_002_right.png"" class=""coveredImage test"" style = ""width:100px; height:100px; position:fixed; top:10%;    transform: translate(-50%, -50%);left:51.5%""></img><img src=""media/stimuli/animate_010_right.png"" class=""coveredImage test"" style = ""width:100px; height:100px;position:fixed; top:25%;        transform: translate(-50%, -50%);left:34.5%""></img><img src=""media/stimuli/animate_010_right.png"" class=""coveredImage test"" style = ""width:100px; height:100px;position:fixed; top:25%;        transform: translate(-50%, -50%);left:41.5%""></img><img src=""media/stimuli/animate_002_left.png"" class=""coveredImage test"" style = ""width:100px; height:100px;position:fixed; top:25%;        transform: translate(-50%, -50%);left:54.5%""></img><img src=""media/stimuli/animate_002_left.png"" class=""coveredImage test"" style = ""width:100px; height:100px;position:fixed; top:25%;        transform: translate(-50%, -50%);left:61.5%""></img><img src=""media/f.png""style = ""width:30px x; height:30px;position:fixed; top:43%;    transform: translate(-50%, -50%);left:40%""></img><img src=""media/j.png""style = ""width:30px; height:30px;position:fixed; top:43%;    transform: translate(-50%, -50%);left:60%""></img>","media/stimuli/animate_002_right.png","animate","right","pair","media/stimuli/animate_010_right.png","animate","right","pair","media/stimuli/animate_002_left.png","animate","left","pair","identity_pose","","","",""
"","","","","","html-keyboard-response","63","308611","0.0-63.0","SS1678233195456","62fe673463cda03362b2d4c3","6406d7f26dd5b7fc1e3377bd","6407ce4a2b2e52d02597e76e","1366","657","","1009","","enter","","","","","","","","","","","","","","","","","","","",""
"","","","","","survey-likert","64","314016","0.0-64.0","SS1678233195456","62fe673463cda03362b2d4c3","6406d7f26dd5b7fc1e3377bd","6407ce4a2b2e52d02597e76e","1366","657","","5385","","{""Q0"":4}","[0]","complexity","","","","","","","","","","","","","","","media/stimuli/animate_004_right.png","animate","pair","right"
"","","","","","survey-likert","65","317606","0.0-65.0","SS1678233195456","62fe673463cda03362b2d4c3","6406d7f26dd5b7fc1e3377bd","6407ce4a2b2e52d02597e76e","1366","657","","3520","","{""Q0"":1}","[0]","complexity","","","","","","","","","","","","","","","media/stimuli/inanimate_002_left.png","inanimate","pair","left"
"","","","","","survey-likert","66","319840","0.0-66.0","SS1678233195456","62fe673463cda03362b2d4c3","6406d7f26dd5b7fc1e3377bd","6407ce4a2b2e52d02597e76e","1366","657","","2199","","{""Q0"":1}","[0]","complexity","","","","","","","","","","","","","","","media/stimuli/inanimate_003_left.png","inanimate","single","left"
"","","","","","survey-likert","67","324585","0.0-67.0","SS1678233195456","62fe673463cda03362b2d4c3","6406d7f26dd5b7fc1e3377bd","6407ce4a2b2e52d02597e76e","1366","657","","4706","","{""Q0"":3}","[0]","complexity","","","","","","","","","","","","","","","media/stimuli/inanimate_007_left.png","inanimate","pair","left"
"","","","","","survey-likert","68","327299","0.0-68.0","SS1678233195456","62fe673463cda03362b2d4c3","6406d7f26dd5b7fc1e3377bd","6407ce4a2b2e52d02597e76e","1366","657","","2667","","{""Q0"":1}","[0]","complexity","","","","","","","","","","","","","","","media/stimuli/inanimate_003_left.png","inanimate","pair","left"
"","","","","","survey-likert","69","332137","0.0-69.0","SS1678233195456","62fe673463cda03362b2d4c3","6406d7f26dd5b7fc1e3377bd","6407ce4a2b2e52d02597e76e","1366","657","","4754","","{""Q0"":4}","[0]","complexity","","","","","","","","","","","","","","","media/stimuli/animate_011_right.png","animate","pair","right"
"","","","","","survey-likert","70","334278","0.0-70.0","SS1678233195456","62fe673463cda03362b2d4c3","6406d7f26dd5b7fc1e3377bd","6407ce4a2b2e52d02597e76e","1366","657","","2102","","{""Q0"":2}","[0]","complexity","","","","","","","","","","","","","","","media/stimuli/inanimate_011_right.png","inanimate","pair","right"
"","","","","","survey-likert","71","338423","0.0-71.0","SS1678233195456","62fe673463cda03362b2d4c3","6406d7f26dd5b7fc1e3377bd","6407ce4a2b2e52d02597e76e","1366","657","","4102","","{""Q0"":4}","[0]","complexity","","","","","","","","","","","","","","","media/stimuli/animate_002_left.png","animate","pair","left"
"","","","","","survey-likert","72","340849","0.0-72.0","SS1678233195456","62fe673463cda03362b2d4c3","6406d7f26dd5b7fc1e3377bd","6407ce4a2b2e52d02597e76e","1366","657","","2383","","{""Q0"":4}","[0]","complexity","","","","","","","","","","","","","","","media/stimuli/animate_005_left.png","animate","pair","left"
"","","","","","survey-likert","73","343282","0.0-73.0","SS1678233195456","62fe673463cda03362b2d4c3","6406d7f26dd5b7fc1e3377bd","6407ce4a2b2e52d02597e76e","1366","657","","2373","","{""Q0"":1}","[0]","complexity","","","","","","","","","","","","","","","media/stimuli/inanimate_012_left.png","inanimate","single","left"
"","","","","","survey-likert","74","345860","0.0-74.0","SS1678233195456","62fe673463cda03362b2d4c3","6406d7f26dd5b7fc1e3377bd","6407ce4a2b2e52d02597e76e","1366","657","","2528","","{""Q0"":2}","[0]","complexity","","","","","","","","","","","","","","","media/stimuli/inanimate_007_right.png","inanimate","pair","right"
"","","","","","survey-likert","75","348324","0.0-75.0","SS1678233195456","62fe673463cda03362b2d4c3","6406d7f26dd5b7fc1e3377bd","6407ce4a2b2e52d02597e76e","1366","657","","2408","","{""Q0"":4}","[0]","complexity","","","","","","","","","","","","","","","media/stimuli/animate_006_left.png","animate","single","left"
"","","","","","html-keyboard-response","76","378773","0.0-76.0","SS1678233195456","62fe673463cda03362b2d4c3","6406d7f26dd5b7fc1e3377bd","6407ce4a2b2e52d02597e76e","1366","657","","30412","","enter","","","","","","","","","","","","","","","","","","","",""
"","","","","","html-keyboard-response","77","380666","0.0-77.0","SS1678233195456","62fe673463cda03362b2d4c3","6406d7f26dd5b7fc1e3377bd","6407ce4a2b2e52d02597e76e","1366","657","","1868","","j","","","<img src=""media/stimuli/inanimate_002_left.png"" class=""coveredImage test"" style = ""width:100px; height:100px; position:fixed; top:10%;    transform: translate(-50%, -50%);left:48%""></img><img src=""media/stimuli/animate_010_left.png"" class=""coveredImage test"" style = ""width:100px; height:100px;position:fixed; top:25%;        transform: translate(-50%, -50%);left:38%""></img><img src=""media/stimuli/inanimate_011_left.png"" class=""coveredImage test"" style = ""width:100px; height:100px;position:fixed; top:25%;        transform: translate(-50%, -50%);left:58%""></img><img src=""media/f.png""style = ""width:30px x; height:30px;position:fixed; top:43%;    transform: translate(-50%, -50%);left:40%""></img><img src=""media/j.png""style = ""width:30px; height:30px;position:fixed; top:43%;    transform: translate(-50%, -50%);left:60%""></img>","media/stimuli/inanimate_002_left.png","inanimate","left","single","media/stimuli/animate_010_left.png","animate","left","single","media/stimuli/inanimate_011_left.png","inanimate","left","single","animacy_identity","","","",""
"","","","","","html-keyboard-response","78","381352","0.0-78.0","SS1678233195456","62fe673463cda03362b2d4c3","6406d7f26dd5b7fc1e3377bd","6407ce4a2b2e52d02597e76e","1366","657","","667","","j","","","<img src=""media/stimuli/animate_011_left.png"" class=""coveredImage test"" style = ""width:100px; height:100px; position:fixed; top:10%;    transform: translate(-50%, -50%);left:44.5%""></img><img src=""media/stimuli/animate_011_left.png"" class=""coveredImage test"" style = ""width:100px; height:100px; position:fixed; top:10%;    transform: translate(-50%, -50%);left:51.5%""></img><img src=""media/stimuli/inanimate_012_right.png"" class=""coveredImage test"" style = ""width:100px; height:100px;position:fixed; top:25%;        transform: translate(-50%, -50%);left:38%""></img><img src=""media/stimuli/animate_011_left.png"" class=""coveredImage test"" style = ""width:100px; height:100px;position:fixed; top:25%;        transform: translate(-50%, -50%);left:58%""></img><img src=""media/f.png""style = ""width:30px x; height:30px;position:fixed; top:43%;    transform: translate(-50%, -50%);left:40%""></img><img src=""media/j.png""style = ""width:30px; height:30px;position:fixed; top:43%;    transform: translate(-50%, -50%);left:60%""></img>","media/stimuli/animate_011_left.png","animate","left","pair","media/stimuli/inanimate_012_right.png","inanimate","right","single","media/stimuli/animate_011_left.png","animate","left","single","animacy_pose","","","",""
"","","","","","html-keyboard-response","79","381901","0.0-79.0","SS1678233195456","62fe673463cda03362b2d4c3","6406d7f26dd5b7fc1e3377bd","6407ce4a2b2e52d02597e76e","1366","657","","530","","j","","","<img src=""media/stimuli/animate_012_left.png"" class=""coveredImage test"" style = ""width:100px; height:100px; position:fixed; top:10%;    transform: translate(-50%, -50%);left:48%""></img><img src=""media/stimuli/inanimate_012_right.png"" class=""coveredImage test"" style = ""width:100px; height:100px;position:fixed; top:25%;        transform: translate(-50%, -50%);left:38%""></img><img src=""media/stimuli/animate_012_left.png"" class=""coveredImage test"" style = ""width:100px; height:100px;position:fixed; top:25%;        transform: translate(-50%, -50%);left:58%""></img><img src=""media/f.png""style = ""width:30px x; height:30px;position:fixed; top:43%;    transform: translate(-50%, -50%);left:40%""></img><img src=""media/j.png""style = ""width:30px; height:30px;position:fixed; top:43%;    transform: translate(-50%, -50%);left:60%""></img>","media/stimuli/animate_012_left.png","animate","left","single","media/stimuli/inanimate_012_right.png","inanimate","right","single","media/stimuli/animate_012_left.png","animate","left","single","animacy_pose","","","",""
"","","","","","html-keyboard-response","80","382627","0.0-80.0","SS1678233195456","62fe673463cda03362b2d4c3","6406d7f26dd5b7fc1e3377bd","6407ce4a2b2e52d02597e76e","1366","657","","701","","j","","","<img src=""media/stimuli/inanimate_009_left.png"" class=""coveredImage test"" style = ""width:100px; height:100px; position:fixed; top:10%;    transform: translate(-50%, -50%);left:48%""></img><img src=""media/stimuli/inanimate_011_left.png"" class=""coveredImage test"" style = ""width:100px; height:100px;position:fixed; top:25%;        transform: translate(-50%, -50%);left:38%""></img><img src=""media/stimuli/inanimate_009_left.png"" class=""coveredImage test"" style = ""width:100px; height:100px;position:fixed; top:25%;        transform: translate(-50%, -50%);left:54.5%""></img><img src=""media/stimuli/inanimate_009_left.png"" class=""coveredImage test"" style = ""width:100px; height:100px;position:fixed; top:25%;        transform: translate(-50%, -50%);left:61.5%""></img><img src=""media/f.png""style = ""width:30px x; height:30px;position:fixed; top:43%;    transform: translate(-50%, -50%);left:40%""></img><img src=""media/j.png""style = ""width:30px; height:30px;position:fixed; top:43%;    transform: translate(-50%, -50%);left:60%""></img>","media/stimuli/inanimate_009_left.png","inanimate","left","single","media/stimuli/inanimate_011_left.png","inanimate","left","single","media/stimuli/inanimate_009_left.png","inanimate","left","pair","identity_number","","","",""
"","","","","","html-keyboard-response","81","384584","0.0-81.0","SS1678233195456","62fe673463cda03362b2d4c3","6406d7f26dd5b7fc1e3377bd","6407ce4a2b2e52d02597e76e","1366","657","","1926","","j","","","<img src=""media/stimuli/animate_009_right.png"" class=""coveredImage test"" style = ""width:100px; height:100px; position:fixed; top:10%;    transform: translate(-50%, -50%);left:44.5%""></img><img src=""media/stimuli/animate_009_right.png"" class=""coveredImage test"" style = ""width:100px; height:100px; position:fixed; top:10%;    transform: translate(-50%, -50%);left:51.5%""></img><img src=""media/stimuli/animate_010_right.png"" class=""coveredImage test"" style = ""width:100px; height:100px;position:fixed; top:25%;        transform: translate(-50%, -50%);left:34.5%""></img><img src=""media/stimuli/animate_010_right.png"" class=""coveredImage test"" style = ""width:100px; height:100px;position:fixed; top:25%;        transform: translate(-50%, -50%);left:41.5%""></img><img src=""media/stimuli/animate_009_left.png"" class=""coveredImage test"" style = ""width:100px; height:100px;position:fixed; top:25%;        transform: translate(-50%, -50%);left:54.5%""></img><img src=""media/stimuli/animate_009_left.png"" class=""coveredImage test"" style = ""width:100px; height:100px;position:fixed; top:25%;        transform: translate(-50%, -50%);left:61.5%""></img><img src=""media/f.png""style = ""width:30px x; height:30px;position:fixed; top:43%;    transform: translate(-50%, -50%);left:40%""></img><img src=""media/j.png""style = ""width:30px; height:30px;position:fixed; top:43%;    transform: translate(-50%, -50%);left:60%""></img>","media/stimuli/animate_009_right.png","animate","right","pair","media/stimuli/animate_010_right.png","animate","right","pair","media/stimuli/animate_009_left.png","animate","left","pair","identity_pose","","","",""
