"success","timeout","failed_images","failed_audio","failed_video","trial_type","trial_index","time_elapsed","internal_node_id","subject","prolific_id","study","session","window_width","window_height","view_history","rt","stimulus_type","response","question_order","rating_type","stimulus","target","target_animacy","target_pose","target_number","left","left_animacy","left_pose","left_number","right","right_animacy","right_pose","right_number","comparison_type","rating_stimulus","rating_animacy","rating_number","rating_pose"
"true","false","[]","[]","[]","preload","0","5536","0.0-0.0","SS1678233247825","63e84a9ea3f6d5acdc598a6a","6406d7f26dd5b7fc1e3377bd","6407ce799e832a61f2db5ba8","1920","937","","","","","","","","","","","","","","","","","","","","","","","",""
"","","","","","instructions","1","45767","0.0-1.0","SS1678233247825","63e84a9ea3f6d5acdc598a6a","6406d7f26dd5b7fc1e3377bd","6407ce799e832a61f2db5ba8","1920","937","[{""page_index"":0,""viewing_time"":40228}]","40229","","","","","","","","","","","","","","","","","","","","","",""
"","","","","","instructions","2","69994","0.0-2.0","SS1678233247825","63e84a9ea3f6d5acdc598a6a","6406d7f26dd5b7fc1e3377bd","6407ce799e832a61f2db5ba8","1920","937","[{""page_index"":0,""viewing_time"":22226}]","22226","instructions","","","","","","","","","","","","","","","","","","","","",""
"","","","","","instructions","3","74922","0.0-3.0","SS1678233247825","63e84a9ea3f6d5acdc598a6a","6406d7f26dd5b7fc1e3377bd","6407ce799e832a61f2db5ba8","1920","937","[{""page_index"":0,""viewing_time"":4927}]","4927","instructions","","","","","","","","","","","","","","","","","","","","",""
"","","","","","survey-likert","4","91868","0.0-4.0","SS1678233247825","63e84a9ea3f6d5acdc598a6a","6406d7f26dd5b7fc1e3377bd","6407ce799e832a61f2db5ba8","1920","937","","16945","","{""Q0"":5}","[0]","anchoring","","","","","","","","","","","","","","","","","",""
"","","","","","survey-likert","5","97983","0.0-5.0","SS1678233247825","63e84a9ea3f6d5acdc598a6a","6406d7f26dd5b7fc1e3377bd","6407ce799e832a61f2db5ba8","1920","937","","6112","","{""Q0"":1}","[0]","anchoring","","","","","","","","","","","","","","","","","",""
"","","","","","instructions","6","99659","0.0-6.0","SS1678233247825","63e84a9ea3f6d5acdc598a6a","6406d7f26dd5b7fc1e3377bd","6407ce799e832a61f2db5ba8","1920","937","[{""page_index"":0,""viewing_time"":1673}]","1674","instructions","","","","","","","","","","","","","","","","","","","","",""
"true","","","","","fullscreen","7","103448","0.0-7.0","SS1678233247825","63e84a9ea3f6d5acdc598a6a","6406d7f26dd5b7fc1e3377bd","6407ce799e832a61f2db5ba8","1920","937","","","","","","","","","","","","","","","","","","","","","","","",""
"","","","","","html-keyboard-response","8","118890","0.0-8.0","SS1678233247825","63e84a9ea3f6d5acdc598a6a","6406d7f26dd5b7fc1e3377bd","6407ce799e832a61f2db5ba8","1920","937","","15438","","f","","","<img src=""media/stimuli/inanimate_003_left.png"" class=""coveredImage test"" style = ""width:100px; height:100px; position:fixed; top:10%;    transform: translate(-50%, -50%);left:44.5%""></img><img src=""media/stimuli/inanimate_003_left.png"" class=""coveredImage test"" style = ""width:100px; height:100px; position:fixed; top:10%;    transform: translate(-50%, -50%);left:51.5%""></img><img src=""media/stimuli/inanimate_003_left.png"" class=""coveredImage test"" style = ""width:100px; height:100px;position:fixed; top:25%;        transform: translate(-50%, -50%);left:38%""></img><img src=""media/stimuli/inanimate_007_left.png"" class=""coveredImage test"" style = ""width:100px; height:100px;position:fixed; top:25%;        transform: translate(-50%, -50%);left:54.5%""></img><img src=""media/stimuli/inanimate_007_left.png"" class=""coveredImage test"" style = ""width:100px; height:100px;position:fixed; top:25%;        transform: translate(-50%, -50%);left:61.5%""></img><img src=""media/f.png""style = ""width:30px x; height:30px;position:fixed; top:43%;    transform: translate(-50%, -50%);left:40%""></img><img src=""media/j.png""style = ""width:30px; height:30px;position:fixed; top:43%;    transform: translate(-50%, -50%);left:60%""></img>","media/stimuli/inanimate_003_left.png","inanimate","left","pair","media/stimuli/inanimate_003_left.png","inanimate","left","single","media/stimuli/inanimate_007_left.png","inanimate","left","pair","number_identity","","","",""
"","","","","","html-keyboard-response","9","122572","0.0-9.0","SS1678233247825","63e84a9ea3f6d5acdc598a6a","6406d7f26dd5b7fc1e3377bd","6407ce799e832a61f2db5ba8","1920","937","","3680","","f","","","<img src=""media/stimuli/inanimate_004_left.png"" class=""coveredImage test"" style = ""width:100px; height:100px; position:fixed; top:10%;    transform: translate(-50%, -50%);left:48%""></img><img src=""media/stimuli/inanimate_004_left.png"" class=""coveredImage test"" style = ""width:100px; height:100px;position:fixed; top:25%;        transform: translate(-50%, -50%);left:34.5%""></img><img src=""media/stimuli/inanimate_004_left.png"" class=""coveredImage test"" style = ""width:100px; height:100px;position:fixed; top:25%;        transform: translate(-50%, -50%);left:41.5%""></img><img src=""media/stimuli/inanimate_004_right.png"" class=""coveredImage test"" style = ""width:100px; height:100px;position:fixed; top:25%;        transform: translate(-50%, -50%);left:58%""></img><img src=""media/f.png""style = ""width:30px x; height:30px;position:fixed; top:43%;    transform: translate(-50%, -50%);left:40%""></img><img src=""media/j.png""style = ""width:30px; height:30px;position:fixed; top:43%;    transform: translate(-50%, -50%);left:60%""></img>","media/stimuli/inanimate_004_left.png","inanimate","left","single","media/stimuli/inanimate_004_left.png","inanimate","left","pair","media/stimuli/inanimate_004_right.png","inanimate","right","single","number_pose","","","",""
"","","","","","html-keyboard-response","10","124308","0.0-10.0","SS1678233247825","63e84a9ea3f6d5acdc598a6a","6406d7f26dd5b7fc1e3377bd","6407ce799e832a61f2db5ba8","1920","937","","1732","","j","","","<img src=""media/stimuli/inanimate_001_right.png"" class=""coveredImage test"" style = ""width:100px; height:100px; position:fixed; top:10%;    transform: translate(-50%, -50%);left:48%""></img><img src=""media/stimuli/animate_001_right.png"" class=""coveredImage test"" style = ""width:100px; height:100px;position:fixed; top:25%;        transform: translate(-50%, -50%);left:38%""></img><img src=""media/stimuli/inanimate_012_right.png"" class=""coveredImage test"" style = ""width:100px; height:100px;position:fixed; top:25%;        transform: translate(-50%, -50%);left:58%""></img><img src=""media/f.png""style = ""width:30px x; height:30px;position:fixed; top:43%;    transform: translate(-50%, -50%);left:40%""></img><img src=""media/j.png""style = ""width:30px; height:30px;position:fixed; top:43%;    transform: translate(-50%, -50%);left:60%""></img>","media/stimuli/inanimate_001_right.png","inanimate","right","single","media/stimuli/animate_001_right.png","animate","right","single","media/stimuli/inanimate_012_right.png","inanimate","right","single","animacy_identity","","","",""
"","","","","","html-keyboard-response","11","126523","0.0-11.0","SS1678233247825","63e84a9ea3f6d5acdc598a6a","6406d7f26dd5b7fc1e3377bd","6407ce799e832a61f2db5ba8","1920","937","","2209","","j","","","<img src=""media/stimuli/inanimate_007_right.png"" class=""coveredImage test"" style = ""width:100px; height:100px; position:fixed; top:10%;    transform: translate(-50%, -50%);left:48%""></img><img src=""media/stimuli/inanimate_007_left.png"" class=""coveredImage test"" style = ""width:100px; height:100px;position:fixed; top:25%;        transform: translate(-50%, -50%);left:38%""></img><img src=""media/stimuli/inanimate_007_right.png"" class=""coveredImage test"" style = ""width:100px; height:100px;position:fixed; top:25%;        transform: translate(-50%, -50%);left:54.5%""></img><img src=""media/stimuli/inanimate_007_right.png"" class=""coveredImage test"" style = ""width:100px; height:100px;position:fixed; top:25%;        transform: translate(-50%, -50%);left:61.5%""></img><img src=""media/f.png""style = ""width:30px x; height:30px;position:fixed; top:43%;    transform: translate(-50%, -50%);left:40%""></img><img src=""media/j.png""style = ""width:30px; height:30px;position:fixed; top:43%;    transform: translate(-50%, -50%);left:60%""></img>","media/stimuli/inanimate_007_right.png","inanimate","right","single","media/stimuli/inanimate_007_left.png","inanimate","left","single","media/stimuli/inanimate_007_right.png","inanimate","right","pair","pose_number","","","",""
"","","","","","html-keyboard-response","12","128115","0.0-12.0","SS1678233247825","63e84a9ea3f6d5acdc598a6a","6406d7f26dd5b7fc1e3377bd","6407ce799e832a61f2db5ba8","1920","937","","1590","","f","","","<img src=""media/stimuli/animate_009_left.png"" class=""coveredImage test"" style = ""width:100px; height:100px; position:fixed; top:10%;    transform: translate(-50%, -50%);left:48%""></img><img src=""media/stimuli/animate_009_left.png"" class=""coveredImage test"" style = ""width:100px; height:100px;position:fixed; top:25%;        transform: translate(-50%, -50%);left:34.5%""></img><img src=""media/stimuli/animate_009_left.png"" class=""coveredImage test"" style = ""width:100px; height:100px;position:fixed; top:25%;        transform: translate(-50%, -50%);left:41.5%""></img><img src=""media/stimuli/animate_009_right.png"" class=""coveredImage test"" style = ""width:100px; height:100px;position:fixed; top:25%;        transform: translate(-50%, -50%);left:58%""></img><img src=""media/f.png""style = ""width:30px x; height:30px;position:fixed; top:43%;    transform: translate(-50%, -50%);left:40%""></img><img src=""media/j.png""style = ""width:30px; height:30px;position:fixed; top:43%;    transform: translate(-50%, -50%);left:60%""></img>","media/stimuli/animate_009_left.png","animate","left","single","media/stimuli/animate_009_left.png","animate","left","pair","media/stimuli/animate_009_right.png","animate","right","single","number_pose","","","",""
"","","","","","html-keyboard-response","13","129301","0.0-13.0","SS1678233247825","63e84a9ea3f6d5acdc598a6a","6406d7f26dd5b7fc1e3377bd","6407ce799e832a61f2db5ba8","1920","937","","1179","","j","","","<img src=""media/stimuli/animate_012_right.png"" class=""coveredImage test"" style = ""width:100px; height:100px; position:fixed; top:10%;    transform: translate(-50%, -50%);left:48%""></img><img src=""media/stimuli/inanimate_002_right.png"" class=""coveredImage test"" style = ""width:100px; height:100px;position:fixed; top:25%;        transform: translate(-50%, -50%);left:38%""></img><img src=""media/stimuli/animate_012_right.png"" class=""coveredImage test"" style = ""width:100px; height:100px;position:fixed; top:25%;        transform: translate(-50%, -50%);left:54.5%""></img><img src=""media/stimuli/animate_012_right.png"" class=""coveredImage test"" style = ""width:100px; height:100px;position:fixed; top:25%;        transform: translate(-50%, -50%);left:61.5%""></img><img src=""media/f.png""style = ""width:30px x; height:30px;position:fixed; top:43%;    transform: translate(-50%, -50%);left:40%""></img><img src=""media/j.png""style = ""width:30px; height:30px;position:fixed; top:43%;    transform: translate(-50%, -50%);left:60%""></img>","media/stimuli/animate_012_right.png","animate","right","single","media/stimuli/inanimate_002_right.png","inanimate","right","single","media/stimuli/animate_012_right.png","animate","right","pair","animacy_number","","","",""
"","","","","","html-keyboard-response","14","130860","0.0-14.0","SS1678233247825","63e84a9ea3f6d5acdc598a6a","6406d7f26dd5b7fc1e3377bd","6407ce799e832a61f2db5ba8","1920","937","","1551","","f","","","<img src=""media/stimuli/inanimate_002_left.png"" class=""coveredImage test"" style = ""width:100px; height:100px; position:fixed; top:10%;    transform: translate(-50%, -50%);left:48%""></img><img src=""media/stimuli/inanimate_002_left.png"" class=""coveredImage test"" style = ""width:100px; height:100px;position:fixed; top:25%;        transform: translate(-50%, -50%);left:34.5%""></img><img src=""media/stimuli/inanimate_002_left.png"" class=""coveredImage test"" style = ""width:100px; height:100px;position:fixed; top:25%;        transform: translate(-50%, -50%);left:41.5%""></img><img src=""media/stimuli/animate_003_right.png"" class=""coveredImage test"" style = ""width:100px; height:100px;position:fixed; top:25%;        transform: translate(-50%, -50%);left:54.5%""></img><img src=""media/stimuli/animate_003_right.png"" class=""coveredImage test"" style = ""width:100px; height:100px;position:fixed; top:25%;        transform: translate(-50%, -50%);left:61.5%""></img><img src=""media/f.png""style = ""width:30px x; height:30px;position:fixed; top:43%;    transform: translate(-50%, -50%);left:40%""></img><img src=""media/j.png""style = ""width:30px; height:30px;position:fixed; top:43%;    transform: translate(-50%, -50%);left:60%""></img>","media/stimuli/inanimate_002_left.png","inanimate","left","single","media/stimuli/inanimate_002_left.png","inanimate","left","pair","media/stimuli/animate_003_right.png","animate","right","pair","pose_animacy","","","",""
"","","","","","html-keyboard-response","15","134259","0.0-15.0","SS1678233247825","63e84a9ea3f6d5acdc598a6a","6406d7f26dd5b7fc1e3377bd","6407ce799e832a61f2db5ba8","1920","937","","3391","","j","","","<img src=""media/stimuli/inanimate_007_left.png"" class=""coveredImage test"" style = ""width:100px; height:100px; position:fixed; top:10%;    transform: translate(-50%, -50%);left:44.5%""></img><img src=""media/stimuli/inanimate_007_left.png"" class=""coveredImage test"" style = ""width:100px; height:100px; position:fixed; top:10%;    transform: translate(-50%, -50%);left:51.5%""></img><img src=""media/stimuli/inanimate_009_left.png"" class=""coveredImage test"" style = ""width:100px; height:100px;position:fixed; top:25%;        transform: translate(-50%, -50%);left:34.5%""></img><img src=""media/stimuli/inanimate_009_left.png"" class=""coveredImage test"" style = ""width:100px; height:100px;position:fixed; top:25%;        transform: translate(-50%, -50%);left:41.5%""></img><img src=""media/stimuli/inanimate_007_right.png"" class=""coveredImage test"" style = ""width:100px; height:100px;position:fixed; top:25%;        transform: translate(-50%, -50%);left:54.5%""></img><img src=""media/stimuli/inanimate_007_right.png"" class=""coveredImage test"" style = ""width:100px; height:100px;position:fixed; top:25%;        transform: translate(-50%, -50%);left:61.5%""></img><img src=""media/f.png""style = ""width:30px x; height:30px;position:fixed; top:43%;    transform: translate(-50%, -50%);left:40%""></img><img src=""media/j.png""style = ""width:30px; height:30px;position:fixed; top:43%;    transform: translate(-50%, -50%);left:60%""></img>","media/stimuli/inanimate_007_left.png","inanimate","left","pair","media/stimuli/inanimate_009_left.png","inanimate","left","pair","media/stimuli/inanimate_007_right.png","inanimate","right","pair","identity_pose","","","",""
"","","","","","html-keyboard-response","16","137580","0.0-16.0","SS1678233247825","63e84a9ea3f6d5acdc598a6a","6406d7f26dd5b7fc1e3377bd","6407ce799e832a61f2db5ba8","1920","937","","3315","","f","","","<img src=""media/stimuli/inanimate_006_left.png"" class=""coveredImage test"" style = ""width:100px; height:100px; position:fixed; top:10%;    transform: translate(-50%, -50%);left:44.5%""></img><img src=""media/stimuli/inanimate_006_left.png"" class=""coveredImage test"" style = ""width:100px; height:100px; position:fixed; top:10%;    transform: translate(-50%, -50%);left:51.5%""></img><img src=""media/stimuli/inanimate_006_left.png"" class=""coveredImage test"" style = ""width:100px; height:100px;position:fixed; top:25%;        transform: translate(-50%, -50%);left:34.5%""></img><img src=""media/stimuli/inanimate_006_left.png"" class=""coveredImage test"" style = ""width:100px; height:100px;position:fixed; top:25%;        transform: translate(-50%, -50%);left:41.5%""></img><img src=""media/stimuli/inanimate_006_left.png"" class=""coveredImage test"" style = ""width:100px; height:100px;position:fixed; top:25%;        transform: translate(-50%, -50%);left:58%""></img><img src=""media/f.png""style = ""width:30px x; height:30px;position:fixed; top:43%;    transform: translate(-50%, -50%);left:40%""></img><img src=""media/j.png""style = ""width:30px; height:30px;position:fixed; top:43%;    transform: translate(-50%, -50%);left:60%""></img>","media/stimuli/inanimate_006_left.png","inanimate","left","pair","media/stimuli/inanimate_006_left.png","inanimate","left","pair","media/stimuli/inanimate_006_left.png","inanimate","left","single","filler_number","","","",""
"","","","","","html-keyboard-response","17","139428","0.0-17.0","SS1678233247825","63e84a9ea3f6d5acdc598a6a","6406d7f26dd5b7fc1e3377bd","6407ce799e832a61f2db5ba8","1920","937","","1843","","f","","","<img src=""media/stimuli/inanimate_002_right.png"" class=""coveredImage test"" style = ""width:100px; height:100px; position:fixed; top:10%;    transform: translate(-50%, -50%);left:44.5%""></img><img src=""media/stimuli/inanimate_002_right.png"" class=""coveredImage test"" style = ""width:100px; height:100px; position:fixed; top:10%;    transform: translate(-50%, -50%);left:51.5%""></img><img src=""media/stimuli/inanimate_002_right.png"" class=""coveredImage test"" style = ""width:100px; height:100px;position:fixed; top:25%;        transform: translate(-50%, -50%);left:38%""></img><img src=""media/stimuli/animate_001_right.png"" class=""coveredImage test"" style = ""width:100px; height:100px;position:fixed; top:25%;        transform: translate(-50%, -50%);left:54.5%""></img><img src=""media/stimuli/animate_001_right.png"" class=""coveredImage test"" style = ""width:100px; height:100px;position:fixed; top:25%;        transform: translate(-50%, -50%);left:61.5%""></img><img src=""media/f.png""style = ""width:30px x; height:30px;position:fixed; top:43%;    transform: translate(-50%, -50%);left:40%""></img><img src=""media/j.png""style = ""width:30px; height:30px;position:fixed; top:43%;    transform: translate(-50%, -50%);left:60%""></img>","media/stimuli/inanimate_002_right.png","inanimate","right","pair","media/stimuli/inanimate_002_right.png","inanimate","right","single","media/stimuli/animate_001_right.png","animate","right","pair","number_animacy","","","",""
"","","","","","html-keyboard-response","18","144091","0.0-18.0","SS1678233247825","63e84a9ea3f6d5acdc598a6a","6406d7f26dd5b7fc1e3377bd","6407ce799e832a61f2db5ba8","1920","937","","4657","","j","","","<img src=""media/stimuli/inanimate_008_left.png"" class=""coveredImage test"" style = ""width:100px; height:100px; position:fixed; top:10%;    transform: translate(-50%, -50%);left:44.5%""></img><img src=""media/stimuli/inanimate_008_left.png"" class=""coveredImage test"" style = ""width:100px; height:100px; position:fixed; top:10%;    transform: translate(-50%, -50%);left:51.5%""></img><img src=""media/stimuli/inanimate_008_left.png"" class=""coveredImage test"" style = ""width:100px; height:100px;position:fixed; top:25%;        transform: translate(-50%, -50%);left:38%""></img><img src=""media/stimuli/inanimate_008_right.png"" class=""coveredImage test"" style = ""width:100px; height:100px;position:fixed; top:25%;        transform: translate(-50%, -50%);left:54.5%""></img><img src=""media/stimuli/inanimate_008_right.png"" class=""coveredImage test"" style = ""width:100px; height:100px;position:fixed; top:25%;        transform: translate(-50%, -50%);left:61.5%""></img><img src=""media/f.png""style = ""width:30px x; height:30px;position:fixed; top:43%;    transform: translate(-50%, -50%);left:40%""></img><img src=""media/j.png""style = ""width:30px; height:30px;position:fixed; top:43%;    transform: translate(-50%, -50%);left:60%""></img>","media/stimuli/inanimate_008_left.png","inanimate","left","pair","media/stimuli/inanimate_008_left.png","inanimate","left","single","media/stimuli/inanimate_008_right.png","inanimate","right","pair","number_pose","","","",""
"","","","","","html-keyboard-response","19","147331","0.0-19.0","SS1678233247825","63e84a9ea3f6d5acdc598a6a","6406d7f26dd5b7fc1e3377bd","6407ce799e832a61f2db5ba8","1920","937","","3238","","j","","","<img src=""media/stimuli/inanimate_003_left.png"" class=""coveredImage test"" style = ""width:100px; height:100px; position:fixed; top:10%;    transform: translate(-50%, -50%);left:44.5%""></img><img src=""media/stimuli/inanimate_003_left.png"" class=""coveredImage test"" style = ""width:100px; height:100px; position:fixed; top:10%;    transform: translate(-50%, -50%);left:51.5%""></img><img src=""media/stimuli/animate_007_left.png"" class=""coveredImage test"" style = ""width:100px; height:100px;position:fixed; top:25%;        transform: translate(-50%, -50%);left:34.5%""></img><img src=""media/stimuli/animate_007_left.png"" class=""coveredImage test"" style = ""width:100px; height:100px;position:fixed; top:25%;        transform: translate(-50%, -50%);left:41.5%""></img><img src=""media/stimuli/inanimate_006_left.png"" class=""coveredImage test"" style = ""width:100px; height:100px;position:fixed; top:25%;        transform: translate(-50%, -50%);left:54.5%""></img><img src=""media/stimuli/inanimate_006_left.png"" class=""coveredImage test"" style = ""width:100px; height:100px;position:fixed; top:25%;        transform: translate(-50%, -50%);left:61.5%""></img><img src=""media/f.png""style = ""width:30px x; height:30px;position:fixed; top:43%;    transform: translate(-50%, -50%);left:40%""></img><img src=""media/j.png""style = ""width:30px; height:30px;position:fixed; top:43%;    transform: translate(-50%, -50%);left:60%""></img>","media/stimuli/inanimate_003_left.png","inanimate","left","pair","media/stimuli/animate_007_left.png","animate","left","pair","media/stimuli/inanimate_006_left.png","inanimate","left","pair","animacy_identity","","","",""
"","","","","","html-keyboard-response","20","149974","0.0-20.0","SS1678233247825","63e84a9ea3f6d5acdc598a6a","6406d7f26dd5b7fc1e3377bd","6407ce799e832a61f2db5ba8","1920","937","","2639",""," ","","","","","","","","","","","","","","","","","","","",""
"","","","","","survey-likert","21","157538","0.0-21.0","SS1678233247825","63e84a9ea3f6d5acdc598a6a","6406d7f26dd5b7fc1e3377bd","6407ce799e832a61f2db5ba8","1920","937","","7559","","{""Q0"":2}","[0]","complexity","","","","","","","","","","","","","","","media/stimuli/inanimate_003_right.png","inanimate","pair","right"
"","","","","","survey-likert","22","160451","0.0-22.0","SS1678233247825","63e84a9ea3f6d5acdc598a6a","6406d7f26dd5b7fc1e3377bd","6407ce799e832a61f2db5ba8","1920","937","","2910","","{""Q0"":4}","[0]","complexity","","","","","","","","","","","","","","","media/stimuli/inanimate_006_right.png","inanimate","pair","right"
"","","","","","survey-likert","23","165411","0.0-23.0","SS1678233247825","63e84a9ea3f6d5acdc598a6a","6406d7f26dd5b7fc1e3377bd","6407ce799e832a61f2db5ba8","1920","937","","4956","","{""Q0"":4}","[0]","complexity","","","","","","","","","","","","","","","media/stimuli/inanimate_011_right.png","inanimate","single","right"
"","","","","","survey-likert","24","168762","0.0-24.0","SS1678233247825","63e84a9ea3f6d5acdc598a6a","6406d7f26dd5b7fc1e3377bd","6407ce799e832a61f2db5ba8","1920","937","","3347","","{""Q0"":1}","[0]","complexity","","","","","","","","","","","","","","","media/stimuli/inanimate_004_right.png","inanimate","pair","right"
"","","","","","survey-likert","25","171501","0.0-25.0","SS1678233247825","63e84a9ea3f6d5acdc598a6a","6406d7f26dd5b7fc1e3377bd","6407ce799e832a61f2db5ba8","1920","937","","2735","","{""Q0"":1}","[0]","complexity","","","","","","","","","","","","","","","media/stimuli/inanimate_001_left.png","inanimate","single","left"
"","","","","","survey-likert","26","176364","0.0-26.0","SS1678233247825","63e84a9ea3f6d5acdc598a6a","6406d7f26dd5b7fc1e3377bd","6407ce799e832a61f2db5ba8","1920","937","","4860","","{""Q0"":5}","[0]","complexity","","","","","","","","","","","","","","","media/stimuli/animate_011_right.png","animate","single","right"
"","","","","","survey-likert","27","179031","0.0-27.0","SS1678233247825","63e84a9ea3f6d5acdc598a6a","6406d7f26dd5b7fc1e3377bd","6407ce799e832a61f2db5ba8","1920","937","","2664","","{""Q0"":5}","[0]","complexity","","","","","","","","","","","","","","","media/stimuli/animate_007_left.png","animate","pair","left"
"","","","","","survey-likert","28","181844","0.0-28.0","SS1678233247825","63e84a9ea3f6d5acdc598a6a","6406d7f26dd5b7fc1e3377bd","6407ce799e832a61f2db5ba8","1920","937","","2810","","{""Q0"":1}","[0]","complexity","","","","","","","","","","","","","","","media/stimuli/inanimate_002_left.png","inanimate","single","left"
"","","","","","survey-likert","29","184124","0.0-29.0","SS1678233247825","63e84a9ea3f6d5acdc598a6a","6406d7f26dd5b7fc1e3377bd","6407ce799e832a61f2db5ba8","1920","937","","2276","","{""Q0"":4}","[0]","complexity","","","","","","","","","","","","","","","media/stimuli/inanimate_007_right.png","inanimate","pair","right"
"","","","","","survey-likert","30","188310","0.0-30.0","SS1678233247825","63e84a9ea3f6d5acdc598a6a","6406d7f26dd5b7fc1e3377bd","6407ce799e832a61f2db5ba8","1920","937","","4182","","{""Q0"":1}","[0]","complexity","","","","","","","","","","","","","","","media/stimuli/inanimate_003_left.png","inanimate","single","left"
"","","","","","survey-likert","31","191033","0.0-31.0","SS1678233247825","63e84a9ea3f6d5acdc598a6a","6406d7f26dd5b7fc1e3377bd","6407ce799e832a61f2db5ba8","1920","937","","2719","","{""Q0"":4}","[0]","complexity","","","","","","","","","","","","","","","media/stimuli/inanimate_007_left.png","inanimate","single","left"
"","","","","","survey-likert","32","199235","0.0-32.0","SS1678233247825","63e84a9ea3f6d5acdc598a6a","6406d7f26dd5b7fc1e3377bd","6407ce799e832a61f2db5ba8","1920","937","","8199","","{""Q0"":6}","[0]","complexity","","","","","","","","","","","","","","","media/stimuli/animate_005_left.png","animate","pair","left"
"","","","","","html-keyboard-response","33","203042","0.0-33.0","SS1678233247825","63e84a9ea3f6d5acdc598a6a","6406d7f26dd5b7fc1e3377bd","6407ce799e832a61f2db5ba8","1920","937","","3803","","f","","","","","","","","","","","","","","","","","","","",""
"","","","","","survey-likert","34","210723","0.0-34.0","SS1678233247825","63e84a9ea3f6d5acdc598a6a","6406d7f26dd5b7fc1e3377bd","6407ce799e832a61f2db5ba8","1920","937","","7676","","{""Q0"":4}","[0]","complexity","","","","","","","","","","","","","","","media/stimuli/inanimate_006_left.png","inanimate","single","left"
"","","","","","survey-likert","35","219850","0.0-35.0","SS1678233247825","63e84a9ea3f6d5acdc598a6a","6406d7f26dd5b7fc1e3377bd","6407ce799e832a61f2db5ba8","1920","937","","9124","","{""Q0"":5}","[0]","complexity","","","","","","","","","","","","","","","media/stimuli/inanimate_010_right.png","inanimate","pair","right"
"","","","","","survey-likert","36","222550","0.0-36.0","SS1678233247825","63e84a9ea3f6d5acdc598a6a","6406d7f26dd5b7fc1e3377bd","6407ce799e832a61f2db5ba8","1920","937","","2696","","{""Q0"":0}","[0]","complexity","","","","","","","","","","","","","","","media/stimuli/inanimate_009_right.png","inanimate","single","right"
"","","","","","survey-likert","37","226599","0.0-37.0","SS1678233247825","63e84a9ea3f6d5acdc598a6a","6406d7f26dd5b7fc1e3377bd","6407ce799e832a61f2db5ba8","1920","937","","4046","","{""Q0"":6}","[0]","complexity","","","","","","","","","","","","","","","media/stimuli/animate_011_right.png","animate","pair","right"
"","","","","","survey-likert","38","228949","0.0-38.0","SS1678233247825","63e84a9ea3f6d5acdc598a6a","6406d7f26dd5b7fc1e3377bd","6407ce799e832a61f2db5ba8","1920","937","","2346","","{""Q0"":4}","[0]","complexity","","","","","","","","","","","","","","","media/stimuli/animate_002_right.png","animate","single","right"
"","","","","","survey-likert","39","231633","0.0-39.0","SS1678233247825","63e84a9ea3f6d5acdc598a6a","6406d7f26dd5b7fc1e3377bd","6407ce799e832a61f2db5ba8","1920","937","","2680","","{""Q0"":6}","[0]","complexity","","","","","","","","","","","","","","","media/stimuli/animate_001_left.png","animate","pair","left"
"","","","","","survey-likert","40","234095","0.0-40.0","SS1678233247825","63e84a9ea3f6d5acdc598a6a","6406d7f26dd5b7fc1e3377bd","6407ce799e832a61f2db5ba8","1920","937","","2457","","{""Q0"":5}","[0]","complexity","","","","","","","","","","","","","","","media/stimuli/animate_012_right.png","animate","pair","right"
"","","","","","survey-likert","41","236395","0.0-41.0","SS1678233247825","63e84a9ea3f6d5acdc598a6a","6406d7f26dd5b7fc1e3377bd","6407ce799e832a61f2db5ba8","1920","937","","2297","","{""Q0"":6}","[0]","complexity","","","","","","","","","","","","","","","media/stimuli/animate_006_left.png","animate","pair","left"
"","","","","","survey-likert","42","238539","0.0-42.0","SS1678233247825","63e84a9ea3f6d5acdc598a6a","6406d7f26dd5b7fc1e3377bd","6407ce799e832a61f2db5ba8","1920","937","","2141","","{""Q0"":6}","[0]","complexity","","","","","","","","","","","","","","","media/stimuli/animate_005_right.png","animate","pair","right"
"","","","","","survey-likert","43","243391","0.0-43.0","SS1678233247825","63e84a9ea3f6d5acdc598a6a","6406d7f26dd5b7fc1e3377bd","6407ce799e832a61f2db5ba8","1920","937","","4850","","{""Q0"":5}","[0]","complexity","","","","","","","","","","","","","","","media/stimuli/animate_003_right.png","animate","pair","right"
"","","","","","survey-likert","44","245884","0.0-44.0","SS1678233247825","63e84a9ea3f6d5acdc598a6a","6406d7f26dd5b7fc1e3377bd","6407ce799e832a61f2db5ba8","1920","937","","2489","","{""Q0"":5}","[0]","complexity","","","","","","","","","","","","","","","media/stimuli/animate_003_left.png","animate","pair","left"
"","","","","","survey-likert","45","251437","0.0-45.0","SS1678233247825","63e84a9ea3f6d5acdc598a6a","6406d7f26dd5b7fc1e3377bd","6407ce799e832a61f2db5ba8","1920","937","","5549","","{""Q0"":2}","[0]","complexity","","","","","","","","","","","","","","","media/stimuli/inanimate_001_right.png","inanimate","pair","right"
"","","","","","html-keyboard-response","46","253761","0.0-46.0","SS1678233247825","63e84a9ea3f6d5acdc598a6a","6406d7f26dd5b7fc1e3377bd","6407ce799e832a61f2db5ba8","1920","937","","2319","","f","","","","","","","","","","","","","","","","","","","",""
"","","","","","html-keyboard-response","47","262512","0.0-47.0","SS1678233247825","63e84a9ea3f6d5acdc598a6a","6406d7f26dd5b7fc1e3377bd","6407ce799e832a61f2db5ba8","1920","937","","8744","","f","","","<img src=""media/stimuli/inanimate_010_right.png"" class=""coveredImage test"" style = ""width:100px; height:100px; position:fixed; top:10%;    transform: translate(-50%, -50%);left:44.5%""></img><img src=""media/stimuli/inanimate_010_right.png"" class=""coveredImage test"" style = ""width:100px; height:100px; position:fixed; top:10%;    transform: translate(-50%, -50%);left:51.5%""></img><img src=""media/stimuli/inanimate_010_left.png"" class=""coveredImage test"" style = ""width:100px; height:100px;position:fixed; top:25%;        transform: translate(-50%, -50%);left:34.5%""></img><img src=""media/stimuli/inanimate_010_left.png"" class=""coveredImage test"" style = ""width:100px; height:100px;position:fixed; top:25%;        transform: translate(-50%, -50%);left:41.5%""></img><img src=""media/stimuli/inanimate_010_right.png"" class=""coveredImage test"" style = ""width:100px; height:100px;position:fixed; top:25%;        transform: translate(-50%, -50%);left:58%""></img><img src=""media/f.png""style = ""width:30px x; height:30px;position:fixed; top:43%;    transform: translate(-50%, -50%);left:40%""></img><img src=""media/j.png""style = ""width:30px; height:30px;position:fixed; top:43%;    transform: translate(-50%, -50%);left:60%""></img>","media/stimuli/inanimate_010_right.png","inanimate","right","pair","media/stimuli/inanimate_010_left.png","inanimate","left","pair","media/stimuli/inanimate_010_right.png","inanimate","right","single","pose_number","","","",""
"","","","","","html-keyboard-response","48","264240","0.0-48.0","SS1678233247825","63e84a9ea3f6d5acdc598a6a","6406d7f26dd5b7fc1e3377bd","6407ce799e832a61f2db5ba8","1920","937","","1726","","f","","","<img src=""media/stimuli/inanimate_012_right.png"" class=""coveredImage test"" style = ""width:100px; height:100px; position:fixed; top:10%;    transform: translate(-50%, -50%);left:48%""></img><img src=""media/stimuli/inanimate_007_right.png"" class=""coveredImage test"" style = ""width:100px; height:100px;position:fixed; top:25%;        transform: translate(-50%, -50%);left:38%""></img><img src=""media/stimuli/animate_002_right.png"" class=""coveredImage test"" style = ""width:100px; height:100px;position:fixed; top:25%;        transform: translate(-50%, -50%);left:58%""></img><img src=""media/f.png""style = ""width:30px x; height:30px;position:fixed; top:43%;    transform: translate(-50%, -50%);left:40%""></img><img src=""media/j.png""style = ""width:30px; height:30px;position:fixed; top:43%;    transform: translate(-50%, -50%);left:60%""></img>","media/stimuli/inanimate_012_right.png","inanimate","right","single","media/stimuli/inanimate_007_right.png","inanimate","right","single","media/stimuli/animate_002_right.png","animate","right","single","identity_animacy","","","",""
"","","","","","html-keyboard-response","49","265985","0.0-49.0","SS1678233247825","63e84a9ea3f6d5acdc598a6a","6406d7f26dd5b7fc1e3377bd","6407ce799e832a61f2db5ba8","1920","937","","1739","","f","","","<img src=""media/stimuli/inanimate_012_right.png"" class=""coveredImage test"" style = ""width:100px; height:100px; position:fixed; top:10%;    transform: translate(-50%, -50%);left:48%""></img><img src=""media/stimuli/inanimate_012_right.png"" class=""coveredImage test"" style = ""width:100px; height:100px;position:fixed; top:25%;        transform: translate(-50%, -50%);left:38%""></img><img src=""media/stimuli/animate_010_left.png"" class=""coveredImage test"" style = ""width:100px; height:100px;position:fixed; top:25%;        transform: translate(-50%, -50%);left:58%""></img><img src=""media/f.png""style = ""width:30px x; height:30px;position:fixed; top:43%;    transform: translate(-50%, -50%);left:40%""></img><img src=""media/j.png""style = ""width:30px; height:30px;position:fixed; top:43%;    transform: translate(-50%, -50%);left:60%""></img>","media/stimuli/inanimate_012_right.png","inanimate","right","single","media/stimuli/inanimate_012_right.png","inanimate","right","single","media/stimuli/animate_010_left.png","animate","left","single","pose_animacy","","","",""
"","","","","","html-keyboard-response","50","267809","0.0-50.0","SS1678233247825","63e84a9ea3f6d5acdc598a6a","6406d7f26dd5b7fc1e3377bd","6407ce799e832a61f2db5ba8","1920","937","","1814","","f","","","<img src=""media/stimuli/inanimate_006_right.png"" class=""coveredImage test"" style = ""width:100px; height:100px; position:fixed; top:10%;    transform: translate(-50%, -50%);left:48%""></img><img src=""media/stimuli/inanimate_006_right.png"" class=""coveredImage test"" style = ""width:100px; height:100px;position:fixed; top:25%;        transform: translate(-50%, -50%);left:34.5%""></img><img src=""media/stimuli/inanimate_006_right.png"" class=""coveredImage test"" style = ""width:100px; height:100px;position:fixed; top:25%;        transform: translate(-50%, -50%);left:41.5%""></img><img src=""media/stimuli/animate_005_right.png"" class=""coveredImage test"" style = ""width:100px; height:100px;position:fixed; top:25%;        transform: translate(-50%, -50%);left:58%""></img><img src=""media/f.png""style = ""width:30px x; height:30px;position:fixed; top:43%;    transform: translate(-50%, -50%);left:40%""></img><img src=""media/j.png""style = ""width:30px; height:30px;position:fixed; top:43%;    transform: translate(-50%, -50%);left:60%""></img>","media/stimuli/inanimate_006_right.png","inanimate","right","single","media/stimuli/inanimate_006_right.png","inanimate","right","pair","media/stimuli/animate_005_right.png","animate","right","single","number_animacy","","","",""
"","","","","","html-keyboard-response","51","269097","0.0-51.0","SS1678233247825","63e84a9ea3f6d5acdc598a6a","6406d7f26dd5b7fc1e3377bd","6407ce799e832a61f2db5ba8","1920","937","","1278","","j","","","<img src=""media/stimuli/animate_006_left.png"" class=""coveredImage test"" style = ""width:100px; height:100px; position:fixed; top:10%;    transform: translate(-50%, -50%);left:48%""></img><img src=""media/stimuli/animate_010_left.png"" class=""coveredImage test"" style = ""width:100px; height:100px;position:fixed; top:25%;        transform: translate(-50%, -50%);left:38%""></img><img src=""media/stimuli/animate_006_left.png"" class=""coveredImage test"" style = ""width:100px; height:100px;position:fixed; top:25%;        transform: translate(-50%, -50%);left:54.5%""></img><img src=""media/stimuli/animate_006_left.png"" class=""coveredImage test"" style = ""width:100px; height:100px;position:fixed; top:25%;        transform: translate(-50%, -50%);left:61.5%""></img><img src=""media/f.png""style = ""width:30px x; height:30px;position:fixed; top:43%;    transform: translate(-50%, -50%);left:40%""></img><img src=""media/j.png""style = ""width:30px; height:30px;position:fixed; top:43%;    transform: translate(-50%, -50%);left:60%""></img>","media/stimuli/animate_006_left.png","animate","left","single","media/stimuli/animate_010_left.png","animate","left","single","media/stimuli/animate_006_left.png","animate","left","pair","identity_number","","","",""
"","","","","","html-keyboard-response","52","272057","0.0-52.0","SS1678233247825","63e84a9ea3f6d5acdc598a6a","6406d7f26dd5b7fc1e3377bd","6407ce799e832a61f2db5ba8","1920","937","","2953","","j","","","<img src=""media/stimuli/animate_004_right.png"" class=""coveredImage test"" style = ""width:100px; height:100px; position:fixed; top:10%;    transform: translate(-50%, -50%);left:48%""></img><img src=""media/stimuli/inanimate_004_right.png"" class=""coveredImage test"" style = ""width:100px; height:100px;position:fixed; top:25%;        transform: translate(-50%, -50%);left:38%""></img><img src=""media/stimuli/animate_009_right.png"" class=""coveredImage test"" style = ""width:100px; height:100px;position:fixed; top:25%;        transform: translate(-50%, -50%);left:58%""></img><img src=""media/f.png""style = ""width:30px x; height:30px;position:fixed; top:43%;    transform: translate(-50%, -50%);left:40%""></img><img src=""media/j.png""style = ""width:30px; height:30px;position:fixed; top:43%;    transform: translate(-50%, -50%);left:60%""></img>","media/stimuli/animate_004_right.png","animate","right","single","media/stimuli/inanimate_004_right.png","inanimate","right","single","media/stimuli/animate_009_right.png","animate","right","single","animacy_identity","","","",""
"","","","","","html-keyboard-response","53","273850","0.0-53.0","SS1678233247825","63e84a9ea3f6d5acdc598a6a","6406d7f26dd5b7fc1e3377bd","6407ce799e832a61f2db5ba8","1920","937","","1785","","j","","","<img src=""media/stimuli/animate_011_right.png"" class=""coveredImage test"" style = ""width:100px; height:100px; position:fixed; top:10%;    transform: translate(-50%, -50%);left:44.5%""></img><img src=""media/stimuli/animate_011_right.png"" class=""coveredImage test"" style = ""width:100px; height:100px; position:fixed; top:10%;    transform: translate(-50%, -50%);left:51.5%""></img><img src=""media/stimuli/inanimate_005_left.png"" class=""coveredImage test"" style = ""width:100px; height:100px;position:fixed; top:25%;        transform: translate(-50%, -50%);left:38%""></img><img src=""media/stimuli/animate_011_right.png"" class=""coveredImage test"" style = ""width:100px; height:100px;position:fixed; top:25%;        transform: translate(-50%, -50%);left:58%""></img><img src=""media/f.png""style = ""width:30px x; height:30px;position:fixed; top:43%;    transform: translate(-50%, -50%);left:40%""></img><img src=""media/j.png""style = ""width:30px; height:30px;position:fixed; top:43%;    transform: translate(-50%, -50%);left:60%""></img>","media/stimuli/animate_011_right.png","animate","right","pair","media/stimuli/inanimate_005_left.png","inanimate","left","single","media/stimuli/animate_011_right.png","animate","right","single","animacy_pose","","","",""
"","","","","","html-keyboard-response","54","275760","0.0-54.0","SS1678233247825","63e84a9ea3f6d5acdc598a6a","6406d7f26dd5b7fc1e3377bd","6407ce799e832a61f2db5ba8","1920","937","","1899","","f","","","<img src=""media/stimuli/animate_007_right.png"" class=""coveredImage test"" style = ""width:100px; height:100px; position:fixed; top:10%;    transform: translate(-50%, -50%);left:48%""></img><img src=""media/stimuli/animate_007_right.png"" class=""coveredImage test"" style = ""width:100px; height:100px;position:fixed; top:25%;        transform: translate(-50%, -50%);left:34.5%""></img><img src=""media/stimuli/animate_007_right.png"" class=""coveredImage test"" style = ""width:100px; height:100px;position:fixed; top:25%;        transform: translate(-50%, -50%);left:41.5%""></img><img src=""media/stimuli/inanimate_003_right.png"" class=""coveredImage test"" style = ""width:100px; height:100px;position:fixed; top:25%;        transform: translate(-50%, -50%);left:58%""></img><img src=""media/f.png""style = ""width:30px x; height:30px;position:fixed; top:43%;    transform: translate(-50%, -50%);left:40%""></img><img src=""media/j.png""style = ""width:30px; height:30px;position:fixed; top:43%;    transform: translate(-50%, -50%);left:60%""></img>","media/stimuli/animate_007_right.png","animate","right","single","media/stimuli/animate_007_right.png","animate","right","pair","media/stimuli/inanimate_003_right.png","inanimate","right","single","number_animacy","","","",""
"","","","","","html-keyboard-response","55","278665","0.0-55.0","SS1678233247825","63e84a9ea3f6d5acdc598a6a","6406d7f26dd5b7fc1e3377bd","6407ce799e832a61f2db5ba8","1920","937","","2900","","f","","","<img src=""media/stimuli/inanimate_012_right.png"" class=""coveredImage test"" style = ""width:100px; height:100px; position:fixed; top:10%;    transform: translate(-50%, -50%);left:48%""></img><img src=""media/stimuli/inanimate_012_right.png"" class=""coveredImage test"" style = ""width:100px; height:100px;position:fixed; top:25%;        transform: translate(-50%, -50%);left:34.5%""></img><img src=""media/stimuli/inanimate_012_right.png"" class=""coveredImage test"" style = ""width:100px; height:100px;position:fixed; top:25%;        transform: translate(-50%, -50%);left:41.5%""></img><img src=""media/stimuli/inanimate_012_left.png"" class=""coveredImage test"" style = ""width:100px; height:100px;position:fixed; top:25%;        transform: translate(-50%, -50%);left:58%""></img><img src=""media/f.png""style = ""width:30px x; height:30px;position:fixed; top:43%;    transform: translate(-50%, -50%);left:40%""></img><img src=""media/j.png""style = ""width:30px; height:30px;position:fixed; top:43%;    transform: translate(-50%, -50%);left:60%""></img>","media/stimuli/inanimate_012_right.png","inanimate","right","single","media/stimuli/inanimate_012_right.png","inanimate","right","pair","media/stimuli/inanimate_012_left.png","inanimate","left","single","number_pose","","","",""
"","","","","","html-keyboard-response","56","280345","0.0-56.0","SS1678233247825","63e84a9ea3f6d5acdc598a6a","6406d7f26dd5b7fc1e3377bd","6407ce799e832a61f2db5ba8","1920","937","","1668","","f","","","<img src=""media/stimuli/inanimate_007_left.png"" class=""coveredImage test"" style = ""width:100px; height:100px; position:fixed; top:10%;    transform: translate(-50%, -50%);left:44.5%""></img><img src=""media/stimuli/inanimate_007_left.png"" class=""coveredImage test"" style = ""width:100px; height:100px; position:fixed; top:10%;    transform: translate(-50%, -50%);left:51.5%""></img><img src=""media/stimuli/inanimate_011_left.png"" class=""coveredImage test"" style = ""width:100px; height:100px;position:fixed; top:25%;        transform: translate(-50%, -50%);left:34.5%""></img><img src=""media/stimuli/inanimate_011_left.png"" class=""coveredImage test"" style = ""width:100px; height:100px;position:fixed; top:25%;        transform: translate(-50%, -50%);left:41.5%""></img><img src=""media/stimuli/animate_003_left.png"" class=""coveredImage test"" style = ""width:100px; height:100px;position:fixed; top:25%;        transform: translate(-50%, -50%);left:54.5%""></img><img src=""media/stimuli/animate_003_left.png"" class=""coveredImage test"" style = ""width:100px; height:100px;position:fixed; top:25%;        transform: translate(-50%, -50%);left:61.5%""></img><img src=""media/f.png""style = ""width:30px x; height:30px;position:fixed; top:43%;    transform: translate(-50%, -50%);left:40%""></img><img src=""media/j.png""style = ""width:30px; height:30px;position:fixed; top:43%;    transform: translate(-50%, -50%);left:60%""></img>","media/stimuli/inanimate_007_left.png","inanimate","left","pair","media/stimuli/inanimate_011_left.png","inanimate","left","pair","media/stimuli/animate_003_left.png","animate","left","pair","identity_animacy","","","",""
"","","","","","html-keyboard-response","57","282144","0.0-57.0","SS1678233247825","63e84a9ea3f6d5acdc598a6a","6406d7f26dd5b7fc1e3377bd","6407ce799e832a61f2db5ba8","1920","937","","1791","","f","","","<img src=""media/stimuli/animate_009_left.png"" class=""coveredImage test"" style = ""width:100px; height:100px; position:fixed; top:10%;    transform: translate(-50%, -50%);left:48%""></img><img src=""media/stimuli/animate_009_right.png"" class=""coveredImage test"" style = ""width:100px; height:100px;position:fixed; top:25%;        transform: translate(-50%, -50%);left:34.5%""></img><img src=""media/stimuli/animate_009_right.png"" class=""coveredImage test"" style = ""width:100px; height:100px;position:fixed; top:25%;        transform: translate(-50%, -50%);left:41.5%""></img><img src=""media/stimuli/inanimate_011_left.png"" class=""coveredImage test"" style = ""width:100px; height:100px;position:fixed; top:25%;        transform: translate(-50%, -50%);left:54.5%""></img><img src=""media/stimuli/inanimate_011_left.png"" class=""coveredImage test"" style = ""width:100px; height:100px;position:fixed; top:25%;        transform: translate(-50%, -50%);left:61.5%""></img><img src=""media/f.png""style = ""width:30px x; height:30px;position:fixed; top:43%;    transform: translate(-50%, -50%);left:40%""></img><img src=""media/j.png""style = ""width:30px; height:30px;position:fixed; top:43%;    transform: translate(-50%, -50%);left:60%""></img>","media/stimuli/animate_009_left.png","animate","left","single","media/stimuli/animate_009_right.png","animate","right","pair","media/stimuli/inanimate_011_left.png","inanimate","left","pair","pose_animacy","","","",""
"","","","","","html-keyboard-response","58","283761","0.0-58.0","SS1678233247825","63e84a9ea3f6d5acdc598a6a","6406d7f26dd5b7fc1e3377bd","6407ce799e832a61f2db5ba8","1920","937","","1607","","j","","","<img src=""media/stimuli/animate_001_left.png"" class=""coveredImage test"" style = ""width:100px; height:100px; position:fixed; top:10%;    transform: translate(-50%, -50%);left:44.5%""></img><img src=""media/stimuli/animate_001_left.png"" class=""coveredImage test"" style = ""width:100px; height:100px; position:fixed; top:10%;    transform: translate(-50%, -50%);left:51.5%""></img><img src=""media/stimuli/inanimate_001_left.png"" class=""coveredImage test"" style = ""width:100px; height:100px;position:fixed; top:25%;        transform: translate(-50%, -50%);left:34.5%""></img><img src=""media/stimuli/inanimate_001_left.png"" class=""coveredImage test"" style = ""width:100px; height:100px;position:fixed; top:25%;        transform: translate(-50%, -50%);left:41.5%""></img><img src=""media/stimuli/animate_001_left.png"" class=""coveredImage test"" style = ""width:100px; height:100px;position:fixed; top:25%;        transform: translate(-50%, -50%);left:58%""></img><img src=""media/f.png""style = ""width:30px x; height:30px;position:fixed; top:43%;    transform: translate(-50%, -50%);left:40%""></img><img src=""media/j.png""style = ""width:30px; height:30px;position:fixed; top:43%;    transform: translate(-50%, -50%);left:60%""></img>","media/stimuli/animate_001_left.png","animate","left","pair","media/stimuli/inanimate_001_left.png","inanimate","left","pair","media/stimuli/animate_001_left.png","animate","left","single","animacy_number","","","",""
"","","","","","html-keyboard-response","59","285098","0.0-59.0","SS1678233247825","63e84a9ea3f6d5acdc598a6a","6406d7f26dd5b7fc1e3377bd","6407ce799e832a61f2db5ba8","1920","937","","1330","","j","","","","","","","","","","","","","","","","","","","",""
"","","","","","html-keyboard-response","60","288553","0.0-60.0","SS1678233247825","63e84a9ea3f6d5acdc598a6a","6406d7f26dd5b7fc1e3377bd","6407ce799e832a61f2db5ba8","1920","937","","3445","","j","","","<img src=""media/stimuli/animate_002_left.png"" class=""coveredImage test"" style = ""width:100px; height:100px; position:fixed; top:10%;    transform: translate(-50%, -50%);left:44.5%""></img><img src=""media/stimuli/animate_002_left.png"" class=""coveredImage test"" style = ""width:100px; height:100px; position:fixed; top:10%;    transform: translate(-50%, -50%);left:51.5%""></img><img src=""media/stimuli/animate_002_right.png"" class=""coveredImage test"" style = ""width:100px; height:100px;position:fixed; top:25%;        transform: translate(-50%, -50%);left:34.5%""></img><img src=""media/stimuli/animate_002_right.png"" class=""coveredImage test"" style = ""width:100px; height:100px;position:fixed; top:25%;        transform: translate(-50%, -50%);left:41.5%""></img><img src=""media/stimuli/animate_002_left.png"" class=""coveredImage test"" style = ""width:100px; height:100px;position:fixed; top:25%;        transform: translate(-50%, -50%);left:58%""></img><img src=""media/f.png""style = ""width:30px x; height:30px;position:fixed; top:43%;    transform: translate(-50%, -50%);left:40%""></img><img src=""media/j.png""style = ""width:30px; height:30px;position:fixed; top:43%;    transform: translate(-50%, -50%);left:60%""></img>","media/stimuli/animate_002_left.png","animate","left","pair","media/stimuli/animate_002_right.png","animate","right","pair","media/stimuli/animate_002_left.png","animate","left","single","pose_number","","","",""
"","","","","","html-keyboard-response","61","290616","0.0-61.0","SS1678233247825","63e84a9ea3f6d5acdc598a6a","6406d7f26dd5b7fc1e3377bd","6407ce799e832a61f2db5ba8","1920","937","","2053","","j","","","<img src=""media/stimuli/inanimate_012_right.png"" class=""coveredImage test"" style = ""width:100px; height:100px; position:fixed; top:10%;    transform: translate(-50%, -50%);left:48%""></img><img src=""media/stimuli/animate_010_right.png"" class=""coveredImage test"" style = ""width:100px; height:100px;position:fixed; top:25%;        transform: translate(-50%, -50%);left:38%""></img><img src=""media/stimuli/inanimate_006_right.png"" class=""coveredImage test"" style = ""width:100px; height:100px;position:fixed; top:25%;        transform: translate(-50%, -50%);left:58%""></img><img src=""media/f.png""style = ""width:30px x; height:30px;position:fixed; top:43%;    transform: translate(-50%, -50%);left:40%""></img><img src=""media/j.png""style = ""width:30px; height:30px;position:fixed; top:43%;    transform: translate(-50%, -50%);left:60%""></img>","media/stimuli/inanimate_012_right.png","inanimate","right","single","media/stimuli/animate_010_right.png","animate","right","single","media/stimuli/inanimate_006_right.png","inanimate","right","single","animacy_identity","","","",""
"","","","","","html-keyboard-response","62","292520","0.0-62.0","SS1678233247825","63e84a9ea3f6d5acdc598a6a","6406d7f26dd5b7fc1e3377bd","6407ce799e832a61f2db5ba8","1920","937","","1893","","j","","","<img src=""media/stimuli/inanimate_010_left.png"" class=""coveredImage test"" style = ""width:100px; height:100px; position:fixed; top:10%;    transform: translate(-50%, -50%);left:44.5%""></img><img src=""media/stimuli/inanimate_010_left.png"" class=""coveredImage test"" style = ""width:100px; height:100px; position:fixed; top:10%;    transform: translate(-50%, -50%);left:51.5%""></img><img src=""media/stimuli/inanimate_003_left.png"" class=""coveredImage test"" style = ""width:100px; height:100px;position:fixed; top:25%;        transform: translate(-50%, -50%);left:34.5%""></img><img src=""media/stimuli/inanimate_003_left.png"" class=""coveredImage test"" style = ""width:100px; height:100px;position:fixed; top:25%;        transform: translate(-50%, -50%);left:41.5%""></img><img src=""media/stimuli/inanimate_010_left.png"" class=""coveredImage test"" style = ""width:100px; height:100px;position:fixed; top:25%;        transform: translate(-50%, -50%);left:58%""></img><img src=""media/f.png""style = ""width:30px x; height:30px;position:fixed; top:43%;    transform: translate(-50%, -50%);left:40%""></img><img src=""media/j.png""style = ""width:30px; height:30px;position:fixed; top:43%;    transform: translate(-50%, -50%);left:60%""></img>","media/stimuli/inanimate_010_left.png","inanimate","left","pair","media/stimuli/inanimate_003_left.png","inanimate","left","pair","media/stimuli/inanimate_010_left.png","inanimate","left","single","identity_number","","","",""
"","","","","","html-keyboard-response","63","299128","0.0-63.0","SS1678233247825","63e84a9ea3f6d5acdc598a6a","6406d7f26dd5b7fc1e3377bd","6407ce799e832a61f2db5ba8","1920","937","","6600","","f","","","<img src=""media/stimuli/animate_001_left.png"" class=""coveredImage test"" style = ""width:100px; height:100px; position:fixed; top:10%;    transform: translate(-50%, -50%);left:44.5%""></img><img src=""media/stimuli/animate_001_left.png"" class=""coveredImage test"" style = ""width:100px; height:100px; position:fixed; top:10%;    transform: translate(-50%, -50%);left:51.5%""></img><img src=""media/stimuli/animate_001_right.png"" class=""coveredImage test"" style = ""width:100px; height:100px;position:fixed; top:25%;        transform: translate(-50%, -50%);left:34.5%""></img><img src=""media/stimuli/animate_001_right.png"" class=""coveredImage test"" style = ""width:100px; height:100px;position:fixed; top:25%;        transform: translate(-50%, -50%);left:41.5%""></img><img src=""media/stimuli/animate_010_left.png"" class=""coveredImage test"" style = ""width:100px; height:100px;position:fixed; top:25%;        transform: translate(-50%, -50%);left:54.5%""></img><img src=""media/stimuli/animate_010_left.png"" class=""coveredImage test"" style = ""width:100px; height:100px;position:fixed; top:25%;        transform: translate(-50%, -50%);left:61.5%""></img><img src=""media/f.png""style = ""width:30px x; height:30px;position:fixed; top:43%;    transform: translate(-50%, -50%);left:40%""></img><img src=""media/j.png""style = ""width:30px; height:30px;position:fixed; top:43%;    transform: translate(-50%, -50%);left:60%""></img>","media/stimuli/animate_001_left.png","animate","left","pair","media/stimuli/animate_001_right.png","animate","right","pair","media/stimuli/animate_010_left.png","animate","left","pair","pose_identity","","","",""
"","","","","","html-keyboard-response","64","301016","0.0-64.0","SS1678233247825","63e84a9ea3f6d5acdc598a6a","6406d7f26dd5b7fc1e3377bd","6407ce799e832a61f2db5ba8","1920","937","","1882","","f","","","<img src=""media/stimuli/animate_005_left.png"" class=""coveredImage test"" style = ""width:100px; height:100px; position:fixed; top:10%;    transform: translate(-50%, -50%);left:48%""></img><img src=""media/stimuli/animate_005_right.png"" class=""coveredImage test"" style = ""width:100px; height:100px;position:fixed; top:25%;        transform: translate(-50%, -50%);left:38%""></img><img src=""media/stimuli/animate_007_left.png"" class=""coveredImage test"" style = ""width:100px; height:100px;position:fixed; top:25%;        transform: translate(-50%, -50%);left:58%""></img><img src=""media/f.png""style = ""width:30px x; height:30px;position:fixed; top:43%;    transform: translate(-50%, -50%);left:40%""></img><img src=""media/j.png""style = ""width:30px; height:30px;position:fixed; top:43%;    transform: translate(-50%, -50%);left:60%""></img>","media/stimuli/animate_005_left.png","animate","left","single","media/stimuli/animate_005_right.png","animate","right","single","media/stimuli/animate_007_left.png","animate","left","single","pose_identity","","","",""
"","","","","","html-keyboard-response","65","302631","0.0-65.0","SS1678233247825","63e84a9ea3f6d5acdc598a6a","6406d7f26dd5b7fc1e3377bd","6407ce799e832a61f2db5ba8","1920","937","","1601","","f","","","<img src=""media/stimuli/animate_003_left.png"" class=""coveredImage test"" style = ""width:100px; height:100px; position:fixed; top:10%;    transform: translate(-50%, -50%);left:44.5%""></img><img src=""media/stimuli/animate_003_left.png"" class=""coveredImage test"" style = ""width:100px; height:100px; position:fixed; top:10%;    transform: translate(-50%, -50%);left:51.5%""></img><img src=""media/stimuli/animate_010_left.png"" class=""coveredImage test"" style = ""width:100px; height:100px;position:fixed; top:25%;        transform: translate(-50%, -50%);left:34.5%""></img><img src=""media/stimuli/animate_010_left.png"" class=""coveredImage test"" style = ""width:100px; height:100px;position:fixed; top:25%;        transform: translate(-50%, -50%);left:41.5%""></img><img src=""media/stimuli/inanimate_006_left.png"" class=""coveredImage test"" style = ""width:100px; height:100px;position:fixed; top:25%;        transform: translate(-50%, -50%);left:54.5%""></img><img src=""media/stimuli/inanimate_006_left.png"" class=""coveredImage test"" style = ""width:100px; height:100px;position:fixed; top:25%;        transform: translate(-50%, -50%);left:61.5%""></img><img src=""media/f.png""style = ""width:30px x; height:30px;position:fixed; top:43%;    transform: translate(-50%, -50%);left:40%""></img><img src=""media/j.png""style = ""width:30px; height:30px;position:fixed; top:43%;    transform: translate(-50%, -50%);left:60%""></img>","media/stimuli/animate_003_left.png","animate","left","pair","media/stimuli/animate_010_left.png","animate","left","pair","media/stimuli/inanimate_006_left.png","inanimate","left","pair","identity_animacy","","","",""
"","","","","","html-keyboard-response","66","307120","0.0-66.0","SS1678233247825","63e84a9ea3f6d5acdc598a6a","6406d7f26dd5b7fc1e3377bd","6407ce799e832a61f2db5ba8","1920","937","","4484","","f","","","<img src=""media/stimuli/animate_012_right.png"" class=""coveredImage test"" style = ""width:100px; height:100px; position:fixed; top:10%;    transform: translate(-50%, -50%);left:48%""></img><img src=""media/stimuli/animate_006_right.png"" class=""coveredImage test"" style = ""width:100px; height:100px;position:fixed; top:25%;        transform: translate(-50%, -50%);left:38%""></img><img src=""media/stimuli/inanimate_001_right.png"" class=""coveredImage test"" style = ""width:100px; height:100px;position:fixed; top:25%;        transform: translate(-50%, -50%);left:58%""></img><img src=""media/f.png""style = ""width:30px x; height:30px;position:fixed; top:43%;    transform: translate(-50%, -50%);left:40%""></img><img src=""media/j.png""style = ""width:30px; height:30px;position:fixed; top:43%;    transform: translate(-50%, -50%);left:60%""></img>","media/stimuli/animate_012_right.png","animate","right","single","media/stimuli/animate_006_right.png","animate","right","single","media/stimuli/inanimate_001_right.png","inanimate","right","single","identity_animacy","","","",""
"","","","","","html-keyboard-response","67","309242","0.0-67.0","SS1678233247825","63e84a9ea3f6d5acdc598a6a","6406d7f26dd5b7fc1e3377bd","6407ce799e832a61f2db5ba8","1920","937","","2102","","j","","","<img src=""media/stimuli/inanimate_004_left.png"" class=""coveredImage test"" style = ""width:100px; height:100px; position:fixed; top:10%;    transform: translate(-50%, -50%);left:44.5%""></img><img src=""media/stimuli/inanimate_004_left.png"" class=""coveredImage test"" style = ""width:100px; height:100px; position:fixed; top:10%;    transform: translate(-50%, -50%);left:51.5%""></img><img src=""media/stimuli/inanimate_003_left.png"" class=""coveredImage test"" style = ""width:100px; height:100px;position:fixed; top:25%;        transform: translate(-50%, -50%);left:34.5%""></img><img src=""media/stimuli/inanimate_003_left.png"" class=""coveredImage test"" style = ""width:100px; height:100px;position:fixed; top:25%;        transform: translate(-50%, -50%);left:41.5%""></img><img src=""media/stimuli/inanimate_004_right.png"" class=""coveredImage test"" style = ""width:100px; height:100px;position:fixed; top:25%;        transform: translate(-50%, -50%);left:54.5%""></img><img src=""media/stimuli/inanimate_004_right.png"" class=""coveredImage test"" style = ""width:100px; height:100px;position:fixed; top:25%;        transform: translate(-50%, -50%);left:61.5%""></img><img src=""media/f.png""style = ""width:30px x; height:30px;position:fixed; top:43%;    transform: translate(-50%, -50%);left:40%""></img><img src=""media/j.png""style = ""width:30px; height:30px;position:fixed; top:43%;    transform: translate(-50%, -50%);left:60%""></img>","media/stimuli/inanimate_004_left.png","inanimate","left","pair","media/stimuli/inanimate_003_left.png","inanimate","left","pair","media/stimuli/inanimate_004_right.png","inanimate","right","pair","identity_pose","","","",""
"","","","","","html-keyboard-response","68","310752","0.0-68.0","SS1678233247825","63e84a9ea3f6d5acdc598a6a","6406d7f26dd5b7fc1e3377bd","6407ce799e832a61f2db5ba8","1920","937","","1499","","f","","","<img src=""media/stimuli/inanimate_005_right.png"" class=""coveredImage test"" style = ""width:100px; height:100px; position:fixed; top:10%;    transform: translate(-50%, -50%);left:48%""></img><img src=""media/stimuli/inanimate_005_left.png"" class=""coveredImage test"" style = ""width:100px; height:100px;position:fixed; top:25%;        transform: translate(-50%, -50%);left:38%""></img><img src=""media/stimuli/animate_004_right.png"" class=""coveredImage test"" style = ""width:100px; height:100px;position:fixed; top:25%;        transform: translate(-50%, -50%);left:58%""></img><img src=""media/f.png""style = ""width:30px x; height:30px;position:fixed; top:43%;    transform: translate(-50%, -50%);left:40%""></img><img src=""media/j.png""style = ""width:30px; height:30px;position:fixed; top:43%;    transform: translate(-50%, -50%);left:60%""></img>","media/stimuli/inanimate_005_right.png","inanimate","right","single","media/stimuli/inanimate_005_left.png","inanimate","left","single","media/stimuli/animate_004_right.png","animate","right","single","pose_animacy","","","",""
"","","","","","html-keyboard-response","69","312009","0.0-69.0","SS1678233247825","63e84a9ea3f6d5acdc598a6a","6406d7f26dd5b7fc1e3377bd","6407ce799e832a61f2db5ba8","1920","937","","1244","","j","","","<img src=""media/stimuli/animate_002_left.png"" class=""coveredImage test"" style = ""width:100px; height:100px; position:fixed; top:10%;    transform: translate(-50%, -50%);left:48%""></img><img src=""media/stimuli/inanimate_008_right.png"" class=""coveredImage test"" style = ""width:100px; height:100px;position:fixed; top:25%;        transform: translate(-50%, -50%);left:38%""></img><img src=""media/stimuli/animate_002_left.png"" class=""coveredImage test"" style = ""width:100px; height:100px;position:fixed; top:25%;        transform: translate(-50%, -50%);left:58%""></img><img src=""media/f.png""style = ""width:30px x; height:30px;position:fixed; top:43%;    transform: translate(-50%, -50%);left:40%""></img><img src=""media/j.png""style = ""width:30px; height:30px;position:fixed; top:43%;    transform: translate(-50%, -50%);left:60%""></img>","media/stimuli/animate_002_left.png","animate","left","single","media/stimuli/inanimate_008_right.png","inanimate","right","single","media/stimuli/animate_002_left.png","animate","left","single","animacy_pose","","","",""
"","","","","","html-keyboard-response","70","313809","0.0-70.0","SS1678233247825","63e84a9ea3f6d5acdc598a6a","6406d7f26dd5b7fc1e3377bd","6407ce799e832a61f2db5ba8","1920","937","","1791","","f","","","<img src=""media/stimuli/animate_010_right.png"" class=""coveredImage test"" style = ""width:100px; height:100px; position:fixed; top:10%;    transform: translate(-50%, -50%);left:48%""></img><img src=""media/stimuli/animate_010_right.png"" class=""coveredImage test"" style = ""width:100px; height:100px;position:fixed; top:25%;        transform: translate(-50%, -50%);left:34.5%""></img><img src=""media/stimuli/animate_010_right.png"" class=""coveredImage test"" style = ""width:100px; height:100px;position:fixed; top:25%;        transform: translate(-50%, -50%);left:41.5%""></img><img src=""media/stimuli/animate_006_right.png"" class=""coveredImage test"" style = ""width:100px; height:100px;position:fixed; top:25%;        transform: translate(-50%, -50%);left:58%""></img><img src=""media/f.png""style = ""width:30px x; height:30px;position:fixed; top:43%;    transform: translate(-50%, -50%);left:40%""></img><img src=""media/j.png""style = ""width:30px; height:30px;position:fixed; top:43%;    transform: translate(-50%, -50%);left:60%""></img>","media/stimuli/animate_010_right.png","animate","right","single","media/stimuli/animate_010_right.png","animate","right","pair","media/stimuli/animate_006_right.png","animate","right","single","number_identity","","","",""
"","","","","","html-keyboard-response","71","315648","0.0-71.0","SS1678233247825","63e84a9ea3f6d5acdc598a6a","6406d7f26dd5b7fc1e3377bd","6407ce799e832a61f2db5ba8","1920","937","","1828","","j","","","<img src=""media/stimuli/animate_002_left.png"" class=""coveredImage test"" style = ""width:100px; height:100px; position:fixed; top:10%;    transform: translate(-50%, -50%);left:48%""></img><img src=""media/stimuli/animate_003_left.png"" class=""coveredImage test"" style = ""width:100px; height:100px;position:fixed; top:25%;        transform: translate(-50%, -50%);left:38%""></img><img src=""media/stimuli/animate_002_left.png"" class=""coveredImage test"" style = ""width:100px; height:100px;position:fixed; top:25%;        transform: translate(-50%, -50%);left:54.5%""></img><img src=""media/stimuli/animate_002_left.png"" class=""coveredImage test"" style = ""width:100px; height:100px;position:fixed; top:25%;        transform: translate(-50%, -50%);left:61.5%""></img><img src=""media/f.png""style = ""width:30px x; height:30px;position:fixed; top:43%;    transform: translate(-50%, -50%);left:40%""></img><img src=""media/j.png""style = ""width:30px; height:30px;position:fixed; top:43%;    transform: translate(-50%, -50%);left:60%""></img>","media/stimuli/animate_002_left.png","animate","left","single","media/stimuli/animate_003_left.png","animate","left","single","media/stimuli/animate_002_left.png","animate","left","pair","identity_number","","","",""
"","","","","","html-keyboard-response","72","316760","0.0-72.0","SS1678233247825","63e84a9ea3f6d5acdc598a6a","6406d7f26dd5b7fc1e3377bd","6407ce799e832a61f2db5ba8","1920","937","","1101","","j","","","","","","","","","","","","","","","","","","","",""
"","","","","","html-keyboard-response","73","320143","0.0-73.0","SS1678233247825","63e84a9ea3f6d5acdc598a6a","6406d7f26dd5b7fc1e3377bd","6407ce799e832a61f2db5ba8","1920","937","","3373","","j","","","<img src=""media/stimuli/animate_004_right.png"" class=""coveredImage test"" style = ""width:100px; height:100px; position:fixed; top:10%;    transform: translate(-50%, -50%);left:48%""></img><img src=""media/stimuli/animate_004_right.png"" class=""coveredImage test"" style = ""width:100px; height:100px;position:fixed; top:25%;        transform: translate(-50%, -50%);left:34.5%""></img><img src=""media/stimuli/animate_004_right.png"" class=""coveredImage test"" style = ""width:100px; height:100px;position:fixed; top:25%;        transform: translate(-50%, -50%);left:41.5%""></img><img src=""media/stimuli/animate_004_left.png"" class=""coveredImage test"" style = ""width:100px; height:100px;position:fixed; top:25%;        transform: translate(-50%, -50%);left:58%""></img><img src=""media/f.png""style = ""width:30px x; height:30px;position:fixed; top:43%;    transform: translate(-50%, -50%);left:40%""></img><img src=""media/j.png""style = ""width:30px; height:30px;position:fixed; top:43%;    transform: translate(-50%, -50%);left:60%""></img>","media/stimuli/animate_004_right.png","animate","right","single","media/stimuli/animate_004_right.png","animate","right","pair","media/stimuli/animate_004_left.png","animate","left","single","number_pose","","","",""
"","","","","","html-keyboard-response","74","324032","0.0-74.0","SS1678233247825","63e84a9ea3f6d5acdc598a6a","6406d7f26dd5b7fc1e3377bd","6407ce799e832a61f2db5ba8","1920","937","","3886","","j","","","<img src=""media/stimuli/inanimate_001_left.png"" class=""coveredImage test"" style = ""width:100px; height:100px; position:fixed; top:10%;    transform: translate(-50%, -50%);left:44.5%""></img><img src=""media/stimuli/inanimate_001_left.png"" class=""coveredImage test"" style = ""width:100px; height:100px; position:fixed; top:10%;    transform: translate(-50%, -50%);left:51.5%""></img><img src=""media/stimuli/inanimate_001_left.png"" class=""coveredImage test"" style = ""width:100px; height:100px;position:fixed; top:25%;        transform: translate(-50%, -50%);left:38%""></img><img src=""media/stimuli/inanimate_001_right.png"" class=""coveredImage test"" style = ""width:100px; height:100px;position:fixed; top:25%;        transform: translate(-50%, -50%);left:54.5%""></img><img src=""media/stimuli/inanimate_001_right.png"" class=""coveredImage test"" style = ""width:100px; height:100px;position:fixed; top:25%;        transform: translate(-50%, -50%);left:61.5%""></img><img src=""media/f.png""style = ""width:30px x; height:30px;position:fixed; top:43%;    transform: translate(-50%, -50%);left:40%""></img><img src=""media/j.png""style = ""width:30px; height:30px;position:fixed; top:43%;    transform: translate(-50%, -50%);left:60%""></img>","media/stimuli/inanimate_001_left.png","inanimate","left","pair","media/stimuli/inanimate_001_left.png","inanimate","left","single","media/stimuli/inanimate_001_right.png","inanimate","right","pair","number_pose","","","",""
"","","","","","html-keyboard-response","75","327442","0.0-75.0","SS1678233247825","63e84a9ea3f6d5acdc598a6a","6406d7f26dd5b7fc1e3377bd","6407ce799e832a61f2db5ba8","1920","937","","3398","","f","","","<img src=""media/stimuli/animate_011_right.png"" class=""coveredImage test"" style = ""width:100px; height:100px; position:fixed; top:10%;    transform: translate(-50%, -50%);left:44.5%""></img><img src=""media/stimuli/animate_011_right.png"" class=""coveredImage test"" style = ""width:100px; height:100px; position:fixed; top:10%;    transform: translate(-50%, -50%);left:51.5%""></img><img src=""media/stimuli/animate_011_right.png"" class=""coveredImage test"" style = ""width:100px; height:100px;position:fixed; top:25%;        transform: translate(-50%, -50%);left:38%""></img><img src=""media/stimuli/animate_004_right.png"" class=""coveredImage test"" style = ""width:100px; height:100px;position:fixed; top:25%;        transform: translate(-50%, -50%);left:54.5%""></img><img src=""media/stimuli/animate_004_right.png"" class=""coveredImage test"" style = ""width:100px; height:100px;position:fixed; top:25%;        transform: translate(-50%, -50%);left:61.5%""></img><img src=""media/f.png""style = ""width:30px x; height:30px;position:fixed; top:43%;    transform: translate(-50%, -50%);left:40%""></img><img src=""media/j.png""style = ""width:30px; height:30px;position:fixed; top:43%;    transform: translate(-50%, -50%);left:60%""></img>","media/stimuli/animate_011_right.png","animate","right","pair","media/stimuli/animate_011_right.png","animate","right","single","media/stimuli/animate_004_right.png","animate","right","pair","number_identity","","","",""
"","","","","","html-keyboard-response","76","329543","0.0-76.0","SS1678233247825","63e84a9ea3f6d5acdc598a6a","6406d7f26dd5b7fc1e3377bd","6407ce799e832a61f2db5ba8","1920","937","","2090","","j","","","<img src=""media/stimuli/inanimate_005_right.png"" class=""coveredImage test"" style = ""width:100px; height:100px; position:fixed; top:10%;    transform: translate(-50%, -50%);left:48%""></img><img src=""media/stimuli/animate_009_right.png"" class=""coveredImage test"" style = ""width:100px; height:100px;position:fixed; top:25%;        transform: translate(-50%, -50%);left:38%""></img><img src=""media/stimuli/inanimate_005_left.png"" class=""coveredImage test"" style = ""width:100px; height:100px;position:fixed; top:25%;        transform: translate(-50%, -50%);left:58%""></img><img src=""media/f.png""style = ""width:30px x; height:30px;position:fixed; top:43%;    transform: translate(-50%, -50%);left:40%""></img><img src=""media/j.png""style = ""width:30px; height:30px;position:fixed; top:43%;    transform: translate(-50%, -50%);left:60%""></img>","media/stimuli/inanimate_005_right.png","inanimate","right","single","media/stimuli/animate_009_right.png","animate","right","single","media/stimuli/inanimate_005_left.png","inanimate","left","single","animacy_pose","","","",""
"","","","","","html-keyboard-response","77","331243","0.0-77.0","SS1678233247825","63e84a9ea3f6d5acdc598a6a","6406d7f26dd5b7fc1e3377bd","6407ce799e832a61f2db5ba8","1920","937","","1691","","j","","","<img src=""media/stimuli/inanimate_007_left.png"" class=""coveredImage test"" style = ""width:100px; height:100px; position:fixed; top:10%;    transform: translate(-50%, -50%);left:44.5%""></img><img src=""media/stimuli/inanimate_007_left.png"" class=""coveredImage test"" style = ""width:100px; height:100px; position:fixed; top:10%;    transform: translate(-50%, -50%);left:51.5%""></img><img src=""media/stimuli/inanimate_012_left.png"" class=""coveredImage test"" style = ""width:100px; height:100px;position:fixed; top:25%;        transform: translate(-50%, -50%);left:34.5%""></img><img src=""media/stimuli/inanimate_012_left.png"" class=""coveredImage test"" style = ""width:100px; height:100px;position:fixed; top:25%;        transform: translate(-50%, -50%);left:41.5%""></img><img src=""media/stimuli/inanimate_007_right.png"" class=""coveredImage test"" style = ""width:100px; height:100px;position:fixed; top:25%;        transform: translate(-50%, -50%);left:54.5%""></img><img src=""media/stimuli/inanimate_007_right.png"" class=""coveredImage test"" style = ""width:100px; height:100px;position:fixed; top:25%;        transform: translate(-50%, -50%);left:61.5%""></img><img src=""media/f.png""style = ""width:30px x; height:30px;position:fixed; top:43%;    transform: translate(-50%, -50%);left:40%""></img><img src=""media/j.png""style = ""width:30px; height:30px;position:fixed; top:43%;    transform: translate(-50%, -50%);left:60%""></img>","media/stimuli/inanimate_007_left.png","inanimate","left","pair","media/stimuli/inanimate_012_left.png","inanimate","left","pair","media/stimuli/inanimate_007_right.png","inanimate","right","pair","identity_pose","","","",""
"","","","","","html-keyboard-response","78","333043","0.0-78.0","SS1678233247825","63e84a9ea3f6d5acdc598a6a","6406d7f26dd5b7fc1e3377bd","6407ce799e832a61f2db5ba8","1920","937","","1786","","j","","","<img src=""media/stimuli/animate_003_left.png"" class=""coveredImage test"" style = ""width:100px; height:100px; position:fixed; top:10%;    transform: translate(-50%, -50%);left:48%""></img><img src=""media/stimuli/animate_003_right.png"" class=""coveredImage test"" style = ""width:100px; height:100px;position:fixed; top:25%;        transform: translate(-50%, -50%);left:38%""></img><img src=""media/stimuli/animate_003_left.png"" class=""coveredImage test"" style = ""width:100px; height:100px;position:fixed; top:25%;        transform: translate(-50%, -50%);left:54.5%""></img><img src=""media/stimuli/animate_003_left.png"" class=""coveredImage test"" style = ""width:100px; height:100px;position:fixed; top:25%;        transform: translate(-50%, -50%);left:61.5%""></img><img src=""media/f.png""style = ""width:30px x; height:30px;position:fixed; top:43%;    transform: translate(-50%, -50%);left:40%""></img><img src=""media/j.png""style = ""width:30px; height:30px;position:fixed; top:43%;    transform: translate(-50%, -50%);left:60%""></img>","media/stimuli/animate_003_left.png","animate","left","single","media/stimuli/animate_003_right.png","animate","right","single","media/stimuli/animate_003_left.png","animate","left","pair","pose_number","","","",""
"","","","","","html-keyboard-response","79","334360","0.0-79.0","SS1678233247825","63e84a9ea3f6d5acdc598a6a","6406d7f26dd5b7fc1e3377bd","6407ce799e832a61f2db5ba8","1920","937","","1305","","f","","","<img src=""media/stimuli/animate_010_left.png"" class=""coveredImage test"" style = ""width:100px; height:100px; position:fixed; top:10%;    transform: translate(-50%, -50%);left:48%""></img><img src=""media/stimuli/animate_010_right.png"" class=""coveredImage test"" style = ""width:100px; height:100px;position:fixed; top:25%;        transform: translate(-50%, -50%);left:38%""></img><img src=""media/stimuli/inanimate_004_left.png"" class=""coveredImage test"" style = ""width:100px; height:100px;position:fixed; top:25%;        transform: translate(-50%, -50%);left:58%""></img><img src=""media/f.png""style = ""width:30px x; height:30px;position:fixed; top:43%;    transform: translate(-50%, -50%);left:40%""></img><img src=""media/j.png""style = ""width:30px; height:30px;position:fixed; top:43%;    transform: translate(-50%, -50%);left:60%""></img>","media/stimuli/animate_010_left.png","animate","left","single","media/stimuli/animate_010_right.png","animate","right","single","media/stimuli/inanimate_004_left.png","inanimate","left","single","pose_animacy","","","",""
"","","","","","html-keyboard-response","80","335736","0.0-80.0","SS1678233247825","63e84a9ea3f6d5acdc598a6a","6406d7f26dd5b7fc1e3377bd","6407ce799e832a61f2db5ba8","1920","937","","1357","","f","","","<img src=""media/stimuli/animate_001_left.png"" class=""coveredImage test"" style = ""width:100px; height:100px; position:fixed; top:10%;    transform: translate(-50%, -50%);left:44.5%""></img><img src=""media/stimuli/animate_001_left.png"" class=""coveredImage test"" style = ""width:100px; height:100px; position:fixed; top:10%;    transform: translate(-50%, -50%);left:51.5%""></img><img src=""media/stimuli/animate_001_left.png"" class=""coveredImage test"" style = ""width:100px; height:100px;position:fixed; top:25%;        transform: translate(-50%, -50%);left:38%""></img><img src=""media/stimuli/inanimate_012_left.png"" class=""coveredImage test"" style = ""width:100px; height:100px;position:fixed; top:25%;        transform: translate(-50%, -50%);left:54.5%""></img><img src=""media/stimuli/inanimate_012_left.png"" class=""coveredImage test"" style = ""width:100px; height:100px;position:fixed; top:25%;        transform: translate(-50%, -50%);left:61.5%""></img><img src=""media/f.png""style = ""width:30px x; height:30px;position:fixed; top:43%;    transform: translate(-50%, -50%);left:40%""></img><img src=""media/j.png""style = ""width:30px; height:30px;position:fixed; top:43%;    transform: translate(-50%, -50%);left:60%""></img>","media/stimuli/animate_001_left.png","animate","left","pair","media/stimuli/animate_001_left.png","animate","left","single","media/stimuli/inanimate_012_left.png","inanimate","left","pair","number_animacy","","","",""
"","","","","","html-keyboard-response","81","336768","0.0-81.0","SS1678233247825","63e84a9ea3f6d5acdc598a6a","6406d7f26dd5b7fc1e3377bd","6407ce799e832a61f2db5ba8","1920","937","","1020","","j","","","<img src=""media/stimuli/animate_003_right.png"" class=""coveredImage test"" style = ""width:100px; height:100px; position:fixed; top:10%;    transform: translate(-50%, -50%);left:48%""></img><img src=""media/stimuli/animate_002_right.png"" class=""coveredImage test"" style = ""width:100px; height:100px;position:fixed; top:25%;        transform: translate(-50%, -50%);left:38%""></img><img src=""media/stimuli/animate_003_right.png"" class=""coveredImage test"" style = ""width:100px; height:100px;position:fixed; top:25%;        transform: translate(-50%, -50%);left:54.5%""></img><img src=""media/stimuli/animate_003_right.png"" class=""coveredImage test"" style = ""width:100px; height:100px;position:fixed; top:25%;        transform: translate(-50%, -50%);left:61.5%""></img><img src=""media/f.png""style = ""width:30px x; height:30px;position:fixed; top:43%;    transform: translate(-50%, -50%);left:40%""></img><img src=""media/j.png""style = ""width:30px; height:30px;position:fixed; top:43%;    transform: translate(-50%, -50%);left:60%""></img>","media/stimuli/animate_003_right.png","animate","right","single","media/stimuli/animate_002_right.png","animate","right","single","media/stimuli/animate_003_right.png","animate","right","pair","identity_number","","","",""
"","","","","","html-keyboard-response","82","339942","0.0-82.0","SS1678233247825","63e84a9ea3f6d5acdc598a6a","6406d7f26dd5b7fc1e3377bd","6407ce799e832a61f2db5ba8","1920","937","","3162","","f","","","<img src=""media/stimuli/animate_012_right.png"" class=""coveredImage test"" style = ""width:100px; height:100px; position:fixed; top:10%;    transform: translate(-50%, -50%);left:48%""></img><img src=""media/stimuli/inanimate_008_right.png"" class=""coveredImage test"" style = ""width:100px; height:100px;position:fixed; top:25%;        transform: translate(-50%, -50%);left:38%""></img><img src=""media/stimuli/animate_004_right.png"" class=""coveredImage test"" style = ""width:100px; height:100px;position:fixed; top:25%;        transform: translate(-50%, -50%);left:58%""></img><img src=""media/f.png""style = ""width:30px x; height:30px;position:fixed; top:43%;    transform: translate(-50%, -50%);left:40%""></img><img src=""media/j.png""style = ""width:30px; height:30px;position:fixed; top:43%;    transform: translate(-50%, -50%);left:60%""></img>","media/stimuli/animate_012_right.png","animate","right","single","media/stimuli/inanimate_008_right.png","inanimate","right","single","media/stimuli/animate_004_right.png","animate","right","single","animacy_identity","","","",""
"","","","","","html-keyboard-response","83","343044","0.0-83.0","SS1678233247825","63e84a9ea3f6d5acdc598a6a","6406d7f26dd5b7fc1e3377bd","6407ce799e832a61f2db5ba8","1920","937","","3098","","f","","","<img src=""media/stimuli/animate_003_left.png"" class=""coveredImage test"" style = ""width:100px; height:100px; position:fixed; top:10%;    transform: translate(-50%, -50%);left:44.5%""></img><img src=""media/stimuli/animate_003_left.png"" class=""coveredImage test"" style = ""width:100px; height:100px; position:fixed; top:10%;    transform: translate(-50%, -50%);left:51.5%""></img><img src=""media/stimuli/animate_007_left.png"" class=""coveredImage test"" style = ""width:100px; height:100px;position:fixed; top:25%;        transform: translate(-50%, -50%);left:34.5%""></img><img src=""media/stimuli/animate_007_left.png"" class=""coveredImage test"" style = ""width:100px; height:100px;position:fixed; top:25%;        transform: translate(-50%, -50%);left:41.5%""></img><img src=""media/stimuli/inanimate_007_left.png"" class=""coveredImage test"" style = ""width:100px; height:100px;position:fixed; top:25%;        transform: translate(-50%, -50%);left:54.5%""></img><img src=""media/stimuli/inanimate_007_left.png"" class=""coveredImage test"" style = ""width:100px; height:100px;position:fixed; top:25%;        transform: translate(-50%, -50%);left:61.5%""></img><img src=""media/f.png""style = ""width:30px x; height:30px;position:fixed; top:43%;    transform: translate(-50%, -50%);left:40%""></img><img src=""media/j.png""style = ""width:30px; height:30px;position:fixed; top:43%;    transform: translate(-50%, -50%);left:60%""></img>","media/stimuli/animate_003_left.png","animate","left","pair","media/stimuli/animate_007_left.png","animate","left","pair","media/stimuli/inanimate_007_left.png","inanimate","left","pair","identity_animacy","","","",""
"","","","","","html-keyboard-response","84","344152","0.0-84.0","SS1678233247825","63e84a9ea3f6d5acdc598a6a","6406d7f26dd5b7fc1e3377bd","6407ce799e832a61f2db5ba8","1920","937","","1090","","j","","","<img src=""media/stimuli/inanimate_002_right.png"" class=""coveredImage test"" style = ""width:100px; height:100px; position:fixed; top:10%;    transform: translate(-50%, -50%);left:48%""></img><img src=""media/stimuli/inanimate_008_right.png"" class=""coveredImage test"" style = ""width:100px; height:100px;position:fixed; top:25%;        transform: translate(-50%, -50%);left:38%""></img><img src=""media/stimuli/inanimate_002_right.png"" class=""coveredImage test"" style = ""width:100px; height:100px;position:fixed; top:25%;        transform: translate(-50%, -50%);left:58%""></img><img src=""media/f.png""style = ""width:30px x; height:30px;position:fixed; top:43%;    transform: translate(-50%, -50%);left:40%""></img><img src=""media/j.png""style = ""width:30px; height:30px;position:fixed; top:43%;    transform: translate(-50%, -50%);left:60%""></img>","media/stimuli/inanimate_002_right.png","inanimate","right","single","media/stimuli/inanimate_008_right.png","inanimate","right","single","media/stimuli/inanimate_002_right.png","inanimate","right","single","identity_filler","","","",""
"","","","","","html-keyboard-response","85","345056","0.0-85.0","SS1678233247825","63e84a9ea3f6d5acdc598a6a","6406d7f26dd5b7fc1e3377bd","6407ce799e832a61f2db5ba8","1920","937","","889","","j","","","","","","","","","","","","","","","","","","","",""
"","","","","","survey-likert","86","348235","0.0-86.0","SS1678233247825","63e84a9ea3f6d5acdc598a6a","6406d7f26dd5b7fc1e3377bd","6407ce799e832a61f2db5ba8","1920","937","","3167","","{""Q0"":5}","[0]","complexity","","","","","","","","","","","","","","","media/stimuli/animate_007_right.png","animate","single","right"
"","","","","","survey-likert","87","351531","0.0-87.0","SS1678233247825","63e84a9ea3f6d5acdc598a6a","6406d7f26dd5b7fc1e3377bd","6407ce799e832a61f2db5ba8","1920","937","","3291","","{""Q0"":5}","[0]","complexity","","","","","","","","","","","","","","","media/stimuli/animate_004_right.png","animate","single","right"
"","","","","","survey-likert","88","355415","0.0-88.0","SS1678233247825","63e84a9ea3f6d5acdc598a6a","6406d7f26dd5b7fc1e3377bd","6407ce799e832a61f2db5ba8","1920","937","","3879","","{""Q0"":2}","[0]","complexity","","","","","","","","","","","","","","","media/stimuli/inanimate_004_left.png","inanimate","pair","left"
"","","","","","survey-likert","89","357683","0.0-89.0","SS1678233247825","63e84a9ea3f6d5acdc598a6a","6406d7f26dd5b7fc1e3377bd","6407ce799e832a61f2db5ba8","1920","937","","2264","","{""Q0"":5}","[0]","complexity","","","","","","","","","","","","","","","media/stimuli/animate_006_right.png","animate","single","right"
"","","","","","survey-likert","90","360126","0.0-90.0","SS1678233247825","63e84a9ea3f6d5acdc598a6a","6406d7f26dd5b7fc1e3377bd","6407ce799e832a61f2db5ba8","1920","937","","2439","","{""Q0"":6}","[0]","complexity","","","","","","","","","","","","","","","media/stimuli/animate_010_right.png","animate","pair","right"
"","","","","","survey-likert","91","362145","0.0-91.0","SS1678233247825","63e84a9ea3f6d5acdc598a6a","6406d7f26dd5b7fc1e3377bd","6407ce799e832a61f2db5ba8","1920","937","","2012","","{""Q0"":5}","[0]","complexity","","","","","","","","","","","","","","","media/stimuli/animate_001_right.png","animate","single","right"
"","","","","","survey-likert","92","367211","0.0-92.0","SS1678233247825","63e84a9ea3f6d5acdc598a6a","6406d7f26dd5b7fc1e3377bd","6407ce799e832a61f2db5ba8","1920","937","","5059","","{""Q0"":1}","[0]","complexity","","","","","","","","","","","","","","","media/stimuli/inanimate_005_right.png","inanimate","single","right"
"","","","","","survey-likert","93","371349","0.0-93.0","SS1678233247825","63e84a9ea3f6d5acdc598a6a","6406d7f26dd5b7fc1e3377bd","6407ce799e832a61f2db5ba8","1920","937","","4133","","{""Q0"":5}","[0]","complexity","","","","","","","","","","","","","","","media/stimuli/animate_009_left.png","animate","pair","left"
"","","","","","survey-likert","94","376238","0.0-94.0","SS1678233247825","63e84a9ea3f6d5acdc598a6a","6406d7f26dd5b7fc1e3377bd","6407ce799e832a61f2db5ba8","1920","937","","4884","","{""Q0"":0}","[0]","complexity","","","","","","","","","","","","","","","media/stimuli/inanimate_002_right.png","inanimate","single","right"
"","","","","","survey-likert","95","380350","0.0-95.0","SS1678233247825","63e84a9ea3f6d5acdc598a6a","6406d7f26dd5b7fc1e3377bd","6407ce799e832a61f2db5ba8","1920","937","","4105","","{""Q0"":4}","[0]","complexity","","","","","","","","","","","","","","","media/stimuli/inanimate_008_left.png","inanimate","pair","left"
"","","","","","survey-likert","96","382657","0.0-96.0","SS1678233247825","63e84a9ea3f6d5acdc598a6a","6406d7f26dd5b7fc1e3377bd","6407ce799e832a61f2db5ba8","1920","937","","2300","","{""Q0"":5}","[0]","complexity","","","","","","","","","","","","","","","media/stimuli/animate_002_left.png","animate","single","left"
"","","","","","survey-likert","97","385249","0.0-97.0","SS1678233247825","63e84a9ea3f6d5acdc598a6a","6406d7f26dd5b7fc1e3377bd","6407ce799e832a61f2db5ba8","1920","937","","2588","","{""Q0"":1}","[0]","complexity","","","","","","","","","","","","","","","media/stimuli/inanimate_005_left.png","inanimate","single","left"
"","","","","","html-keyboard-response","98","387246","0.0-98.0","SS1678233247825","63e84a9ea3f6d5acdc598a6a","6406d7f26dd5b7fc1e3377bd","6407ce799e832a61f2db5ba8","1920","937","","1993","","f","","","","","","","","","","","","","","","","","","","",""
"","","","","","survey-likert","99","391565","0.0-99.0","SS1678233247825","63e84a9ea3f6d5acdc598a6a","6406d7f26dd5b7fc1e3377bd","6407ce799e832a61f2db5ba8","1920","937","","4305","","{""Q0"":1}","[0]","complexity","","","","","","","","","","","","","","","media/stimuli/inanimate_009_left.png","inanimate","pair","left"
"","","","","","survey-likert","100","394058","0.0-100.0","SS1678233247825","63e84a9ea3f6d5acdc598a6a","6406d7f26dd5b7fc1e3377bd","6407ce799e832a61f2db5ba8","1920","937","","2488","","{""Q0"":5}","[0]","complexity","","","","","","","","","","","","","","","media/stimuli/animate_006_left.png","animate","single","left"
"","","","","","survey-likert","101","396774","0.0-101.0","SS1678233247825","63e84a9ea3f6d5acdc598a6a","6406d7f26dd5b7fc1e3377bd","6407ce799e832a61f2db5ba8","1920","937","","2711","","{""Q0"":5}","[0]","complexity","","","","","","","","","","","","","","","media/stimuli/animate_009_right.png","animate","single","right"
"","","","","","survey-likert","102","400071","0.0-102.0","SS1678233247825","63e84a9ea3f6d5acdc598a6a","6406d7f26dd5b7fc1e3377bd","6407ce799e832a61f2db5ba8","1920","937","","3291","","{""Q0"":2}","[0]","complexity","","","","","","","","","","","","","","","media/stimuli/inanimate_012_right.png","inanimate","pair","right"
"","","","","","survey-likert","103","403062","0.0-103.0","SS1678233247825","63e84a9ea3f6d5acdc598a6a","6406d7f26dd5b7fc1e3377bd","6407ce799e832a61f2db5ba8","1920","937","","2985","","{""Q0"":4}","[0]","complexity","","","","","","","","","","","","","","","media/stimuli/inanimate_010_left.png","inanimate","single","left"
"","","","","","survey-likert","104","406047","0.0-104.0","SS1678233247825","63e84a9ea3f6d5acdc598a6a","6406d7f26dd5b7fc1e3377bd","6407ce799e832a61f2db5ba8","1920","937","","2980","","{""Q0"":1}","[0]","complexity","","","","","","","","","","","","","","","media/stimuli/inanimate_012_left.png","inanimate","single","left"
"","","","","","survey-likert","105","408480","0.0-105.0","SS1678233247825","63e84a9ea3f6d5acdc598a6a","6406d7f26dd5b7fc1e3377bd","6407ce799e832a61f2db5ba8","1920","937","","2428","","{""Q0"":6}","[0]","complexity","","","","","","","","","","","","","","","media/stimuli/animate_008_left.png","animate","pair","left"
"","","","","","survey-likert","106","411805","0.0-106.0","SS1678233247825","63e84a9ea3f6d5acdc598a6a","6406d7f26dd5b7fc1e3377bd","6407ce799e832a61f2db5ba8","1920","937","","3320","","{""Q0"":5}","[0]","complexity","","","","","","","","","","","","","","","media/stimuli/animate_010_left.png","animate","pair","left"
"","","","","","survey-likert","107","413935","0.0-107.0","SS1678233247825","63e84a9ea3f6d5acdc598a6a","6406d7f26dd5b7fc1e3377bd","6407ce799e832a61f2db5ba8","1920","937","","2123","","{""Q0"":4}","[0]","complexity","","","","","","","","","","","","","","","media/stimuli/inanimate_011_right.png","inanimate","pair","right"
"","","","","","survey-likert","108","416602","0.0-108.0","SS1678233247825","63e84a9ea3f6d5acdc598a6a","6406d7f26dd5b7fc1e3377bd","6407ce799e832a61f2db5ba8","1920","937","","2661","","{""Q0"":4}","[0]","complexity","","","","","","","","","","","","","","","media/stimuli/animate_004_left.png","animate","single","left"
"","","","","","survey-likert","109","419706","0.0-109.0","SS1678233247825","63e84a9ea3f6d5acdc598a6a","6406d7f26dd5b7fc1e3377bd","6407ce799e832a61f2db5ba8","1920","937","","3100","","{""Q0"":1}","[0]","complexity","","","","","","","","","","","","","","","media/stimuli/inanimate_004_left.png","inanimate","single","left"
"","","","","","survey-likert","110","422270","0.0-110.0","SS1678233247825","63e84a9ea3f6d5acdc598a6a","6406d7f26dd5b7fc1e3377bd","6407ce799e832a61f2db5ba8","1920","937","","2558","","{""Q0"":1}","[0]","complexity","","","","","","","","","","","","","","","media/stimuli/inanimate_009_right.png","inanimate","pair","right"
"","","","","","html-keyboard-response","111","424091","0.0-111.0","SS1678233247825","63e84a9ea3f6d5acdc598a6a","6406d7f26dd5b7fc1e3377bd","6407ce799e832a61f2db5ba8","1920","937","","1816","","h","","","","","","","","","","","","","","","","","","","",""
"","","","","","html-keyboard-response","112","427668","0.0-112.0","SS1678233247825","63e84a9ea3f6d5acdc598a6a","6406d7f26dd5b7fc1e3377bd","6407ce799e832a61f2db5ba8","1920","937","","3569","","j","","","<img src=""media/stimuli/animate_001_left.png"" class=""coveredImage test"" style = ""width:100px; height:100px; position:fixed; top:10%;    transform: translate(-50%, -50%);left:48%""></img><img src=""media/stimuli/inanimate_008_right.png"" class=""coveredImage test"" style = ""width:100px; height:100px;position:fixed; top:25%;        transform: translate(-50%, -50%);left:38%""></img><img src=""media/stimuli/animate_001_left.png"" class=""coveredImage test"" style = ""width:100px; height:100px;position:fixed; top:25%;        transform: translate(-50%, -50%);left:58%""></img><img src=""media/f.png""style = ""width:30px x; height:30px;position:fixed; top:43%;    transform: translate(-50%, -50%);left:40%""></img><img src=""media/j.png""style = ""width:30px; height:30px;position:fixed; top:43%;    transform: translate(-50%, -50%);left:60%""></img>","media/stimuli/animate_001_left.png","animate","left","single","media/stimuli/inanimate_008_right.png","inanimate","right","single","media/stimuli/animate_001_left.png","animate","left","single","animacy_pose","","","",""
"","","","","","html-keyboard-response","113","429077","0.0-113.0","SS1678233247825","63e84a9ea3f6d5acdc598a6a","6406d7f26dd5b7fc1e3377bd","6407ce799e832a61f2db5ba8","1920","937","","1401","","f","","","<img src=""media/stimuli/inanimate_008_right.png"" class=""coveredImage test"" style = ""width:100px; height:100px; position:fixed; top:10%;    transform: translate(-50%, -50%);left:48%""></img><img src=""media/stimuli/inanimate_008_right.png"" class=""coveredImage test"" style = ""width:100px; height:100px;position:fixed; top:25%;        transform: translate(-50%, -50%);left:34.5%""></img><img src=""media/stimuli/inanimate_008_right.png"" class=""coveredImage test"" style = ""width:100px; height:100px;position:fixed; top:25%;        transform: translate(-50%, -50%);left:41.5%""></img><img src=""media/stimuli/inanimate_002_right.png"" class=""coveredImage test"" style = ""width:100px; height:100px;position:fixed; top:25%;        transform: translate(-50%, -50%);left:58%""></img><img src=""media/f.png""style = ""width:30px x; height:30px;position:fixed; top:43%;    transform: translate(-50%, -50%);left:40%""></img><img src=""media/j.png""style = ""width:30px; height:30px;position:fixed; top:43%;    transform: translate(-50%, -50%);left:60%""></img>","media/stimuli/inanimate_008_right.png","inanimate","right","single","media/stimuli/inanimate_008_right.png","inanimate","right","pair","media/stimuli/inanimate_002_right.png","inanimate","right","single","number_identity","","","",""
"","","","","","html-keyboard-response","114","430220","0.0-114.0","SS1678233247825","63e84a9ea3f6d5acdc598a6a","6406d7f26dd5b7fc1e3377bd","6407ce799e832a61f2db5ba8","1920","937","","1130","","j","","","<img src=""media/stimuli/inanimate_010_right.png"" class=""coveredImage test"" style = ""width:100px; height:100px; position:fixed; top:10%;    transform: translate(-50%, -50%);left:48%""></img><img src=""media/stimuli/inanimate_006_right.png"" class=""coveredImage test"" style = ""width:100px; height:100px;position:fixed; top:25%;        transform: translate(-50%, -50%);left:38%""></img><img src=""media/stimuli/inanimate_010_left.png"" class=""coveredImage test"" style = ""width:100px; height:100px;position:fixed; top:25%;        transform: translate(-50%, -50%);left:58%""></img><img src=""media/f.png""style = ""width:30px x; height:30px;position:fixed; top:43%;    transform: translate(-50%, -50%);left:40%""></img><img src=""media/j.png""style = ""width:30px; height:30px;position:fixed; top:43%;    transform: translate(-50%, -50%);left:60%""></img>","media/stimuli/inanimate_010_right.png","inanimate","right","single","media/stimuli/inanimate_006_right.png","inanimate","right","single","media/stimuli/inanimate_010_left.png","inanimate","left","single","identity_pose","","","",""
