"success","timeout","failed_images","failed_audio","failed_video","trial_type","trial_index","time_elapsed","internal_node_id","subject","prolific_id","study","session","window_width","window_height","view_history","rt","stimulus_type","response","question_order","rating_type","stimulus","target","target_animacy","target_pose","target_number","left","left_animacy","left_pose","left_number","right","right_animacy","right_pose","right_number","comparison_type","rating_stimulus","rating_animacy","rating_number","rating_pose"
"true","false","[]","[]","[]","preload","0","1808","0.0-0.0","SS1678233193930","5b05e0d131cebe000177c38e","6406d7f26dd5b7fc1e3377bd","6407ce622dcdfc0d5fdf5de6","1280","567","","","","","","","","","","","","","","","","","","","","","","","",""
"","","","","","instructions","1","13880","0.0-1.0","SS1678233193930","5b05e0d131cebe000177c38e","6406d7f26dd5b7fc1e3377bd","6407ce622dcdfc0d5fdf5de6","1280","567","[{""page_index"":0,""viewing_time"":12071}]","12071","","","","","","","","","","","","","","","","","","","","","",""
"","","","","","instructions","2","31913","0.0-2.0","SS1678233193930","5b05e0d131cebe000177c38e","6406d7f26dd5b7fc1e3377bd","6407ce622dcdfc0d5fdf5de6","1280","567","[{""page_index"":0,""viewing_time"":16028}]","16029","instructions","","","","","","","","","","","","","","","","","","","","",""
"","","","","","instructions","3","35792","0.0-3.0","SS1678233193930","5b05e0d131cebe000177c38e","6406d7f26dd5b7fc1e3377bd","6407ce622dcdfc0d5fdf5de6","1280","567","[{""page_index"":0,""viewing_time"":3876}]","3876","instructions","","","","","","","","","","","","","","","","","","","","",""
"","","","","","survey-likert","4","45071","0.0-4.0","SS1678233193930","5b05e0d131cebe000177c38e","6406d7f26dd5b7fc1e3377bd","6407ce622dcdfc0d5fdf5de6","1280","567","","9277","","{""Q0"":5}","[0]","anchoring","","","","","","","","","","","","","","","","","",""
"","","","","","survey-likert","5","50056","0.0-5.0","SS1678233193930","5b05e0d131cebe000177c38e","6406d7f26dd5b7fc1e3377bd","6407ce622dcdfc0d5fdf5de6","1280","567","","4983","","{""Q0"":1}","[0]","anchoring","","","","","","","","","","","","","","","","","",""
"","","","","","instructions","6","52225","0.0-6.0","SS1678233193930","5b05e0d131cebe000177c38e","6406d7f26dd5b7fc1e3377bd","6407ce622dcdfc0d5fdf5de6","1280","567","[{""page_index"":0,""viewing_time"":2168}]","2168","instructions","","","","","","","","","","","","","","","","","","","","",""
"true","","","","","fullscreen","7","55495","0.0-7.0","SS1678233193930","5b05e0d131cebe000177c38e","6406d7f26dd5b7fc1e3377bd","6407ce622dcdfc0d5fdf5de6","1280","567","","","","","","","","","","","","","","","","","","","","","","","",""
"","","","","","html-keyboard-response","8","64011","0.0-8.0","SS1678233193930","5b05e0d131cebe000177c38e","6406d7f26dd5b7fc1e3377bd","6407ce622dcdfc0d5fdf5de6","1280","567","","8508","","j","","","<img src=""media/stimuli/inanimate_005_left.png"" class=""coveredImage test"" style = ""width:100px; height:100px; position:fixed; top:10%;    transform: translate(-50%, -50%);left:48%""></img><img src=""media/stimuli/animate_007_left.png"" class=""coveredImage test"" style = ""width:100px; height:100px;position:fixed; top:25%;        transform: translate(-50%, -50%);left:38%""></img><img src=""media/stimuli/inanimate_005_left.png"" class=""coveredImage test"" style = ""width:100px; height:100px;position:fixed; top:25%;        transform: translate(-50%, -50%);left:54.5%""></img><img src=""media/stimuli/inanimate_005_left.png"" class=""coveredImage test"" style = ""width:100px; height:100px;position:fixed; top:25%;        transform: translate(-50%, -50%);left:61.5%""></img><img src=""media/f.png""style = ""width:30px x; height:30px;position:fixed; top:43%;    transform: translate(-50%, -50%);left:40%""></img><img src=""media/j.png""style = ""width:30px; height:30px;position:fixed; top:43%;    transform: translate(-50%, -50%);left:60%""></img>","media/stimuli/inanimate_005_left.png","inanimate","left","single","media/stimuli/animate_007_left.png","animate","left","single","media/stimuli/inanimate_005_left.png","inanimate","left","pair","animacy_number","","","",""
"","","","","","html-keyboard-response","9","66126","0.0-9.0","SS1678233193930","5b05e0d131cebe000177c38e","6406d7f26dd5b7fc1e3377bd","6407ce622dcdfc0d5fdf5de6","1280","567","","2113","","j","","","<img src=""media/stimuli/inanimate_008_right.png"" class=""coveredImage test"" style = ""width:100px; height:100px; position:fixed; top:10%;    transform: translate(-50%, -50%);left:48%""></img><img src=""media/stimuli/animate_003_right.png"" class=""coveredImage test"" style = ""width:100px; height:100px;position:fixed; top:25%;        transform: translate(-50%, -50%);left:38%""></img><img src=""media/stimuli/inanimate_009_right.png"" class=""coveredImage test"" style = ""width:100px; height:100px;position:fixed; top:25%;        transform: translate(-50%, -50%);left:58%""></img><img src=""media/f.png""style = ""width:30px x; height:30px;position:fixed; top:43%;    transform: translate(-50%, -50%);left:40%""></img><img src=""media/j.png""style = ""width:30px; height:30px;position:fixed; top:43%;    transform: translate(-50%, -50%);left:60%""></img>","media/stimuli/inanimate_008_right.png","inanimate","right","single","media/stimuli/animate_003_right.png","animate","right","single","media/stimuli/inanimate_009_right.png","inanimate","right","single","animacy_identity","","","",""
"","","","","","html-keyboard-response","10","67515","0.0-10.0","SS1678233193930","5b05e0d131cebe000177c38e","6406d7f26dd5b7fc1e3377bd","6407ce622dcdfc0d5fdf5de6","1280","567","","1388","","f","","","<img src=""media/stimuli/animate_010_right.png"" class=""coveredImage test"" style = ""width:100px; height:100px; position:fixed; top:10%;    transform: translate(-50%, -50%);left:44.5%""></img><img src=""media/stimuli/animate_010_right.png"" class=""coveredImage test"" style = ""width:100px; height:100px; position:fixed; top:10%;    transform: translate(-50%, -50%);left:51.5%""></img><img src=""media/stimuli/animate_010_right.png"" class=""coveredImage test"" style = ""width:100px; height:100px;position:fixed; top:25%;        transform: translate(-50%, -50%);left:38%""></img><img src=""media/stimuli/animate_003_right.png"" class=""coveredImage test"" style = ""width:100px; height:100px;position:fixed; top:25%;        transform: translate(-50%, -50%);left:54.5%""></img><img src=""media/stimuli/animate_003_right.png"" class=""coveredImage test"" style = ""width:100px; height:100px;position:fixed; top:25%;        transform: translate(-50%, -50%);left:61.5%""></img><img src=""media/f.png""style = ""width:30px x; height:30px;position:fixed; top:43%;    transform: translate(-50%, -50%);left:40%""></img><img src=""media/j.png""style = ""width:30px; height:30px;position:fixed; top:43%;    transform: translate(-50%, -50%);left:60%""></img>","media/stimuli/animate_010_right.png","animate","right","pair","media/stimuli/animate_010_right.png","animate","right","single","media/stimuli/animate_003_right.png","animate","right","pair","number_identity","","","",""
"","","","","","html-keyboard-response","11","69753","0.0-11.0","SS1678233193930","5b05e0d131cebe000177c38e","6406d7f26dd5b7fc1e3377bd","6407ce622dcdfc0d5fdf5de6","1280","567","","2237","","j","","","<img src=""media/stimuli/inanimate_007_left.png"" class=""coveredImage test"" style = ""width:100px; height:100px; position:fixed; top:10%;    transform: translate(-50%, -50%);left:44.5%""></img><img src=""media/stimuli/inanimate_007_left.png"" class=""coveredImage test"" style = ""width:100px; height:100px; position:fixed; top:10%;    transform: translate(-50%, -50%);left:51.5%""></img><img src=""media/stimuli/inanimate_007_left.png"" class=""coveredImage test"" style = ""width:100px; height:100px;position:fixed; top:25%;        transform: translate(-50%, -50%);left:38%""></img><img src=""media/stimuli/inanimate_007_right.png"" class=""coveredImage test"" style = ""width:100px; height:100px;position:fixed; top:25%;        transform: translate(-50%, -50%);left:54.5%""></img><img src=""media/stimuli/inanimate_007_right.png"" class=""coveredImage test"" style = ""width:100px; height:100px;position:fixed; top:25%;        transform: translate(-50%, -50%);left:61.5%""></img><img src=""media/f.png""style = ""width:30px x; height:30px;position:fixed; top:43%;    transform: translate(-50%, -50%);left:40%""></img><img src=""media/j.png""style = ""width:30px; height:30px;position:fixed; top:43%;    transform: translate(-50%, -50%);left:60%""></img>","media/stimuli/inanimate_007_left.png","inanimate","left","pair","media/stimuli/inanimate_007_left.png","inanimate","left","single","media/stimuli/inanimate_007_right.png","inanimate","right","pair","number_pose","","","",""
"","","","","","html-keyboard-response","12","71392","0.0-12.0","SS1678233193930","5b05e0d131cebe000177c38e","6406d7f26dd5b7fc1e3377bd","6407ce622dcdfc0d5fdf5de6","1280","567","","1636","","f","","","<img src=""media/stimuli/inanimate_003_right.png"" class=""coveredImage test"" style = ""width:100px; height:100px; position:fixed; top:10%;    transform: translate(-50%, -50%);left:48%""></img><img src=""media/stimuli/inanimate_003_right.png"" class=""coveredImage test"" style = ""width:100px; height:100px;position:fixed; top:25%;        transform: translate(-50%, -50%);left:34.5%""></img><img src=""media/stimuli/inanimate_003_right.png"" class=""coveredImage test"" style = ""width:100px; height:100px;position:fixed; top:25%;        transform: translate(-50%, -50%);left:41.5%""></img><img src=""media/stimuli/animate_009_left.png"" class=""coveredImage test"" style = ""width:100px; height:100px;position:fixed; top:25%;        transform: translate(-50%, -50%);left:54.5%""></img><img src=""media/stimuli/animate_009_left.png"" class=""coveredImage test"" style = ""width:100px; height:100px;position:fixed; top:25%;        transform: translate(-50%, -50%);left:61.5%""></img><img src=""media/f.png""style = ""width:30px x; height:30px;position:fixed; top:43%;    transform: translate(-50%, -50%);left:40%""></img><img src=""media/j.png""style = ""width:30px; height:30px;position:fixed; top:43%;    transform: translate(-50%, -50%);left:60%""></img>","media/stimuli/inanimate_003_right.png","inanimate","right","single","media/stimuli/inanimate_003_right.png","inanimate","right","pair","media/stimuli/animate_009_left.png","animate","left","pair","pose_animacy","","","",""
"","","","","","html-keyboard-response","13","72720","0.0-13.0","SS1678233193930","5b05e0d131cebe000177c38e","6406d7f26dd5b7fc1e3377bd","6407ce622dcdfc0d5fdf5de6","1280","567","","1324","","f","","","<img src=""media/stimuli/inanimate_009_left.png"" class=""coveredImage test"" style = ""width:100px; height:100px; position:fixed; top:10%;    transform: translate(-50%, -50%);left:48%""></img><img src=""media/stimuli/inanimate_009_right.png"" class=""coveredImage test"" style = ""width:100px; height:100px;position:fixed; top:25%;        transform: translate(-50%, -50%);left:38%""></img><img src=""media/stimuli/inanimate_006_left.png"" class=""coveredImage test"" style = ""width:100px; height:100px;position:fixed; top:25%;        transform: translate(-50%, -50%);left:58%""></img><img src=""media/f.png""style = ""width:30px x; height:30px;position:fixed; top:43%;    transform: translate(-50%, -50%);left:40%""></img><img src=""media/j.png""style = ""width:30px; height:30px;position:fixed; top:43%;    transform: translate(-50%, -50%);left:60%""></img>","media/stimuli/inanimate_009_left.png","inanimate","left","single","media/stimuli/inanimate_009_right.png","inanimate","right","single","media/stimuli/inanimate_006_left.png","inanimate","left","single","pose_identity","","","",""
"","","","","","html-keyboard-response","14","74320","0.0-14.0","SS1678233193930","5b05e0d131cebe000177c38e","6406d7f26dd5b7fc1e3377bd","6407ce622dcdfc0d5fdf5de6","1280","567","","1597","","j","","","<img src=""media/stimuli/inanimate_010_left.png"" class=""coveredImage test"" style = ""width:100px; height:100px; position:fixed; top:10%;    transform: translate(-50%, -50%);left:44.5%""></img><img src=""media/stimuli/inanimate_010_left.png"" class=""coveredImage test"" style = ""width:100px; height:100px; position:fixed; top:10%;    transform: translate(-50%, -50%);left:51.5%""></img><img src=""media/stimuli/animate_008_left.png"" class=""coveredImage test"" style = ""width:100px; height:100px;position:fixed; top:25%;        transform: translate(-50%, -50%);left:34.5%""></img><img src=""media/stimuli/animate_008_left.png"" class=""coveredImage test"" style = ""width:100px; height:100px;position:fixed; top:25%;        transform: translate(-50%, -50%);left:41.5%""></img><img src=""media/stimuli/inanimate_010_left.png"" class=""coveredImage test"" style = ""width:100px; height:100px;position:fixed; top:25%;        transform: translate(-50%, -50%);left:58%""></img><img src=""media/f.png""style = ""width:30px x; height:30px;position:fixed; top:43%;    transform: translate(-50%, -50%);left:40%""></img><img src=""media/j.png""style = ""width:30px; height:30px;position:fixed; top:43%;    transform: translate(-50%, -50%);left:60%""></img>","media/stimuli/inanimate_010_left.png","inanimate","left","pair","media/stimuli/animate_008_left.png","animate","left","pair","media/stimuli/inanimate_010_left.png","inanimate","left","single","animacy_number","","","",""
"","","","","","html-keyboard-response","15","75631","0.0-15.0","SS1678233193930","5b05e0d131cebe000177c38e","6406d7f26dd5b7fc1e3377bd","6407ce622dcdfc0d5fdf5de6","1280","567","","1310","","f","","","<img src=""media/stimuli/animate_009_right.png"" class=""coveredImage test"" style = ""width:100px; height:100px; position:fixed; top:10%;    transform: translate(-50%, -50%);left:48%""></img><img src=""media/stimuli/animate_009_left.png"" class=""coveredImage test"" style = ""width:100px; height:100px;position:fixed; top:25%;        transform: translate(-50%, -50%);left:38%""></img><img src=""media/stimuli/animate_005_right.png"" class=""coveredImage test"" style = ""width:100px; height:100px;position:fixed; top:25%;        transform: translate(-50%, -50%);left:58%""></img><img src=""media/f.png""style = ""width:30px x; height:30px;position:fixed; top:43%;    transform: translate(-50%, -50%);left:40%""></img><img src=""media/j.png""style = ""width:30px; height:30px;position:fixed; top:43%;    transform: translate(-50%, -50%);left:60%""></img>","media/stimuli/animate_009_right.png","animate","right","single","media/stimuli/animate_009_left.png","animate","left","single","media/stimuli/animate_005_right.png","animate","right","single","pose_identity","","","",""
"","","","","","html-keyboard-response","16","77399","0.0-16.0","SS1678233193930","5b05e0d131cebe000177c38e","6406d7f26dd5b7fc1e3377bd","6407ce622dcdfc0d5fdf5de6","1280","567","","1766","","j","","","<img src=""media/stimuli/animate_012_right.png"" class=""coveredImage test"" style = ""width:100px; height:100px; position:fixed; top:10%;    transform: translate(-50%, -50%);left:44.5%""></img><img src=""media/stimuli/animate_012_right.png"" class=""coveredImage test"" style = ""width:100px; height:100px; position:fixed; top:10%;    transform: translate(-50%, -50%);left:51.5%""></img><img src=""media/stimuli/inanimate_011_right.png"" class=""coveredImage test"" style = ""width:100px; height:100px;position:fixed; top:25%;        transform: translate(-50%, -50%);left:34.5%""></img><img src=""media/stimuli/inanimate_011_right.png"" class=""coveredImage test"" style = ""width:100px; height:100px;position:fixed; top:25%;        transform: translate(-50%, -50%);left:41.5%""></img><img src=""media/stimuli/animate_003_right.png"" class=""coveredImage test"" style = ""width:100px; height:100px;position:fixed; top:25%;        transform: translate(-50%, -50%);left:54.5%""></img><img src=""media/stimuli/animate_003_right.png"" class=""coveredImage test"" style = ""width:100px; height:100px;position:fixed; top:25%;        transform: translate(-50%, -50%);left:61.5%""></img><img src=""media/f.png""style = ""width:30px x; height:30px;position:fixed; top:43%;    transform: translate(-50%, -50%);left:40%""></img><img src=""media/j.png""style = ""width:30px; height:30px;position:fixed; top:43%;    transform: translate(-50%, -50%);left:60%""></img>","media/stimuli/animate_012_right.png","animate","right","pair","media/stimuli/inanimate_011_right.png","inanimate","right","pair","media/stimuli/animate_003_right.png","animate","right","pair","animacy_identity","","","",""
"","","","","","html-keyboard-response","17","78553","0.0-17.0","SS1678233193930","5b05e0d131cebe000177c38e","6406d7f26dd5b7fc1e3377bd","6407ce622dcdfc0d5fdf5de6","1280","567","","1153","","j","","","<img src=""media/stimuli/inanimate_011_left.png"" class=""coveredImage test"" style = ""width:100px; height:100px; position:fixed; top:10%;    transform: translate(-50%, -50%);left:48%""></img><img src=""media/stimuli/inanimate_011_right.png"" class=""coveredImage test"" style = ""width:100px; height:100px;position:fixed; top:25%;        transform: translate(-50%, -50%);left:38%""></img><img src=""media/stimuli/inanimate_011_left.png"" class=""coveredImage test"" style = ""width:100px; height:100px;position:fixed; top:25%;        transform: translate(-50%, -50%);left:54.5%""></img><img src=""media/stimuli/inanimate_011_left.png"" class=""coveredImage test"" style = ""width:100px; height:100px;position:fixed; top:25%;        transform: translate(-50%, -50%);left:61.5%""></img><img src=""media/f.png""style = ""width:30px x; height:30px;position:fixed; top:43%;    transform: translate(-50%, -50%);left:40%""></img><img src=""media/j.png""style = ""width:30px; height:30px;position:fixed; top:43%;    transform: translate(-50%, -50%);left:60%""></img>","media/stimuli/inanimate_011_left.png","inanimate","left","single","media/stimuli/inanimate_011_right.png","inanimate","right","single","media/stimuli/inanimate_011_left.png","inanimate","left","pair","pose_number","","","",""
"","","","","","html-keyboard-response","18","80181","0.0-18.0","SS1678233193930","5b05e0d131cebe000177c38e","6406d7f26dd5b7fc1e3377bd","6407ce622dcdfc0d5fdf5de6","1280","567","","1627","","j","","","<img src=""media/stimuli/animate_001_right.png"" class=""coveredImage test"" style = ""width:100px; height:100px; position:fixed; top:10%;    transform: translate(-50%, -50%);left:48%""></img><img src=""media/stimuli/animate_012_right.png"" class=""coveredImage test"" style = ""width:100px; height:100px;position:fixed; top:25%;        transform: translate(-50%, -50%);left:38%""></img><img src=""media/stimuli/animate_001_left.png"" class=""coveredImage test"" style = ""width:100px; height:100px;position:fixed; top:25%;        transform: translate(-50%, -50%);left:58%""></img><img src=""media/f.png""style = ""width:30px x; height:30px;position:fixed; top:43%;    transform: translate(-50%, -50%);left:40%""></img><img src=""media/j.png""style = ""width:30px; height:30px;position:fixed; top:43%;    transform: translate(-50%, -50%);left:60%""></img>","media/stimuli/animate_001_right.png","animate","right","single","media/stimuli/animate_012_right.png","animate","right","single","media/stimuli/animate_001_left.png","animate","left","single","identity_pose","","","",""
"","","","","","html-keyboard-response","19","81460","0.0-19.0","SS1678233193930","5b05e0d131cebe000177c38e","6406d7f26dd5b7fc1e3377bd","6407ce622dcdfc0d5fdf5de6","1280","567","","1278","","j","","","<img src=""media/stimuli/animate_009_right.png"" class=""coveredImage test"" style = ""width:100px; height:100px; position:fixed; top:10%;    transform: translate(-50%, -50%);left:48%""></img><img src=""media/stimuli/animate_004_right.png"" class=""coveredImage test"" style = ""width:100px; height:100px;position:fixed; top:25%;        transform: translate(-50%, -50%);left:38%""></img><img src=""media/stimuli/animate_009_left.png"" class=""coveredImage test"" style = ""width:100px; height:100px;position:fixed; top:25%;        transform: translate(-50%, -50%);left:58%""></img><img src=""media/f.png""style = ""width:30px x; height:30px;position:fixed; top:43%;    transform: translate(-50%, -50%);left:40%""></img><img src=""media/j.png""style = ""width:30px; height:30px;position:fixed; top:43%;    transform: translate(-50%, -50%);left:60%""></img>","media/stimuli/animate_009_right.png","animate","right","single","media/stimuli/animate_004_right.png","animate","right","single","media/stimuli/animate_009_left.png","animate","left","single","identity_pose","","","",""
"","","","","","html-keyboard-response","20","83503","0.0-20.0","SS1678233193930","5b05e0d131cebe000177c38e","6406d7f26dd5b7fc1e3377bd","6407ce622dcdfc0d5fdf5de6","1280","567","","2041",""," ","","","","","","","","","","","","","","","","","","","",""
"","","","","","survey-likert","21","88128","0.0-21.0","SS1678233193930","5b05e0d131cebe000177c38e","6406d7f26dd5b7fc1e3377bd","6407ce622dcdfc0d5fdf5de6","1280","567","","4621","","{""Q0"":1}","[0]","complexity","","","","","","","","","","","","","","","media/stimuli/inanimate_009_right.png","inanimate","single","right"
"","","","","","survey-likert","22","91655","0.0-22.0","SS1678233193930","5b05e0d131cebe000177c38e","6406d7f26dd5b7fc1e3377bd","6407ce622dcdfc0d5fdf5de6","1280","567","","3524","","{""Q0"":3}","[0]","complexity","","","","","","","","","","","","","","","media/stimuli/inanimate_006_left.png","inanimate","pair","left"
"","","","","","survey-likert","23","94859","0.0-23.0","SS1678233193930","5b05e0d131cebe000177c38e","6406d7f26dd5b7fc1e3377bd","6407ce622dcdfc0d5fdf5de6","1280","567","","3201","","{""Q0"":1}","[0]","complexity","","","","","","","","","","","","","","","media/stimuli/inanimate_011_right.png","inanimate","single","right"
"","","","","","survey-likert","24","96982","0.0-24.0","SS1678233193930","5b05e0d131cebe000177c38e","6406d7f26dd5b7fc1e3377bd","6407ce622dcdfc0d5fdf5de6","1280","567","","2119","","{""Q0"":1}","[0]","complexity","","","","","","","","","","","","","","","media/stimuli/inanimate_008_right.png","inanimate","pair","right"
"","","","","","survey-likert","25","98889","0.0-25.0","SS1678233193930","5b05e0d131cebe000177c38e","6406d7f26dd5b7fc1e3377bd","6407ce622dcdfc0d5fdf5de6","1280","567","","1904","","{""Q0"":2}","[0]","complexity","","","","","","","","","","","","","","","media/stimuli/inanimate_007_right.png","inanimate","single","right"
"","","","","","survey-likert","26","102656","0.0-26.0","SS1678233193930","5b05e0d131cebe000177c38e","6406d7f26dd5b7fc1e3377bd","6407ce622dcdfc0d5fdf5de6","1280","567","","3765","","{""Q0"":1}","[0]","complexity","","","","","","","","","","","","","","","media/stimuli/inanimate_009_right.png","inanimate","pair","right"
"","","","","","survey-likert","27","104613","0.0-27.0","SS1678233193930","5b05e0d131cebe000177c38e","6406d7f26dd5b7fc1e3377bd","6407ce622dcdfc0d5fdf5de6","1280","567","","1954","","{""Q0"":1}","[0]","complexity","","","","","","","","","","","","","","","media/stimuli/inanimate_008_right.png","inanimate","single","right"
"","","","","","survey-likert","28","107570","0.0-28.0","SS1678233193930","5b05e0d131cebe000177c38e","6406d7f26dd5b7fc1e3377bd","6407ce622dcdfc0d5fdf5de6","1280","567","","2954","","{""Q0"":1}","[0]","complexity","","","","","","","","","","","","","","","media/stimuli/inanimate_001_right.png","inanimate","pair","right"
"","","","","","survey-likert","29","113003","0.0-29.0","SS1678233193930","5b05e0d131cebe000177c38e","6406d7f26dd5b7fc1e3377bd","6407ce622dcdfc0d5fdf5de6","1280","567","","5431","","{""Q0"":1}","[0]","complexity","","","","","","","","","","","","","","","media/stimuli/animate_006_left.png","animate","pair","left"
"","","","","","survey-likert","30","115926","0.0-30.0","SS1678233193930","5b05e0d131cebe000177c38e","6406d7f26dd5b7fc1e3377bd","6407ce622dcdfc0d5fdf5de6","1280","567","","2921","","{""Q0"":0}","[0]","complexity","","","","","","","","","","","","","","","media/stimuli/animate_007_left.png","animate","pair","left"
"","","","","","survey-likert","31","117617","0.0-31.0","SS1678233193930","5b05e0d131cebe000177c38e","6406d7f26dd5b7fc1e3377bd","6407ce622dcdfc0d5fdf5de6","1280","567","","1691","","{""Q0"":1}","[0]","complexity","","","","","","","","","","","","","","","media/stimuli/animate_012_left.png","animate","single","left"
"","","","","","survey-likert","32","119410","0.0-32.0","SS1678233193930","5b05e0d131cebe000177c38e","6406d7f26dd5b7fc1e3377bd","6407ce622dcdfc0d5fdf5de6","1280","567","","1791","","{""Q0"":1}","[0]","complexity","","","","","","","","","","","","","","","media/stimuli/inanimate_008_left.png","inanimate","single","left"
"","","","","","html-keyboard-response","33","121824","0.0-33.0","SS1678233193930","5b05e0d131cebe000177c38e","6406d7f26dd5b7fc1e3377bd","6407ce622dcdfc0d5fdf5de6","1280","567","","2411","","f","","","","","","","","","","","","","","","","","","","",""
"","","","","","survey-likert","34","124912","0.0-34.0","SS1678233193930","5b05e0d131cebe000177c38e","6406d7f26dd5b7fc1e3377bd","6407ce622dcdfc0d5fdf5de6","1280","567","","3082","","{""Q0"":1}","[0]","complexity","","","","","","","","","","","","","","","media/stimuli/animate_004_left.png","animate","pair","left"
"","","","","","survey-likert","35","127754","0.0-35.0","SS1678233193930","5b05e0d131cebe000177c38e","6406d7f26dd5b7fc1e3377bd","6407ce622dcdfc0d5fdf5de6","1280","567","","2840","","{""Q0"":1}","[0]","complexity","","","","","","","","","","","","","","","media/stimuli/inanimate_006_right.png","inanimate","pair","right"
"","","","","","survey-likert","36","129673","0.0-36.0","SS1678233193930","5b05e0d131cebe000177c38e","6406d7f26dd5b7fc1e3377bd","6407ce622dcdfc0d5fdf5de6","1280","567","","1916","","{""Q0"":1}","[0]","complexity","","","","","","","","","","","","","","","media/stimuli/animate_008_left.png","animate","pair","left"
"","","","","","survey-likert","37","133628","0.0-37.0","SS1678233193930","5b05e0d131cebe000177c38e","6406d7f26dd5b7fc1e3377bd","6407ce622dcdfc0d5fdf5de6","1280","567","","3953","","{""Q0"":1}","[0]","complexity","","","","","","","","","","","","","","","media/stimuli/inanimate_007_right.png","inanimate","pair","right"
"","","","","","survey-likert","38","135536","0.0-38.0","SS1678233193930","5b05e0d131cebe000177c38e","6406d7f26dd5b7fc1e3377bd","6407ce622dcdfc0d5fdf5de6","1280","567","","1905","","{""Q0"":1}","[0]","complexity","","","","","","","","","","","","","","","media/stimuli/animate_002_right.png","animate","single","right"
"","","","","","survey-likert","39","137522","0.0-39.0","SS1678233193930","5b05e0d131cebe000177c38e","6406d7f26dd5b7fc1e3377bd","6407ce622dcdfc0d5fdf5de6","1280","567","","1983","","{""Q0"":1}","[0]","complexity","","","","","","","","","","","","","","","media/stimuli/inanimate_008_left.png","inanimate","pair","left"
"","","","","","survey-likert","40","139251","0.0-40.0","SS1678233193930","5b05e0d131cebe000177c38e","6406d7f26dd5b7fc1e3377bd","6407ce622dcdfc0d5fdf5de6","1280","567","","1728","","{""Q0"":1}","[0]","complexity","","","","","","","","","","","","","","","media/stimuli/animate_010_right.png","animate","pair","right"
"","","","","","survey-likert","41","142441","0.0-41.0","SS1678233193930","5b05e0d131cebe000177c38e","6406d7f26dd5b7fc1e3377bd","6407ce622dcdfc0d5fdf5de6","1280","567","","3186","","{""Q0"":1}","[0]","complexity","","","","","","","","","","","","","","","media/stimuli/animate_004_right.png","animate","pair","right"
"","","","","","survey-likert","42","144181","0.0-42.0","SS1678233193930","5b05e0d131cebe000177c38e","6406d7f26dd5b7fc1e3377bd","6407ce622dcdfc0d5fdf5de6","1280","567","","1735","","{""Q0"":1}","[0]","complexity","","","","","","","","","","","","","","","media/stimuli/inanimate_006_right.png","inanimate","single","right"
"","","","","","survey-likert","43","146041","0.0-43.0","SS1678233193930","5b05e0d131cebe000177c38e","6406d7f26dd5b7fc1e3377bd","6407ce622dcdfc0d5fdf5de6","1280","567","","1856","","{""Q0"":1}","[0]","complexity","","","","","","","","","","","","","","","media/stimuli/animate_002_left.png","animate","pair","left"
"","","","","","survey-likert","44","148496","0.0-44.0","SS1678233193930","5b05e0d131cebe000177c38e","6406d7f26dd5b7fc1e3377bd","6407ce622dcdfc0d5fdf5de6","1280","567","","2448","","{""Q0"":1}","[0]","complexity","","","","","","","","","","","","","","","media/stimuli/inanimate_001_left.png","inanimate","single","left"
"","","","","","survey-likert","45","150542","0.0-45.0","SS1678233193930","5b05e0d131cebe000177c38e","6406d7f26dd5b7fc1e3377bd","6407ce622dcdfc0d5fdf5de6","1280","567","","2041","","{""Q0"":1}","[0]","complexity","","","","","","","","","","","","","","","media/stimuli/animate_010_left.png","animate","single","left"
"","","","","","html-keyboard-response","46","152318","0.0-46.0","SS1678233193930","5b05e0d131cebe000177c38e","6406d7f26dd5b7fc1e3377bd","6407ce622dcdfc0d5fdf5de6","1280","567","","1775",""," ","","","","","","","","","","","","","","","","","","","",""
"","","","","","html-keyboard-response","47","158594","0.0-47.0","SS1678233193930","5b05e0d131cebe000177c38e","6406d7f26dd5b7fc1e3377bd","6407ce622dcdfc0d5fdf5de6","1280","567","","6274","","f","","","<img src=""media/stimuli/inanimate_010_left.png"" class=""coveredImage test"" style = ""width:100px; height:100px; position:fixed; top:10%;    transform: translate(-50%, -50%);left:48%""></img><img src=""media/stimuli/inanimate_011_left.png"" class=""coveredImage test"" style = ""width:100px; height:100px;position:fixed; top:25%;        transform: translate(-50%, -50%);left:38%""></img><img src=""media/stimuli/animate_010_left.png"" class=""coveredImage test"" style = ""width:100px; height:100px;position:fixed; top:25%;        transform: translate(-50%, -50%);left:58%""></img><img src=""media/f.png""style = ""width:30px x; height:30px;position:fixed; top:43%;    transform: translate(-50%, -50%);left:40%""></img><img src=""media/j.png""style = ""width:30px; height:30px;position:fixed; top:43%;    transform: translate(-50%, -50%);left:60%""></img>","media/stimuli/inanimate_010_left.png","inanimate","left","single","media/stimuli/inanimate_011_left.png","inanimate","left","single","media/stimuli/animate_010_left.png","animate","left","single","identity_animacy","","","",""
"","","","","","html-keyboard-response","48","160301","0.0-48.0","SS1678233193930","5b05e0d131cebe000177c38e","6406d7f26dd5b7fc1e3377bd","6407ce622dcdfc0d5fdf5de6","1280","567","","1705","","f","","","<img src=""media/stimuli/inanimate_004_left.png"" class=""coveredImage test"" style = ""width:100px; height:100px; position:fixed; top:10%;    transform: translate(-50%, -50%);left:44.5%""></img><img src=""media/stimuli/inanimate_004_left.png"" class=""coveredImage test"" style = ""width:100px; height:100px; position:fixed; top:10%;    transform: translate(-50%, -50%);left:51.5%""></img><img src=""media/stimuli/inanimate_004_left.png"" class=""coveredImage test"" style = ""width:100px; height:100px;position:fixed; top:25%;        transform: translate(-50%, -50%);left:38%""></img><img src=""media/stimuli/inanimate_003_left.png"" class=""coveredImage test"" style = ""width:100px; height:100px;position:fixed; top:25%;        transform: translate(-50%, -50%);left:54.5%""></img><img src=""media/stimuli/inanimate_003_left.png"" class=""coveredImage test"" style = ""width:100px; height:100px;position:fixed; top:25%;        transform: translate(-50%, -50%);left:61.5%""></img><img src=""media/f.png""style = ""width:30px x; height:30px;position:fixed; top:43%;    transform: translate(-50%, -50%);left:40%""></img><img src=""media/j.png""style = ""width:30px; height:30px;position:fixed; top:43%;    transform: translate(-50%, -50%);left:60%""></img>","media/stimuli/inanimate_004_left.png","inanimate","left","pair","media/stimuli/inanimate_004_left.png","inanimate","left","single","media/stimuli/inanimate_003_left.png","inanimate","left","pair","number_identity","","","",""
"","","","","","html-keyboard-response","49","161604","0.0-49.0","SS1678233193930","5b05e0d131cebe000177c38e","6406d7f26dd5b7fc1e3377bd","6407ce622dcdfc0d5fdf5de6","1280","567","","1301","","f","","","<img src=""media/stimuli/inanimate_001_right.png"" class=""coveredImage test"" style = ""width:100px; height:100px; position:fixed; top:10%;    transform: translate(-50%, -50%);left:44.5%""></img><img src=""media/stimuli/inanimate_001_right.png"" class=""coveredImage test"" style = ""width:100px; height:100px; position:fixed; top:10%;    transform: translate(-50%, -50%);left:51.5%""></img><img src=""media/stimuli/inanimate_001_right.png"" class=""coveredImage test"" style = ""width:100px; height:100px;position:fixed; top:25%;        transform: translate(-50%, -50%);left:38%""></img><img src=""media/stimuli/inanimate_007_right.png"" class=""coveredImage test"" style = ""width:100px; height:100px;position:fixed; top:25%;        transform: translate(-50%, -50%);left:54.5%""></img><img src=""media/stimuli/inanimate_007_right.png"" class=""coveredImage test"" style = ""width:100px; height:100px;position:fixed; top:25%;        transform: translate(-50%, -50%);left:61.5%""></img><img src=""media/f.png""style = ""width:30px x; height:30px;position:fixed; top:43%;    transform: translate(-50%, -50%);left:40%""></img><img src=""media/j.png""style = ""width:30px; height:30px;position:fixed; top:43%;    transform: translate(-50%, -50%);left:60%""></img>","media/stimuli/inanimate_001_right.png","inanimate","right","pair","media/stimuli/inanimate_001_right.png","inanimate","right","single","media/stimuli/inanimate_007_right.png","inanimate","right","pair","number_identity","","","",""
"","","","","","html-keyboard-response","50","174035","0.0-50.0","SS1678233193930","5b05e0d131cebe000177c38e","6406d7f26dd5b7fc1e3377bd","6407ce622dcdfc0d5fdf5de6","1280","567","","12430","","j","","","<img src=""media/stimuli/animate_005_right.png"" class=""coveredImage test"" style = ""width:100px; height:100px; position:fixed; top:10%;    transform: translate(-50%, -50%);left:44.5%""></img><img src=""media/stimuli/animate_005_right.png"" class=""coveredImage test"" style = ""width:100px; height:100px; position:fixed; top:10%;    transform: translate(-50%, -50%);left:51.5%""></img><img src=""media/stimuli/animate_005_left.png"" class=""coveredImage test"" style = ""width:100px; height:100px;position:fixed; top:25%;        transform: translate(-50%, -50%);left:34.5%""></img><img src=""media/stimuli/animate_005_left.png"" class=""coveredImage test"" style = ""width:100px; height:100px;position:fixed; top:25%;        transform: translate(-50%, -50%);left:41.5%""></img><img src=""media/stimuli/animate_005_right.png"" class=""coveredImage test"" style = ""width:100px; height:100px;position:fixed; top:25%;        transform: translate(-50%, -50%);left:58%""></img><img src=""media/f.png""style = ""width:30px x; height:30px;position:fixed; top:43%;    transform: translate(-50%, -50%);left:40%""></img><img src=""media/j.png""style = ""width:30px; height:30px;position:fixed; top:43%;    transform: translate(-50%, -50%);left:60%""></img>","media/stimuli/animate_005_right.png","animate","right","pair","media/stimuli/animate_005_left.png","animate","left","pair","media/stimuli/animate_005_right.png","animate","right","single","pose_number","","","",""
"","","","","","html-keyboard-response","51","177025","0.0-51.0","SS1678233193930","5b05e0d131cebe000177c38e","6406d7f26dd5b7fc1e3377bd","6407ce622dcdfc0d5fdf5de6","1280","567","","2985","","f","","","<img src=""media/stimuli/inanimate_006_right.png"" class=""coveredImage test"" style = ""width:100px; height:100px; position:fixed; top:10%;    transform: translate(-50%, -50%);left:48%""></img><img src=""media/stimuli/inanimate_005_right.png"" class=""coveredImage test"" style = ""width:100px; height:100px;position:fixed; top:25%;        transform: translate(-50%, -50%);left:38%""></img><img src=""media/stimuli/animate_001_right.png"" class=""coveredImage test"" style = ""width:100px; height:100px;position:fixed; top:25%;        transform: translate(-50%, -50%);left:58%""></img><img src=""media/f.png""style = ""width:30px x; height:30px;position:fixed; top:43%;    transform: translate(-50%, -50%);left:40%""></img><img src=""media/j.png""style = ""width:30px; height:30px;position:fixed; top:43%;    transform: translate(-50%, -50%);left:60%""></img>","media/stimuli/inanimate_006_right.png","inanimate","right","single","media/stimuli/inanimate_005_right.png","inanimate","right","single","media/stimuli/animate_001_right.png","animate","right","single","identity_animacy","","","",""
"","","","","","html-keyboard-response","52","179410","0.0-52.0","SS1678233193930","5b05e0d131cebe000177c38e","6406d7f26dd5b7fc1e3377bd","6407ce622dcdfc0d5fdf5de6","1280","567","","2381","","f","","","<img src=""media/stimuli/animate_004_right.png"" class=""coveredImage test"" style = ""width:100px; height:100px; position:fixed; top:10%;    transform: translate(-50%, -50%);left:48%""></img><img src=""media/stimuli/inanimate_004_right.png"" class=""coveredImage test"" style = ""width:100px; height:100px;position:fixed; top:25%;        transform: translate(-50%, -50%);left:38%""></img><img src=""media/stimuli/animate_004_left.png"" class=""coveredImage test"" style = ""width:100px; height:100px;position:fixed; top:25%;        transform: translate(-50%, -50%);left:58%""></img><img src=""media/f.png""style = ""width:30px x; height:30px;position:fixed; top:43%;    transform: translate(-50%, -50%);left:40%""></img><img src=""media/j.png""style = ""width:30px; height:30px;position:fixed; top:43%;    transform: translate(-50%, -50%);left:60%""></img>","media/stimuli/animate_004_right.png","animate","right","single","media/stimuli/inanimate_004_right.png","inanimate","right","single","media/stimuli/animate_004_left.png","animate","left","single","animacy_pose","","","",""
"","","","","","html-keyboard-response","53","195112","0.0-53.0","SS1678233193930","5b05e0d131cebe000177c38e","6406d7f26dd5b7fc1e3377bd","6407ce622dcdfc0d5fdf5de6","1280","567","","15695","","f","","","<img src=""media/stimuli/animate_003_left.png"" class=""coveredImage test"" style = ""width:100px; height:100px; position:fixed; top:10%;    transform: translate(-50%, -50%);left:44.5%""></img><img src=""media/stimuli/animate_003_left.png"" class=""coveredImage test"" style = ""width:100px; height:100px; position:fixed; top:10%;    transform: translate(-50%, -50%);left:51.5%""></img><img src=""media/stimuli/animate_003_left.png"" class=""coveredImage test"" style = ""width:100px; height:100px;position:fixed; top:25%;        transform: translate(-50%, -50%);left:34.5%""></img><img src=""media/stimuli/animate_003_left.png"" class=""coveredImage test"" style = ""width:100px; height:100px;position:fixed; top:25%;        transform: translate(-50%, -50%);left:41.5%""></img><img src=""media/stimuli/inanimate_011_right.png"" class=""coveredImage test"" style = ""width:100px; height:100px;position:fixed; top:25%;        transform: translate(-50%, -50%);left:54.5%""></img><img src=""media/stimuli/inanimate_011_right.png"" class=""coveredImage test"" style = ""width:100px; height:100px;position:fixed; top:25%;        transform: translate(-50%, -50%);left:61.5%""></img><img src=""media/f.png""style = ""width:30px x; height:30px;position:fixed; top:43%;    transform: translate(-50%, -50%);left:40%""></img><img src=""media/j.png""style = ""width:30px; height:30px;position:fixed; top:43%;    transform: translate(-50%, -50%);left:60%""></img>","media/stimuli/animate_003_left.png","animate","left","pair","media/stimuli/animate_003_left.png","animate","left","pair","media/stimuli/inanimate_011_right.png","inanimate","right","pair","pose_animacy","","","",""
"","","","","","html-keyboard-response","54","196516","0.0-54.0","SS1678233193930","5b05e0d131cebe000177c38e","6406d7f26dd5b7fc1e3377bd","6407ce622dcdfc0d5fdf5de6","1280","567","","1402","","j","","","<img src=""media/stimuli/inanimate_007_left.png"" class=""coveredImage test"" style = ""width:100px; height:100px; position:fixed; top:10%;    transform: translate(-50%, -50%);left:48%""></img><img src=""media/stimuli/animate_009_left.png"" class=""coveredImage test"" style = ""width:100px; height:100px;position:fixed; top:25%;        transform: translate(-50%, -50%);left:38%""></img><img src=""media/stimuli/inanimate_007_left.png"" class=""coveredImage test"" style = ""width:100px; height:100px;position:fixed; top:25%;        transform: translate(-50%, -50%);left:54.5%""></img><img src=""media/stimuli/inanimate_007_left.png"" class=""coveredImage test"" style = ""width:100px; height:100px;position:fixed; top:25%;        transform: translate(-50%, -50%);left:61.5%""></img><img src=""media/f.png""style = ""width:30px x; height:30px;position:fixed; top:43%;    transform: translate(-50%, -50%);left:40%""></img><img src=""media/j.png""style = ""width:30px; height:30px;position:fixed; top:43%;    transform: translate(-50%, -50%);left:60%""></img>","media/stimuli/inanimate_007_left.png","inanimate","left","single","media/stimuli/animate_009_left.png","animate","left","single","media/stimuli/inanimate_007_left.png","inanimate","left","pair","animacy_number","","","",""
"","","","","","html-keyboard-response","55","201768","0.0-55.0","SS1678233193930","5b05e0d131cebe000177c38e","6406d7f26dd5b7fc1e3377bd","6407ce622dcdfc0d5fdf5de6","1280","567","","5250","","f","","","<img src=""media/stimuli/animate_010_right.png"" class=""coveredImage test"" style = ""width:100px; height:100px; position:fixed; top:10%;    transform: translate(-50%, -50%);left:44.5%""></img><img src=""media/stimuli/animate_010_right.png"" class=""coveredImage test"" style = ""width:100px; height:100px; position:fixed; top:10%;    transform: translate(-50%, -50%);left:51.5%""></img><img src=""media/stimuli/animate_010_left.png"" class=""coveredImage test"" style = ""width:100px; height:100px;position:fixed; top:25%;        transform: translate(-50%, -50%);left:34.5%""></img><img src=""media/stimuli/animate_010_left.png"" class=""coveredImage test"" style = ""width:100px; height:100px;position:fixed; top:25%;        transform: translate(-50%, -50%);left:41.5%""></img><img src=""media/stimuli/animate_001_right.png"" class=""coveredImage test"" style = ""width:100px; height:100px;position:fixed; top:25%;        transform: translate(-50%, -50%);left:54.5%""></img><img src=""media/stimuli/animate_001_right.png"" class=""coveredImage test"" style = ""width:100px; height:100px;position:fixed; top:25%;        transform: translate(-50%, -50%);left:61.5%""></img><img src=""media/f.png""style = ""width:30px x; height:30px;position:fixed; top:43%;    transform: translate(-50%, -50%);left:40%""></img><img src=""media/j.png""style = ""width:30px; height:30px;position:fixed; top:43%;    transform: translate(-50%, -50%);left:60%""></img>","media/stimuli/animate_010_right.png","animate","right","pair","media/stimuli/animate_010_left.png","animate","left","pair","media/stimuli/animate_001_right.png","animate","right","pair","pose_identity","","","",""
"","","","","","html-keyboard-response","56","203628","0.0-56.0","SS1678233193930","5b05e0d131cebe000177c38e","6406d7f26dd5b7fc1e3377bd","6407ce622dcdfc0d5fdf5de6","1280","567","","1858","","f","","","<img src=""media/stimuli/animate_005_left.png"" class=""coveredImage test"" style = ""width:100px; height:100px; position:fixed; top:10%;    transform: translate(-50%, -50%);left:44.5%""></img><img src=""media/stimuli/animate_005_left.png"" class=""coveredImage test"" style = ""width:100px; height:100px; position:fixed; top:10%;    transform: translate(-50%, -50%);left:51.5%""></img><img src=""media/stimuli/animate_005_right.png"" class=""coveredImage test"" style = ""width:100px; height:100px;position:fixed; top:25%;        transform: translate(-50%, -50%);left:34.5%""></img><img src=""media/stimuli/animate_005_right.png"" class=""coveredImage test"" style = ""width:100px; height:100px;position:fixed; top:25%;        transform: translate(-50%, -50%);left:41.5%""></img><img src=""media/stimuli/inanimate_011_left.png"" class=""coveredImage test"" style = ""width:100px; height:100px;position:fixed; top:25%;        transform: translate(-50%, -50%);left:54.5%""></img><img src=""media/stimuli/inanimate_011_left.png"" class=""coveredImage test"" style = ""width:100px; height:100px;position:fixed; top:25%;        transform: translate(-50%, -50%);left:61.5%""></img><img src=""media/f.png""style = ""width:30px x; height:30px;position:fixed; top:43%;    transform: translate(-50%, -50%);left:40%""></img><img src=""media/j.png""style = ""width:30px; height:30px;position:fixed; top:43%;    transform: translate(-50%, -50%);left:60%""></img>","media/stimuli/animate_005_left.png","animate","left","pair","media/stimuli/animate_005_right.png","animate","right","pair","media/stimuli/inanimate_011_left.png","inanimate","left","pair","pose_animacy","","","",""
"","","","","","html-keyboard-response","57","204611","0.0-57.0","SS1678233193930","5b05e0d131cebe000177c38e","6406d7f26dd5b7fc1e3377bd","6407ce622dcdfc0d5fdf5de6","1280","567","","979","","j","","","<img src=""media/stimuli/inanimate_006_left.png"" class=""coveredImage test"" style = ""width:100px; height:100px; position:fixed; top:10%;    transform: translate(-50%, -50%);left:48%""></img><img src=""media/stimuli/animate_011_left.png"" class=""coveredImage test"" style = ""width:100px; height:100px;position:fixed; top:25%;        transform: translate(-50%, -50%);left:38%""></img><img src=""media/stimuli/inanimate_006_left.png"" class=""coveredImage test"" style = ""width:100px; height:100px;position:fixed; top:25%;        transform: translate(-50%, -50%);left:54.5%""></img><img src=""media/stimuli/inanimate_006_left.png"" class=""coveredImage test"" style = ""width:100px; height:100px;position:fixed; top:25%;        transform: translate(-50%, -50%);left:61.5%""></img><img src=""media/f.png""style = ""width:30px x; height:30px;position:fixed; top:43%;    transform: translate(-50%, -50%);left:40%""></img><img src=""media/j.png""style = ""width:30px; height:30px;position:fixed; top:43%;    transform: translate(-50%, -50%);left:60%""></img>","media/stimuli/inanimate_006_left.png","inanimate","left","single","media/stimuli/animate_011_left.png","animate","left","single","media/stimuli/inanimate_006_left.png","inanimate","left","pair","animacy_number","","","",""
"","","","","","html-keyboard-response","58","206052","0.0-58.0","SS1678233193930","5b05e0d131cebe000177c38e","6406d7f26dd5b7fc1e3377bd","6407ce622dcdfc0d5fdf5de6","1280","567","","1437","","j","","","<img src=""media/stimuli/inanimate_007_left.png"" class=""coveredImage test"" style = ""width:100px; height:100px; position:fixed; top:10%;    transform: translate(-50%, -50%);left:48%""></img><img src=""media/stimuli/animate_002_left.png"" class=""coveredImage test"" style = ""width:100px; height:100px;position:fixed; top:25%;        transform: translate(-50%, -50%);left:38%""></img><img src=""media/stimuli/inanimate_007_left.png"" class=""coveredImage test"" style = ""width:100px; height:100px;position:fixed; top:25%;        transform: translate(-50%, -50%);left:54.5%""></img><img src=""media/stimuli/inanimate_007_left.png"" class=""coveredImage test"" style = ""width:100px; height:100px;position:fixed; top:25%;        transform: translate(-50%, -50%);left:61.5%""></img><img src=""media/f.png""style = ""width:30px x; height:30px;position:fixed; top:43%;    transform: translate(-50%, -50%);left:40%""></img><img src=""media/j.png""style = ""width:30px; height:30px;position:fixed; top:43%;    transform: translate(-50%, -50%);left:60%""></img>","media/stimuli/inanimate_007_left.png","inanimate","left","single","media/stimuli/animate_002_left.png","animate","left","single","media/stimuli/inanimate_007_left.png","inanimate","left","pair","animacy_number","","","",""
"","","","","","html-keyboard-response","59","207375","0.0-59.0","SS1678233193930","5b05e0d131cebe000177c38e","6406d7f26dd5b7fc1e3377bd","6407ce622dcdfc0d5fdf5de6","1280","567","","1318",""," ","","","","","","","","","","","","","","","","","","","",""
"","","","","","survey-likert","60","210874","0.0-60.0","SS1678233193930","5b05e0d131cebe000177c38e","6406d7f26dd5b7fc1e3377bd","6407ce622dcdfc0d5fdf5de6","1280","567","","3495","","{""Q0"":1}","[0]","complexity","","","","","","","","","","","","","","","media/stimuli/animate_012_left.png","animate","pair","left"
"","","","","","survey-likert","61","213052","0.0-61.0","SS1678233193930","5b05e0d131cebe000177c38e","6406d7f26dd5b7fc1e3377bd","6407ce622dcdfc0d5fdf5de6","1280","567","","2173","","{""Q0"":0}","[0]","complexity","","","","","","","","","","","","","","","media/stimuli/inanimate_003_right.png","inanimate","pair","right"
"","","","","","survey-likert","62","215248","0.0-62.0","SS1678233193930","5b05e0d131cebe000177c38e","6406d7f26dd5b7fc1e3377bd","6407ce622dcdfc0d5fdf5de6","1280","567","","2194","","{""Q0"":1}","[0]","complexity","","","","","","","","","","","","","","","media/stimuli/animate_005_right.png","animate","single","right"
"","","","","","survey-likert","63","216825","0.0-63.0","SS1678233193930","5b05e0d131cebe000177c38e","6406d7f26dd5b7fc1e3377bd","6407ce622dcdfc0d5fdf5de6","1280","567","","1573","","{""Q0"":1}","[0]","complexity","","","","","","","","","","","","","","","media/stimuli/animate_009_right.png","animate","single","right"
"","","","","","survey-likert","64","218747","0.0-64.0","SS1678233193930","5b05e0d131cebe000177c38e","6406d7f26dd5b7fc1e3377bd","6407ce622dcdfc0d5fdf5de6","1280","567","","1919","","{""Q0"":1}","[0]","complexity","","","","","","","","","","","","","","","media/stimuli/animate_002_left.png","animate","single","left"
"","","","","","survey-likert","65","220899","0.0-65.0","SS1678233193930","5b05e0d131cebe000177c38e","6406d7f26dd5b7fc1e3377bd","6407ce622dcdfc0d5fdf5de6","1280","567","","2149","","{""Q0"":1}","[0]","complexity","","","","","","","","","","","","","","","media/stimuli/animate_009_right.png","animate","pair","right"
"","","","","","survey-likert","66","223213","0.0-66.0","SS1678233193930","5b05e0d131cebe000177c38e","6406d7f26dd5b7fc1e3377bd","6407ce622dcdfc0d5fdf5de6","1280","567","","2311","","{""Q0"":0}","[0]","complexity","","","","","","","","","","","","","","","media/stimuli/inanimate_007_left.png","inanimate","pair","left"
"","","","","","survey-likert","67","225245","0.0-67.0","SS1678233193930","5b05e0d131cebe000177c38e","6406d7f26dd5b7fc1e3377bd","6407ce622dcdfc0d5fdf5de6","1280","567","","2029","","{""Q0"":0}","[0]","complexity","","","","","","","","","","","","","","","media/stimuli/inanimate_012_left.png","inanimate","pair","left"
"","","","","","survey-likert","68","227086","0.0-68.0","SS1678233193930","5b05e0d131cebe000177c38e","6406d7f26dd5b7fc1e3377bd","6407ce622dcdfc0d5fdf5de6","1280","567","","1838","","{""Q0"":0}","[0]","complexity","","","","","","","","","","","","","","","media/stimuli/inanimate_012_left.png","inanimate","single","left"
"","","","","","survey-likert","69","229059","0.0-69.0","SS1678233193930","5b05e0d131cebe000177c38e","6406d7f26dd5b7fc1e3377bd","6407ce622dcdfc0d5fdf5de6","1280","567","","1970","","{""Q0"":0}","[0]","complexity","","","","","","","","","","","","","","","media/stimuli/inanimate_010_right.png","inanimate","pair","right"
"","","","","","survey-likert","70","231027","0.0-70.0","SS1678233193930","5b05e0d131cebe000177c38e","6406d7f26dd5b7fc1e3377bd","6407ce622dcdfc0d5fdf5de6","1280","567","","1966","","{""Q0"":1}","[0]","complexity","","","","","","","","","","","","","","","media/stimuli/animate_003_right.png","animate","single","right"
"","","","","","survey-likert","71","232852","0.0-71.0","SS1678233193930","5b05e0d131cebe000177c38e","6406d7f26dd5b7fc1e3377bd","6407ce622dcdfc0d5fdf5de6","1280","567","","1821","","{""Q0"":1}","[0]","complexity","","","","","","","","","","","","","","","media/stimuli/animate_008_left.png","animate","single","left"
"","","","","","html-keyboard-response","72","234755","0.0-72.0","SS1678233193930","5b05e0d131cebe000177c38e","6406d7f26dd5b7fc1e3377bd","6407ce622dcdfc0d5fdf5de6","1280","567","","1901","","enter","","","","","","","","","","","","","","","","","","","",""
"","","","","","html-keyboard-response","73","240493","0.0-73.0","SS1678233193930","5b05e0d131cebe000177c38e","6406d7f26dd5b7fc1e3377bd","6407ce622dcdfc0d5fdf5de6","1280","567","","5737","","f","","","<img src=""media/stimuli/inanimate_002_left.png"" class=""coveredImage test"" style = ""width:100px; height:100px; position:fixed; top:10%;    transform: translate(-50%, -50%);left:48%""></img><img src=""media/stimuli/inanimate_002_left.png"" class=""coveredImage test"" style = ""width:100px; height:100px;position:fixed; top:25%;        transform: translate(-50%, -50%);left:34.5%""></img><img src=""media/stimuli/inanimate_002_left.png"" class=""coveredImage test"" style = ""width:100px; height:100px;position:fixed; top:25%;        transform: translate(-50%, -50%);left:41.5%""></img><img src=""media/stimuli/inanimate_002_right.png"" class=""coveredImage test"" style = ""width:100px; height:100px;position:fixed; top:25%;        transform: translate(-50%, -50%);left:58%""></img><img src=""media/f.png""style = ""width:30px x; height:30px;position:fixed; top:43%;    transform: translate(-50%, -50%);left:40%""></img><img src=""media/j.png""style = ""width:30px; height:30px;position:fixed; top:43%;    transform: translate(-50%, -50%);left:60%""></img>","media/stimuli/inanimate_002_left.png","inanimate","left","single","media/stimuli/inanimate_002_left.png","inanimate","left","pair","media/stimuli/inanimate_002_right.png","inanimate","right","single","number_pose","","","",""
"","","","","","html-keyboard-response","74","241888","0.0-74.0","SS1678233193930","5b05e0d131cebe000177c38e","6406d7f26dd5b7fc1e3377bd","6407ce622dcdfc0d5fdf5de6","1280","567","","1392","","j","","","<img src=""media/stimuli/animate_009_left.png"" class=""coveredImage test"" style = ""width:100px; height:100px; position:fixed; top:10%;    transform: translate(-50%, -50%);left:44.5%""></img><img src=""media/stimuli/animate_009_left.png"" class=""coveredImage test"" style = ""width:100px; height:100px; position:fixed; top:10%;    transform: translate(-50%, -50%);left:51.5%""></img><img src=""media/stimuli/inanimate_012_left.png"" class=""coveredImage test"" style = ""width:100px; height:100px;position:fixed; top:25%;        transform: translate(-50%, -50%);left:34.5%""></img><img src=""media/stimuli/inanimate_012_left.png"" class=""coveredImage test"" style = ""width:100px; height:100px;position:fixed; top:25%;        transform: translate(-50%, -50%);left:41.5%""></img><img src=""media/stimuli/animate_009_left.png"" class=""coveredImage test"" style = ""width:100px; height:100px;position:fixed; top:25%;        transform: translate(-50%, -50%);left:58%""></img><img src=""media/f.png""style = ""width:30px x; height:30px;position:fixed; top:43%;    transform: translate(-50%, -50%);left:40%""></img><img src=""media/j.png""style = ""width:30px; height:30px;position:fixed; top:43%;    transform: translate(-50%, -50%);left:60%""></img>","media/stimuli/animate_009_left.png","animate","left","pair","media/stimuli/inanimate_012_left.png","inanimate","left","pair","media/stimuli/animate_009_left.png","animate","left","single","animacy_number","","","",""
"","","","","","html-keyboard-response","75","243712","0.0-75.0","SS1678233193930","5b05e0d131cebe000177c38e","6406d7f26dd5b7fc1e3377bd","6407ce622dcdfc0d5fdf5de6","1280","567","","1822","","j","","","<img src=""media/stimuli/inanimate_011_right.png"" class=""coveredImage test"" style = ""width:100px; height:100px; position:fixed; top:10%;    transform: translate(-50%, -50%);left:48%""></img><img src=""media/stimuli/animate_007_right.png"" class=""coveredImage test"" style = ""width:100px; height:100px;position:fixed; top:25%;        transform: translate(-50%, -50%);left:34.5%""></img><img src=""media/stimuli/animate_007_right.png"" class=""coveredImage test"" style = ""width:100px; height:100px;position:fixed; top:25%;        transform: translate(-50%, -50%);left:41.5%""></img><img src=""media/stimuli/inanimate_011_left.png"" class=""coveredImage test"" style = ""width:100px; height:100px;position:fixed; top:25%;        transform: translate(-50%, -50%);left:54.5%""></img><img src=""media/stimuli/inanimate_011_left.png"" class=""coveredImage test"" style = ""width:100px; height:100px;position:fixed; top:25%;        transform: translate(-50%, -50%);left:61.5%""></img><img src=""media/f.png""style = ""width:30px x; height:30px;position:fixed; top:43%;    transform: translate(-50%, -50%);left:40%""></img><img src=""media/j.png""style = ""width:30px; height:30px;position:fixed; top:43%;    transform: translate(-50%, -50%);left:60%""></img>","media/stimuli/inanimate_011_right.png","inanimate","right","single","media/stimuli/animate_007_right.png","animate","right","pair","media/stimuli/inanimate_011_left.png","inanimate","left","pair","animacy_pose","","","",""
"","","","","","html-keyboard-response","76","245761","0.0-76.0","SS1678233193930","5b05e0d131cebe000177c38e","6406d7f26dd5b7fc1e3377bd","6407ce622dcdfc0d5fdf5de6","1280","567","","2047","","f","","","<img src=""media/stimuli/inanimate_008_right.png"" class=""coveredImage test"" style = ""width:100px; height:100px; position:fixed; top:10%;    transform: translate(-50%, -50%);left:48%""></img><img src=""media/stimuli/inanimate_007_right.png"" class=""coveredImage test"" style = ""width:100px; height:100px;position:fixed; top:25%;        transform: translate(-50%, -50%);left:38%""></img><img src=""media/stimuli/animate_011_right.png"" class=""coveredImage test"" style = ""width:100px; height:100px;position:fixed; top:25%;        transform: translate(-50%, -50%);left:58%""></img><img src=""media/f.png""style = ""width:30px x; height:30px;position:fixed; top:43%;    transform: translate(-50%, -50%);left:40%""></img><img src=""media/j.png""style = ""width:30px; height:30px;position:fixed; top:43%;    transform: translate(-50%, -50%);left:60%""></img>","media/stimuli/inanimate_008_right.png","inanimate","right","single","media/stimuli/inanimate_007_right.png","inanimate","right","single","media/stimuli/animate_011_right.png","animate","right","single","identity_animacy","","","",""
"","","","","","html-keyboard-response","77","247980","0.0-77.0","SS1678233193930","5b05e0d131cebe000177c38e","6406d7f26dd5b7fc1e3377bd","6407ce622dcdfc0d5fdf5de6","1280","567","","2218","","f","","","<img src=""media/stimuli/animate_012_left.png"" class=""coveredImage test"" style = ""width:100px; height:100px; position:fixed; top:10%;    transform: translate(-50%, -50%);left:44.5%""></img><img src=""media/stimuli/animate_012_left.png"" class=""coveredImage test"" style = ""width:100px; height:100px; position:fixed; top:10%;    transform: translate(-50%, -50%);left:51.5%""></img><img src=""media/stimuli/animate_012_left.png"" class=""coveredImage test"" style = ""width:100px; height:100px;position:fixed; top:25%;        transform: translate(-50%, -50%);left:38%""></img><img src=""media/stimuli/animate_009_left.png"" class=""coveredImage test"" style = ""width:100px; height:100px;position:fixed; top:25%;        transform: translate(-50%, -50%);left:54.5%""></img><img src=""media/stimuli/animate_009_left.png"" class=""coveredImage test"" style = ""width:100px; height:100px;position:fixed; top:25%;        transform: translate(-50%, -50%);left:61.5%""></img><img src=""media/f.png""style = ""width:30px x; height:30px;position:fixed; top:43%;    transform: translate(-50%, -50%);left:40%""></img><img src=""media/j.png""style = ""width:30px; height:30px;position:fixed; top:43%;    transform: translate(-50%, -50%);left:60%""></img>","media/stimuli/animate_012_left.png","animate","left","pair","media/stimuli/animate_012_left.png","animate","left","single","media/stimuli/animate_009_left.png","animate","left","pair","number_identity","","","",""
"","","","","","html-keyboard-response","78","258288","0.0-78.0","SS1678233193930","5b05e0d131cebe000177c38e","6406d7f26dd5b7fc1e3377bd","6407ce622dcdfc0d5fdf5de6","1280","567","","10306","","f","","","<img src=""media/stimuli/animate_007_left.png"" class=""coveredImage test"" style = ""width:100px; height:100px; position:fixed; top:10%;    transform: translate(-50%, -50%);left:44.5%""></img><img src=""media/stimuli/animate_007_left.png"" class=""coveredImage test"" style = ""width:100px; height:100px; position:fixed; top:10%;    transform: translate(-50%, -50%);left:51.5%""></img><img src=""media/stimuli/animate_007_left.png"" class=""coveredImage test"" style = ""width:100px; height:100px;position:fixed; top:25%;        transform: translate(-50%, -50%);left:38%""></img><img src=""media/stimuli/animate_007_right.png"" class=""coveredImage test"" style = ""width:100px; height:100px;position:fixed; top:25%;        transform: translate(-50%, -50%);left:54.5%""></img><img src=""media/stimuli/animate_007_right.png"" class=""coveredImage test"" style = ""width:100px; height:100px;position:fixed; top:25%;        transform: translate(-50%, -50%);left:61.5%""></img><img src=""media/f.png""style = ""width:30px x; height:30px;position:fixed; top:43%;    transform: translate(-50%, -50%);left:40%""></img><img src=""media/j.png""style = ""width:30px; height:30px;position:fixed; top:43%;    transform: translate(-50%, -50%);left:60%""></img>","media/stimuli/animate_007_left.png","animate","left","pair","media/stimuli/animate_007_left.png","animate","left","single","media/stimuli/animate_007_right.png","animate","right","pair","number_pose","","","",""
"","","","","","html-keyboard-response","79","261493","0.0-79.0","SS1678233193930","5b05e0d131cebe000177c38e","6406d7f26dd5b7fc1e3377bd","6407ce622dcdfc0d5fdf5de6","1280","567","","3202","","f","","","<img src=""media/stimuli/animate_005_right.png"" class=""coveredImage test"" style = ""width:100px; height:100px; position:fixed; top:10%;    transform: translate(-50%, -50%);left:44.5%""></img><img src=""media/stimuli/animate_005_right.png"" class=""coveredImage test"" style = ""width:100px; height:100px; position:fixed; top:10%;    transform: translate(-50%, -50%);left:51.5%""></img><img src=""media/stimuli/animate_005_right.png"" class=""coveredImage test"" style = ""width:100px; height:100px;position:fixed; top:25%;        transform: translate(-50%, -50%);left:38%""></img><img src=""media/stimuli/inanimate_003_right.png"" class=""coveredImage test"" style = ""width:100px; height:100px;position:fixed; top:25%;        transform: translate(-50%, -50%);left:54.5%""></img><img src=""media/stimuli/inanimate_003_right.png"" class=""coveredImage test"" style = ""width:100px; height:100px;position:fixed; top:25%;        transform: translate(-50%, -50%);left:61.5%""></img><img src=""media/f.png""style = ""width:30px x; height:30px;position:fixed; top:43%;    transform: translate(-50%, -50%);left:40%""></img><img src=""media/j.png""style = ""width:30px; height:30px;position:fixed; top:43%;    transform: translate(-50%, -50%);left:60%""></img>","media/stimuli/animate_005_right.png","animate","right","pair","media/stimuli/animate_005_right.png","animate","right","single","media/stimuli/inanimate_003_right.png","inanimate","right","pair","number_animacy","","","",""
"","","","","","html-keyboard-response","80","277221","0.0-80.0","SS1678233193930","5b05e0d131cebe000177c38e","6406d7f26dd5b7fc1e3377bd","6407ce622dcdfc0d5fdf5de6","1280","567","","15726","","j","","","<img src=""media/stimuli/animate_011_left.png"" class=""coveredImage test"" style = ""width:100px; height:100px; position:fixed; top:10%;    transform: translate(-50%, -50%);left:48%""></img><img src=""media/stimuli/animate_010_left.png"" class=""coveredImage test"" style = ""width:100px; height:100px;position:fixed; top:25%;        transform: translate(-50%, -50%);left:38%""></img><img src=""media/stimuli/animate_011_right.png"" class=""coveredImage test"" style = ""width:100px; height:100px;position:fixed; top:25%;        transform: translate(-50%, -50%);left:58%""></img><img src=""media/f.png""style = ""width:30px x; height:30px;position:fixed; top:43%;    transform: translate(-50%, -50%);left:40%""></img><img src=""media/j.png""style = ""width:30px; height:30px;position:fixed; top:43%;    transform: translate(-50%, -50%);left:60%""></img>","media/stimuli/animate_011_left.png","animate","left","single","media/stimuli/animate_010_left.png","animate","left","single","media/stimuli/animate_011_right.png","animate","right","single","identity_pose","","","",""
"","","","","","html-keyboard-response","81","278727","0.0-81.0","SS1678233193930","5b05e0d131cebe000177c38e","6406d7f26dd5b7fc1e3377bd","6407ce622dcdfc0d5fdf5de6","1280","567","","1504","","j","","","<img src=""media/stimuli/animate_010_right.png"" class=""coveredImage test"" style = ""width:100px; height:100px; position:fixed; top:10%;    transform: translate(-50%, -50%);left:44.5%""></img><img src=""media/stimuli/animate_010_right.png"" class=""coveredImage test"" style = ""width:100px; height:100px; position:fixed; top:10%;    transform: translate(-50%, -50%);left:51.5%""></img><img src=""media/stimuli/animate_008_right.png"" class=""coveredImage test"" style = ""width:100px; height:100px;position:fixed; top:25%;        transform: translate(-50%, -50%);left:34.5%""></img><img src=""media/stimuli/animate_008_right.png"" class=""coveredImage test"" style = ""width:100px; height:100px;position:fixed; top:25%;        transform: translate(-50%, -50%);left:41.5%""></img><img src=""media/stimuli/animate_010_left.png"" class=""coveredImage test"" style = ""width:100px; height:100px;position:fixed; top:25%;        transform: translate(-50%, -50%);left:54.5%""></img><img src=""media/stimuli/animate_010_left.png"" class=""coveredImage test"" style = ""width:100px; height:100px;position:fixed; top:25%;        transform: translate(-50%, -50%);left:61.5%""></img><img src=""media/f.png""style = ""width:30px x; height:30px;position:fixed; top:43%;    transform: translate(-50%, -50%);left:40%""></img><img src=""media/j.png""style = ""width:30px; height:30px;position:fixed; top:43%;    transform: translate(-50%, -50%);left:60%""></img>","media/stimuli/animate_010_right.png","animate","right","pair","media/stimuli/animate_008_right.png","animate","right","pair","media/stimuli/animate_010_left.png","animate","left","pair","identity_pose","","","",""
"","","","","","html-keyboard-response","82","280608","0.0-82.0","SS1678233193930","5b05e0d131cebe000177c38e","6406d7f26dd5b7fc1e3377bd","6407ce622dcdfc0d5fdf5de6","1280","567","","1878","","j","","","<img src=""media/stimuli/animate_005_right.png"" class=""coveredImage test"" style = ""width:100px; height:100px; position:fixed; top:10%;    transform: translate(-50%, -50%);left:44.5%""></img><img src=""media/stimuli/animate_005_right.png"" class=""coveredImage test"" style = ""width:100px; height:100px; position:fixed; top:10%;    transform: translate(-50%, -50%);left:51.5%""></img><img src=""media/stimuli/inanimate_003_right.png"" class=""coveredImage test"" style = ""width:100px; height:100px;position:fixed; top:25%;        transform: translate(-50%, -50%);left:34.5%""></img><img src=""media/stimuli/inanimate_003_right.png"" class=""coveredImage test"" style = ""width:100px; height:100px;position:fixed; top:25%;        transform: translate(-50%, -50%);left:41.5%""></img><img src=""media/stimuli/animate_009_right.png"" class=""coveredImage test"" style = ""width:100px; height:100px;position:fixed; top:25%;        transform: translate(-50%, -50%);left:54.5%""></img><img src=""media/stimuli/animate_009_right.png"" class=""coveredImage test"" style = ""width:100px; height:100px;position:fixed; top:25%;        transform: translate(-50%, -50%);left:61.5%""></img><img src=""media/f.png""style = ""width:30px x; height:30px;position:fixed; top:43%;    transform: translate(-50%, -50%);left:40%""></img><img src=""media/j.png""style = ""width:30px; height:30px;position:fixed; top:43%;    transform: translate(-50%, -50%);left:60%""></img>","media/stimuli/animate_005_right.png","animate","right","pair","media/stimuli/inanimate_003_right.png","inanimate","right","pair","media/stimuli/animate_009_right.png","animate","right","pair","animacy_identity","","","",""
"","","","","","html-keyboard-response","83","282204","0.0-83.0","SS1678233193930","5b05e0d131cebe000177c38e","6406d7f26dd5b7fc1e3377bd","6407ce622dcdfc0d5fdf5de6","1280","567","","1593","","j","","","<img src=""media/stimuli/animate_006_left.png"" class=""coveredImage test"" style = ""width:100px; height:100px; position:fixed; top:10%;    transform: translate(-50%, -50%);left:44.5%""></img><img src=""media/stimuli/animate_006_left.png"" class=""coveredImage test"" style = ""width:100px; height:100px; position:fixed; top:10%;    transform: translate(-50%, -50%);left:51.5%""></img><img src=""media/stimuli/inanimate_009_left.png"" class=""coveredImage test"" style = ""width:100px; height:100px;position:fixed; top:25%;        transform: translate(-50%, -50%);left:34.5%""></img><img src=""media/stimuli/inanimate_009_left.png"" class=""coveredImage test"" style = ""width:100px; height:100px;position:fixed; top:25%;        transform: translate(-50%, -50%);left:41.5%""></img><img src=""media/stimuli/animate_006_left.png"" class=""coveredImage test"" style = ""width:100px; height:100px;position:fixed; top:25%;        transform: translate(-50%, -50%);left:58%""></img><img src=""media/f.png""style = ""width:30px x; height:30px;position:fixed; top:43%;    transform: translate(-50%, -50%);left:40%""></img><img src=""media/j.png""style = ""width:30px; height:30px;position:fixed; top:43%;    transform: translate(-50%, -50%);left:60%""></img>","media/stimuli/animate_006_left.png","animate","left","pair","media/stimuli/inanimate_009_left.png","inanimate","left","pair","media/stimuli/animate_006_left.png","animate","left","single","animacy_number","","","",""
"","","","","","html-keyboard-response","84","285180","0.0-84.0","SS1678233193930","5b05e0d131cebe000177c38e","6406d7f26dd5b7fc1e3377bd","6407ce622dcdfc0d5fdf5de6","1280","567","","2974","","j","","","<img src=""media/stimuli/inanimate_012_left.png"" class=""coveredImage test"" style = ""width:100px; height:100px; position:fixed; top:10%;    transform: translate(-50%, -50%);left:44.5%""></img><img src=""media/stimuli/inanimate_012_left.png"" class=""coveredImage test"" style = ""width:100px; height:100px; position:fixed; top:10%;    transform: translate(-50%, -50%);left:51.5%""></img><img src=""media/stimuli/inanimate_012_right.png"" class=""coveredImage test"" style = ""width:100px; height:100px;position:fixed; top:25%;        transform: translate(-50%, -50%);left:34.5%""></img><img src=""media/stimuli/inanimate_012_right.png"" class=""coveredImage test"" style = ""width:100px; height:100px;position:fixed; top:25%;        transform: translate(-50%, -50%);left:41.5%""></img><img src=""media/stimuli/inanimate_012_left.png"" class=""coveredImage test"" style = ""width:100px; height:100px;position:fixed; top:25%;        transform: translate(-50%, -50%);left:58%""></img><img src=""media/f.png""style = ""width:30px x; height:30px;position:fixed; top:43%;    transform: translate(-50%, -50%);left:40%""></img><img src=""media/j.png""style = ""width:30px; height:30px;position:fixed; top:43%;    transform: translate(-50%, -50%);left:60%""></img>","media/stimuli/inanimate_012_left.png","inanimate","left","pair","media/stimuli/inanimate_012_right.png","inanimate","right","pair","media/stimuli/inanimate_012_left.png","inanimate","left","single","pose_number","","","",""
"","","","","","html-keyboard-response","85","286764","0.0-85.0","SS1678233193930","5b05e0d131cebe000177c38e","6406d7f26dd5b7fc1e3377bd","6407ce622dcdfc0d5fdf5de6","1280","567","","1583","","j","","","","","","","","","","","","","","","","","","","",""
