"success","timeout","failed_images","failed_audio","failed_video","trial_type","trial_index","time_elapsed","internal_node_id","subject","prolific_id","study","session","window_width","window_height","view_history","rt","stimulus_type","response","question_order","rating_type","stimulus","target","target_animacy","target_pose","target_number","left","left_animacy","left_pose","left_number","right","right_animacy","right_pose","right_number","comparison_type","rating_stimulus","rating_animacy","rating_number","rating_pose"
"true","false","[]","[]","[]","preload","0","162862","0.0-0.0","SS1678233226043","626af8ea8c93e250e03bfaa6","6406d7f26dd5b7fc1e3377bd","6407ce7ac431a66bd9931123","2006","1052","","","","","","","","","","","","","","","","","","","","","","","",""
"","","","","","instructions","1","302190","0.0-1.0","SS1678233226043","626af8ea8c93e250e03bfaa6","6406d7f26dd5b7fc1e3377bd","6407ce7ac431a66bd9931123","2006","1052","[{""page_index"":0,""viewing_time"":139326}]","139326","","","","","","","","","","","","","","","","","","","","","",""
"","","","","","instructions","2","333927","0.0-2.0","SS1678233226043","626af8ea8c93e250e03bfaa6","6406d7f26dd5b7fc1e3377bd","6407ce7ac431a66bd9931123","2006","1052","[{""page_index"":0,""viewing_time"":29734}]","29735","instructions","","","","","","","","","","","","","","","","","","","","",""
"","","","","","instructions","3","342307","0.0-3.0","SS1678233226043","626af8ea8c93e250e03bfaa6","6406d7f26dd5b7fc1e3377bd","6407ce7ac431a66bd9931123","2006","1052","[{""page_index"":0,""viewing_time"":8379}]","8379","instructions","","","","","","","","","","","","","","","","","","","","",""
"","","","","","survey-likert","4","356464","0.0-4.0","SS1678233226043","626af8ea8c93e250e03bfaa6","6406d7f26dd5b7fc1e3377bd","6407ce7ac431a66bd9931123","2006","1052","","14153","","{""Q0"":3}","[0]","anchoring","","","","","","","","","","","","","","","","","",""
"","","","","","survey-likert","5","374067","0.0-5.0","SS1678233226043","626af8ea8c93e250e03bfaa6","6406d7f26dd5b7fc1e3377bd","6407ce7ac431a66bd9931123","2006","1052","","17599","","{""Q0"":3}","[0]","anchoring","","","","","","","","","","","","","","","","","",""
"","","","","","instructions","6","376577","0.0-6.0","SS1678233226043","626af8ea8c93e250e03bfaa6","6406d7f26dd5b7fc1e3377bd","6407ce7ac431a66bd9931123","2006","1052","[{""page_index"":0,""viewing_time"":2505}]","2506","instructions","","","","","","","","","","","","","","","","","","","","",""
"true","","","","","fullscreen","7","379728","0.0-7.0","SS1678233226043","626af8ea8c93e250e03bfaa6","6406d7f26dd5b7fc1e3377bd","6407ce7ac431a66bd9931123","2006","1052","","","","","","","","","","","","","","","","","","","","","","","",""
"","","","","","html-keyboard-response","8","401223","0.0-8.0","SS1678233226043","626af8ea8c93e250e03bfaa6","6406d7f26dd5b7fc1e3377bd","6407ce7ac431a66bd9931123","2006","1052","","21492","","f","","","<img src=""media/stimuli/animate_008_left.png"" class=""coveredImage test"" style = ""width:100px; height:100px; position:fixed; top:10%;    transform: translate(-50%, -50%);left:44.5%""></img><img src=""media/stimuli/animate_008_left.png"" class=""coveredImage test"" style = ""width:100px; height:100px; position:fixed; top:10%;    transform: translate(-50%, -50%);left:51.5%""></img><img src=""media/stimuli/animate_008_left.png"" class=""coveredImage test"" style = ""width:100px; height:100px;position:fixed; top:25%;        transform: translate(-50%, -50%);left:38%""></img><img src=""media/stimuli/inanimate_002_right.png"" class=""coveredImage test"" style = ""width:100px; height:100px;position:fixed; top:25%;        transform: translate(-50%, -50%);left:58%""></img><img src=""media/f.png""style = ""width:30px x; height:30px;position:fixed; top:43%;    transform: translate(-50%, -50%);left:40%""></img><img src=""media/j.png""style = ""width:30px; height:30px;position:fixed; top:43%;    transform: translate(-50%, -50%);left:60%""></img>","media/stimuli/animate_008_left.png","animate","left","pair","media/stimuli/animate_008_left.png","animate","left","single","media/stimuli/inanimate_002_right.png","inanimate","right","single","pose_animacy","","","",""
"","","","","","html-keyboard-response","9","402369","0.0-9.0","SS1678233226043","626af8ea8c93e250e03bfaa6","6406d7f26dd5b7fc1e3377bd","6407ce7ac431a66bd9931123","2006","1052","","1142","","f","","","<img src=""media/stimuli/inanimate_005_right.png"" class=""coveredImage test"" style = ""width:100px; height:100px; position:fixed; top:10%;    transform: translate(-50%, -50%);left:48%""></img><img src=""media/stimuli/inanimate_005_right.png"" class=""coveredImage test"" style = ""width:100px; height:100px;position:fixed; top:25%;        transform: translate(-50%, -50%);left:38%""></img><img src=""media/stimuli/animate_002_left.png"" class=""coveredImage test"" style = ""width:100px; height:100px;position:fixed; top:25%;        transform: translate(-50%, -50%);left:58%""></img><img src=""media/f.png""style = ""width:30px x; height:30px;position:fixed; top:43%;    transform: translate(-50%, -50%);left:40%""></img><img src=""media/j.png""style = ""width:30px; height:30px;position:fixed; top:43%;    transform: translate(-50%, -50%);left:60%""></img>","media/stimuli/inanimate_005_right.png","inanimate","right","single","media/stimuli/inanimate_005_right.png","inanimate","right","single","media/stimuli/animate_002_left.png","animate","left","single","pose_animacy","","","",""
"","","","","","html-keyboard-response","10","405203","0.0-10.0","SS1678233226043","626af8ea8c93e250e03bfaa6","6406d7f26dd5b7fc1e3377bd","6407ce7ac431a66bd9931123","2006","1052","","2831","","j","","","<img src=""media/stimuli/animate_002_right.png"" class=""coveredImage test"" style = ""width:100px; height:100px; position:fixed; top:10%;    transform: translate(-50%, -50%);left:44.5%""></img><img src=""media/stimuli/animate_002_right.png"" class=""coveredImage test"" style = ""width:100px; height:100px; position:fixed; top:10%;    transform: translate(-50%, -50%);left:51.5%""></img><img src=""media/stimuli/inanimate_010_right.png"" class=""coveredImage test"" style = ""width:100px; height:100px;position:fixed; top:25%;        transform: translate(-50%, -50%);left:34.5%""></img><img src=""media/stimuli/inanimate_010_right.png"" class=""coveredImage test"" style = ""width:100px; height:100px;position:fixed; top:25%;        transform: translate(-50%, -50%);left:41.5%""></img><img src=""media/stimuli/animate_002_right.png"" class=""coveredImage test"" style = ""width:100px; height:100px;position:fixed; top:25%;        transform: translate(-50%, -50%);left:58%""></img><img src=""media/f.png""style = ""width:30px x; height:30px;position:fixed; top:43%;    transform: translate(-50%, -50%);left:40%""></img><img src=""media/j.png""style = ""width:30px; height:30px;position:fixed; top:43%;    transform: translate(-50%, -50%);left:60%""></img>","media/stimuli/animate_002_right.png","animate","right","pair","media/stimuli/inanimate_010_right.png","inanimate","right","pair","media/stimuli/animate_002_right.png","animate","right","single","animacy_number","","","",""
"","","","","","html-keyboard-response","11","406644","0.0-11.0","SS1678233226043","626af8ea8c93e250e03bfaa6","6406d7f26dd5b7fc1e3377bd","6407ce7ac431a66bd9931123","2006","1052","","1437","","j","","","<img src=""media/stimuli/animate_006_left.png"" class=""coveredImage test"" style = ""width:100px; height:100px; position:fixed; top:10%;    transform: translate(-50%, -50%);left:48%""></img><img src=""media/stimuli/animate_010_left.png"" class=""coveredImage test"" style = ""width:100px; height:100px;position:fixed; top:25%;        transform: translate(-50%, -50%);left:38%""></img><img src=""media/stimuli/animate_006_right.png"" class=""coveredImage test"" style = ""width:100px; height:100px;position:fixed; top:25%;        transform: translate(-50%, -50%);left:58%""></img><img src=""media/f.png""style = ""width:30px x; height:30px;position:fixed; top:43%;    transform: translate(-50%, -50%);left:40%""></img><img src=""media/j.png""style = ""width:30px; height:30px;position:fixed; top:43%;    transform: translate(-50%, -50%);left:60%""></img>","media/stimuli/animate_006_left.png","animate","left","single","media/stimuli/animate_010_left.png","animate","left","single","media/stimuli/animate_006_right.png","animate","right","single","identity_pose","","","",""
"","","","","","html-keyboard-response","12","407791","0.0-12.0","SS1678233226043","626af8ea8c93e250e03bfaa6","6406d7f26dd5b7fc1e3377bd","6407ce7ac431a66bd9931123","2006","1052","","1145","","j","","","<img src=""media/stimuli/animate_010_right.png"" class=""coveredImage test"" style = ""width:100px; height:100px; position:fixed; top:10%;    transform: translate(-50%, -50%);left:48%""></img><img src=""media/stimuli/inanimate_010_left.png"" class=""coveredImage test"" style = ""width:100px; height:100px;position:fixed; top:25%;        transform: translate(-50%, -50%);left:38%""></img><img src=""media/stimuli/animate_010_right.png"" class=""coveredImage test"" style = ""width:100px; height:100px;position:fixed; top:25%;        transform: translate(-50%, -50%);left:58%""></img><img src=""media/f.png""style = ""width:30px x; height:30px;position:fixed; top:43%;    transform: translate(-50%, -50%);left:40%""></img><img src=""media/j.png""style = ""width:30px; height:30px;position:fixed; top:43%;    transform: translate(-50%, -50%);left:60%""></img>","media/stimuli/animate_010_right.png","animate","right","single","media/stimuli/inanimate_010_left.png","inanimate","left","single","media/stimuli/animate_010_right.png","animate","right","single","animacy_pose","","","",""
"","","","","","html-keyboard-response","13","408894","0.0-13.0","SS1678233226043","626af8ea8c93e250e03bfaa6","6406d7f26dd5b7fc1e3377bd","6407ce7ac431a66bd9931123","2006","1052","","1100","","j","","","<img src=""media/stimuli/animate_002_left.png"" class=""coveredImage test"" style = ""width:100px; height:100px; position:fixed; top:10%;    transform: translate(-50%, -50%);left:48%""></img><img src=""media/stimuli/animate_009_left.png"" class=""coveredImage test"" style = ""width:100px; height:100px;position:fixed; top:25%;        transform: translate(-50%, -50%);left:38%""></img><img src=""media/stimuli/animate_002_right.png"" class=""coveredImage test"" style = ""width:100px; height:100px;position:fixed; top:25%;        transform: translate(-50%, -50%);left:58%""></img><img src=""media/f.png""style = ""width:30px x; height:30px;position:fixed; top:43%;    transform: translate(-50%, -50%);left:40%""></img><img src=""media/j.png""style = ""width:30px; height:30px;position:fixed; top:43%;    transform: translate(-50%, -50%);left:60%""></img>","media/stimuli/animate_002_left.png","animate","left","single","media/stimuli/animate_009_left.png","animate","left","single","media/stimuli/animate_002_right.png","animate","right","single","identity_pose","","","",""
"","","","","","html-keyboard-response","14","410335","0.0-14.0","SS1678233226043","626af8ea8c93e250e03bfaa6","6406d7f26dd5b7fc1e3377bd","6407ce7ac431a66bd9931123","2006","1052","","1439","","f","","","<img src=""media/stimuli/animate_007_right.png"" class=""coveredImage test"" style = ""width:100px; height:100px; position:fixed; top:10%;    transform: translate(-50%, -50%);left:44.5%""></img><img src=""media/stimuli/animate_007_right.png"" class=""coveredImage test"" style = ""width:100px; height:100px; position:fixed; top:10%;    transform: translate(-50%, -50%);left:51.5%""></img><img src=""media/stimuli/animate_007_left.png"" class=""coveredImage test"" style = ""width:100px; height:100px;position:fixed; top:25%;        transform: translate(-50%, -50%);left:34.5%""></img><img src=""media/stimuli/animate_007_left.png"" class=""coveredImage test"" style = ""width:100px; height:100px;position:fixed; top:25%;        transform: translate(-50%, -50%);left:41.5%""></img><img src=""media/stimuli/animate_012_right.png"" class=""coveredImage test"" style = ""width:100px; height:100px;position:fixed; top:25%;        transform: translate(-50%, -50%);left:54.5%""></img><img src=""media/stimuli/animate_012_right.png"" class=""coveredImage test"" style = ""width:100px; height:100px;position:fixed; top:25%;        transform: translate(-50%, -50%);left:61.5%""></img><img src=""media/f.png""style = ""width:30px x; height:30px;position:fixed; top:43%;    transform: translate(-50%, -50%);left:40%""></img><img src=""media/j.png""style = ""width:30px; height:30px;position:fixed; top:43%;    transform: translate(-50%, -50%);left:60%""></img>","media/stimuli/animate_007_right.png","animate","right","pair","media/stimuli/animate_007_left.png","animate","left","pair","media/stimuli/animate_012_right.png","animate","right","pair","pose_identity","","","",""
"","","","","","html-keyboard-response","15","413485","0.0-15.0","SS1678233226043","626af8ea8c93e250e03bfaa6","6406d7f26dd5b7fc1e3377bd","6407ce7ac431a66bd9931123","2006","1052","","3147","","f","","","<img src=""media/stimuli/inanimate_012_right.png"" class=""coveredImage test"" style = ""width:100px; height:100px; position:fixed; top:10%;    transform: translate(-50%, -50%);left:48%""></img><img src=""media/stimuli/inanimate_012_left.png"" class=""coveredImage test"" style = ""width:100px; height:100px;position:fixed; top:25%;        transform: translate(-50%, -50%);left:38%""></img><img src=""media/stimuli/inanimate_012_right.png"" class=""coveredImage test"" style = ""width:100px; height:100px;position:fixed; top:25%;        transform: translate(-50%, -50%);left:54.5%""></img><img src=""media/stimuli/inanimate_012_right.png"" class=""coveredImage test"" style = ""width:100px; height:100px;position:fixed; top:25%;        transform: translate(-50%, -50%);left:61.5%""></img><img src=""media/f.png""style = ""width:30px x; height:30px;position:fixed; top:43%;    transform: translate(-50%, -50%);left:40%""></img><img src=""media/j.png""style = ""width:30px; height:30px;position:fixed; top:43%;    transform: translate(-50%, -50%);left:60%""></img>","media/stimuli/inanimate_012_right.png","inanimate","right","single","media/stimuli/inanimate_012_left.png","inanimate","left","single","media/stimuli/inanimate_012_right.png","inanimate","right","pair","pose_number","","","",""
"","","","","","html-keyboard-response","16","418141","0.0-16.0","SS1678233226043","626af8ea8c93e250e03bfaa6","6406d7f26dd5b7fc1e3377bd","6407ce7ac431a66bd9931123","2006","1052","","4653","","j","","","<img src=""media/stimuli/inanimate_001_right.png"" class=""coveredImage test"" style = ""width:100px; height:100px; position:fixed; top:10%;    transform: translate(-50%, -50%);left:48%""></img><img src=""media/stimuli/inanimate_008_right.png"" class=""coveredImage test"" style = ""width:100px; height:100px;position:fixed; top:25%;        transform: translate(-50%, -50%);left:38%""></img><img src=""media/stimuli/inanimate_001_right.png"" class=""coveredImage test"" style = ""width:100px; height:100px;position:fixed; top:25%;        transform: translate(-50%, -50%);left:54.5%""></img><img src=""media/stimuli/inanimate_001_right.png"" class=""coveredImage test"" style = ""width:100px; height:100px;position:fixed; top:25%;        transform: translate(-50%, -50%);left:61.5%""></img><img src=""media/f.png""style = ""width:30px x; height:30px;position:fixed; top:43%;    transform: translate(-50%, -50%);left:40%""></img><img src=""media/j.png""style = ""width:30px; height:30px;position:fixed; top:43%;    transform: translate(-50%, -50%);left:60%""></img>","media/stimuli/inanimate_001_right.png","inanimate","right","single","media/stimuli/inanimate_008_right.png","inanimate","right","single","media/stimuli/inanimate_001_right.png","inanimate","right","pair","identity_number","","","",""
"","","","","","html-keyboard-response","17","419919","0.0-17.0","SS1678233226043","626af8ea8c93e250e03bfaa6","6406d7f26dd5b7fc1e3377bd","6407ce7ac431a66bd9931123","2006","1052","","1773","","j","","","<img src=""media/stimuli/inanimate_006_right.png"" class=""coveredImage test"" style = ""width:100px; height:100px; position:fixed; top:10%;    transform: translate(-50%, -50%);left:48%""></img><img src=""media/stimuli/inanimate_007_right.png"" class=""coveredImage test"" style = ""width:100px; height:100px;position:fixed; top:25%;        transform: translate(-50%, -50%);left:38%""></img><img src=""media/stimuli/inanimate_006_left.png"" class=""coveredImage test"" style = ""width:100px; height:100px;position:fixed; top:25%;        transform: translate(-50%, -50%);left:58%""></img><img src=""media/f.png""style = ""width:30px x; height:30px;position:fixed; top:43%;    transform: translate(-50%, -50%);left:40%""></img><img src=""media/j.png""style = ""width:30px; height:30px;position:fixed; top:43%;    transform: translate(-50%, -50%);left:60%""></img>","media/stimuli/inanimate_006_right.png","inanimate","right","single","media/stimuli/inanimate_007_right.png","inanimate","right","single","media/stimuli/inanimate_006_left.png","inanimate","left","single","identity_pose","","","",""
"","","","","","html-keyboard-response","18","424195","0.0-18.0","SS1678233226043","626af8ea8c93e250e03bfaa6","6406d7f26dd5b7fc1e3377bd","6407ce7ac431a66bd9931123","2006","1052","","4275","","f","","","<img src=""media/stimuli/inanimate_008_right.png"" class=""coveredImage test"" style = ""width:100px; height:100px; position:fixed; top:10%;    transform: translate(-50%, -50%);left:44.5%""></img><img src=""media/stimuli/inanimate_008_right.png"" class=""coveredImage test"" style = ""width:100px; height:100px; position:fixed; top:10%;    transform: translate(-50%, -50%);left:51.5%""></img><img src=""media/stimuli/inanimate_008_left.png"" class=""coveredImage test"" style = ""width:100px; height:100px;position:fixed; top:25%;        transform: translate(-50%, -50%);left:34.5%""></img><img src=""media/stimuli/inanimate_008_left.png"" class=""coveredImage test"" style = ""width:100px; height:100px;position:fixed; top:25%;        transform: translate(-50%, -50%);left:41.5%""></img><img src=""media/stimuli/inanimate_008_right.png"" class=""coveredImage test"" style = ""width:100px; height:100px;position:fixed; top:25%;        transform: translate(-50%, -50%);left:58%""></img><img src=""media/f.png""style = ""width:30px x; height:30px;position:fixed; top:43%;    transform: translate(-50%, -50%);left:40%""></img><img src=""media/j.png""style = ""width:30px; height:30px;position:fixed; top:43%;    transform: translate(-50%, -50%);left:60%""></img>","media/stimuli/inanimate_008_right.png","inanimate","right","pair","media/stimuli/inanimate_008_left.png","inanimate","left","pair","media/stimuli/inanimate_008_right.png","inanimate","right","single","pose_number","","","",""
"","","","","","html-keyboard-response","19","428897","0.0-19.0","SS1678233226043","626af8ea8c93e250e03bfaa6","6406d7f26dd5b7fc1e3377bd","6407ce7ac431a66bd9931123","2006","1052","","4698","","f","","","<img src=""media/stimuli/animate_003_left.png"" class=""coveredImage test"" style = ""width:100px; height:100px; position:fixed; top:10%;    transform: translate(-50%, -50%);left:44.5%""></img><img src=""media/stimuli/animate_003_left.png"" class=""coveredImage test"" style = ""width:100px; height:100px; position:fixed; top:10%;    transform: translate(-50%, -50%);left:51.5%""></img><img src=""media/stimuli/animate_003_right.png"" class=""coveredImage test"" style = ""width:100px; height:100px;position:fixed; top:25%;        transform: translate(-50%, -50%);left:34.5%""></img><img src=""media/stimuli/animate_003_right.png"" class=""coveredImage test"" style = ""width:100px; height:100px;position:fixed; top:25%;        transform: translate(-50%, -50%);left:41.5%""></img><img src=""media/stimuli/animate_008_left.png"" class=""coveredImage test"" style = ""width:100px; height:100px;position:fixed; top:25%;        transform: translate(-50%, -50%);left:54.5%""></img><img src=""media/stimuli/animate_008_left.png"" class=""coveredImage test"" style = ""width:100px; height:100px;position:fixed; top:25%;        transform: translate(-50%, -50%);left:61.5%""></img><img src=""media/f.png""style = ""width:30px x; height:30px;position:fixed; top:43%;    transform: translate(-50%, -50%);left:40%""></img><img src=""media/j.png""style = ""width:30px; height:30px;position:fixed; top:43%;    transform: translate(-50%, -50%);left:60%""></img>","media/stimuli/animate_003_left.png","animate","left","pair","media/stimuli/animate_003_right.png","animate","right","pair","media/stimuli/animate_008_left.png","animate","left","pair","pose_identity","","","",""
"","","","","","html-keyboard-response","20","431619","0.0-20.0","SS1678233226043","626af8ea8c93e250e03bfaa6","6406d7f26dd5b7fc1e3377bd","6407ce7ac431a66bd9931123","2006","1052","","2720","","j","","","","","","","","","","","","","","","","","","","",""
"","","","","","survey-likert","21","436757","0.0-21.0","SS1678233226043","626af8ea8c93e250e03bfaa6","6406d7f26dd5b7fc1e3377bd","6407ce7ac431a66bd9931123","2006","1052","","5132","","{""Q0"":3}","[0]","complexity","","","","","","","","","","","","","","","media/stimuli/inanimate_002_left.png","inanimate","single","left"
"","","","","","survey-likert","22","441685","0.0-22.0","SS1678233226043","626af8ea8c93e250e03bfaa6","6406d7f26dd5b7fc1e3377bd","6407ce7ac431a66bd9931123","2006","1052","","4922","","{""Q0"":3}","[0]","complexity","","","","","","","","","","","","","","","media/stimuli/inanimate_005_left.png","inanimate","pair","left"
"","","","","","survey-likert","23","444788","0.0-23.0","SS1678233226043","626af8ea8c93e250e03bfaa6","6406d7f26dd5b7fc1e3377bd","6407ce7ac431a66bd9931123","2006","1052","","3097","","{""Q0"":3}","[0]","complexity","","","","","","","","","","","","","","","media/stimuli/inanimate_006_right.png","inanimate","pair","right"
"","","","","","survey-likert","24","449448","0.0-24.0","SS1678233226043","626af8ea8c93e250e03bfaa6","6406d7f26dd5b7fc1e3377bd","6407ce7ac431a66bd9931123","2006","1052","","4654","","{""Q0"":1}","[0]","complexity","","","","","","","","","","","","","","","media/stimuli/animate_007_left.png","animate","single","left"
"","","","","","survey-likert","25","452627","0.0-25.0","SS1678233226043","626af8ea8c93e250e03bfaa6","6406d7f26dd5b7fc1e3377bd","6407ce7ac431a66bd9931123","2006","1052","","3172","","{""Q0"":1}","[0]","complexity","","","","","","","","","","","","","","","media/stimuli/inanimate_008_left.png","inanimate","single","left"
"","","","","","survey-likert","26","455670","0.0-26.0","SS1678233226043","626af8ea8c93e250e03bfaa6","6406d7f26dd5b7fc1e3377bd","6407ce7ac431a66bd9931123","2006","1052","","3036","","{""Q0"":3}","[0]","complexity","","","","","","","","","","","","","","","media/stimuli/animate_004_left.png","animate","pair","left"
"","","","","","survey-likert","27","458968","0.0-27.0","SS1678233226043","626af8ea8c93e250e03bfaa6","6406d7f26dd5b7fc1e3377bd","6407ce7ac431a66bd9931123","2006","1052","","3291","","{""Q0"":3}","[0]","complexity","","","","","","","","","","","","","","","media/stimuli/inanimate_003_left.png","inanimate","pair","left"
"","","","","","survey-likert","28","462280","0.0-28.0","SS1678233226043","626af8ea8c93e250e03bfaa6","6406d7f26dd5b7fc1e3377bd","6407ce7ac431a66bd9931123","2006","1052","","3305","","{""Q0"":3}","[0]","complexity","","","","","","","","","","","","","","","media/stimuli/animate_010_right.png","animate","pair","right"
"","","","","","survey-likert","29","465062","0.0-29.0","SS1678233226043","626af8ea8c93e250e03bfaa6","6406d7f26dd5b7fc1e3377bd","6407ce7ac431a66bd9931123","2006","1052","","2776","","{""Q0"":1}","[0]","complexity","","","","","","","","","","","","","","","media/stimuli/animate_009_right.png","animate","single","right"
"","","","","","survey-likert","30","469470","0.0-30.0","SS1678233226043","626af8ea8c93e250e03bfaa6","6406d7f26dd5b7fc1e3377bd","6407ce7ac431a66bd9931123","2006","1052","","4401","","{""Q0"":2}","[0]","complexity","","","","","","","","","","","","","","","media/stimuli/animate_001_left.png","animate","single","left"
"","","","","","survey-likert","31","476239","0.0-31.0","SS1678233226043","626af8ea8c93e250e03bfaa6","6406d7f26dd5b7fc1e3377bd","6407ce7ac431a66bd9931123","2006","1052","","6763","","{""Q0"":4}","[0]","complexity","","","","","","","","","","","","","","","media/stimuli/animate_012_right.png","animate","pair","right"
"","","","","","survey-likert","32","478570","0.0-32.0","SS1678233226043","626af8ea8c93e250e03bfaa6","6406d7f26dd5b7fc1e3377bd","6407ce7ac431a66bd9931123","2006","1052","","2323","","{""Q0"":3}","[0]","complexity","","","","","","","","","","","","","","","media/stimuli/inanimate_001_left.png","inanimate","pair","left"
"","","","","","html-keyboard-response","33","480849","0.0-33.0","SS1678233226043","626af8ea8c93e250e03bfaa6","6406d7f26dd5b7fc1e3377bd","6407ce7ac431a66bd9931123","2006","1052","","2273","","f","","","","","","","","","","","","","","","","","","","",""
"","","","","","survey-likert","34","490099","0.0-34.0","SS1678233226043","626af8ea8c93e250e03bfaa6","6406d7f26dd5b7fc1e3377bd","6407ce7ac431a66bd9931123","2006","1052","","9247","","{""Q0"":2}","[0]","complexity","","","","","","","","","","","","","","","media/stimuli/animate_005_right.png","animate","single","right"
"","","","","","survey-likert","35","493461","0.0-35.0","SS1678233226043","626af8ea8c93e250e03bfaa6","6406d7f26dd5b7fc1e3377bd","6407ce7ac431a66bd9931123","2006","1052","","3354","","{""Q0"":3}","[0]","complexity","","","","","","","","","","","","","","","media/stimuli/inanimate_002_right.png","inanimate","pair","right"
"","","","","","survey-likert","36","499391","0.0-36.0","SS1678233226043","626af8ea8c93e250e03bfaa6","6406d7f26dd5b7fc1e3377bd","6407ce7ac431a66bd9931123","2006","1052","","5923","","{""Q0"":4}","[0]","complexity","","","","","","","","","","","","","","","media/stimuli/animate_002_right.png","animate","pair","right"
"","","","","","survey-likert","37","502341","0.0-37.0","SS1678233226043","626af8ea8c93e250e03bfaa6","6406d7f26dd5b7fc1e3377bd","6407ce7ac431a66bd9931123","2006","1052","","2944","","{""Q0"":4}","[0]","complexity","","","","","","","","","","","","","","","media/stimuli/animate_011_right.png","animate","pair","right"
"","","","","","survey-likert","38","504517","0.0-38.0","SS1678233226043","626af8ea8c93e250e03bfaa6","6406d7f26dd5b7fc1e3377bd","6407ce7ac431a66bd9931123","2006","1052","","2169","","{""Q0"":4}","[0]","complexity","","","","","","","","","","","","","","","media/stimuli/animate_003_left.png","animate","pair","left"
"","","","","","survey-likert","39","507066","0.0-39.0","SS1678233226043","626af8ea8c93e250e03bfaa6","6406d7f26dd5b7fc1e3377bd","6407ce7ac431a66bd9931123","2006","1052","","2542","","{""Q0"":3}","[0]","complexity","","","","","","","","","","","","","","","media/stimuli/inanimate_010_right.png","inanimate","pair","right"
"","","","","","survey-likert","40","509866","0.0-40.0","SS1678233226043","626af8ea8c93e250e03bfaa6","6406d7f26dd5b7fc1e3377bd","6407ce7ac431a66bd9931123","2006","1052","","2793","","{""Q0"":2}","[0]","complexity","","","","","","","","","","","","","","","media/stimuli/animate_005_left.png","animate","single","left"
"","","","","","survey-likert","41","512295","0.0-41.0","SS1678233226043","626af8ea8c93e250e03bfaa6","6406d7f26dd5b7fc1e3377bd","6407ce7ac431a66bd9931123","2006","1052","","2422","","{""Q0"":3}","[0]","complexity","","","","","","","","","","","","","","","media/stimuli/animate_002_left.png","animate","pair","left"
"","","","","","survey-likert","42","518432","0.0-42.0","SS1678233226043","626af8ea8c93e250e03bfaa6","6406d7f26dd5b7fc1e3377bd","6407ce7ac431a66bd9931123","2006","1052","","6131","","{""Q0"":4}","[0]","complexity","","","","","","","","","","","","","","","media/stimuli/animate_010_left.png","animate","pair","left"
"","","","","","survey-likert","43","521232","0.0-43.0","SS1678233226043","626af8ea8c93e250e03bfaa6","6406d7f26dd5b7fc1e3377bd","6407ce7ac431a66bd9931123","2006","1052","","2793","","{""Q0"":2}","[0]","complexity","","","","","","","","","","","","","","","media/stimuli/animate_012_right.png","animate","single","right"
"","","","","","survey-likert","44","523643","0.0-44.0","SS1678233226043","626af8ea8c93e250e03bfaa6","6406d7f26dd5b7fc1e3377bd","6407ce7ac431a66bd9931123","2006","1052","","2403","","{""Q0"":1}","[0]","complexity","","","","","","","","","","","","","","","media/stimuli/inanimate_012_right.png","inanimate","single","right"
"","","","","","survey-likert","45","527489","0.0-45.0","SS1678233226043","626af8ea8c93e250e03bfaa6","6406d7f26dd5b7fc1e3377bd","6407ce7ac431a66bd9931123","2006","1052","","3838","","{""Q0"":3}","[0]","complexity","","","","","","","","","","","","","","","media/stimuli/inanimate_012_right.png","inanimate","pair","right"
"","","","","","html-keyboard-response","46","529247","0.0-46.0","SS1678233226043","626af8ea8c93e250e03bfaa6","6406d7f26dd5b7fc1e3377bd","6407ce7ac431a66bd9931123","2006","1052","","1751",""," ","","","","","","","","","","","","","","","","","","","",""
"","","","","","html-keyboard-response","47","540678","0.0-47.0","SS1678233226043","626af8ea8c93e250e03bfaa6","6406d7f26dd5b7fc1e3377bd","6407ce7ac431a66bd9931123","2006","1052","","11426","","j","","","<img src=""media/stimuli/animate_007_left.png"" class=""coveredImage test"" style = ""width:100px; height:100px; position:fixed; top:10%;    transform: translate(-50%, -50%);left:48%""></img><img src=""media/stimuli/inanimate_008_left.png"" class=""coveredImage test"" style = ""width:100px; height:100px;position:fixed; top:25%;        transform: translate(-50%, -50%);left:38%""></img><img src=""media/stimuli/animate_008_left.png"" class=""coveredImage test"" style = ""width:100px; height:100px;position:fixed; top:25%;        transform: translate(-50%, -50%);left:58%""></img><img src=""media/f.png""style = ""width:30px x; height:30px;position:fixed; top:43%;    transform: translate(-50%, -50%);left:40%""></img><img src=""media/j.png""style = ""width:30px; height:30px;position:fixed; top:43%;    transform: translate(-50%, -50%);left:60%""></img>","media/stimuli/animate_007_left.png","animate","left","single","media/stimuli/inanimate_008_left.png","inanimate","left","single","media/stimuli/animate_008_left.png","animate","left","single","animacy_identity","","","",""
"","","","","","html-keyboard-response","48","542455","0.0-48.0","SS1678233226043","626af8ea8c93e250e03bfaa6","6406d7f26dd5b7fc1e3377bd","6407ce7ac431a66bd9931123","2006","1052","","1772","","j","","","<img src=""media/stimuli/animate_001_right.png"" class=""coveredImage test"" style = ""width:100px; height:100px; position:fixed; top:10%;    transform: translate(-50%, -50%);left:44.5%""></img><img src=""media/stimuli/animate_001_right.png"" class=""coveredImage test"" style = ""width:100px; height:100px; position:fixed; top:10%;    transform: translate(-50%, -50%);left:51.5%""></img><img src=""media/stimuli/animate_001_right.png"" class=""coveredImage test"" style = ""width:100px; height:100px;position:fixed; top:25%;        transform: translate(-50%, -50%);left:38%""></img><img src=""media/stimuli/animate_001_left.png"" class=""coveredImage test"" style = ""width:100px; height:100px;position:fixed; top:25%;        transform: translate(-50%, -50%);left:54.5%""></img><img src=""media/stimuli/animate_001_left.png"" class=""coveredImage test"" style = ""width:100px; height:100px;position:fixed; top:25%;        transform: translate(-50%, -50%);left:61.5%""></img><img src=""media/f.png""style = ""width:30px x; height:30px;position:fixed; top:43%;    transform: translate(-50%, -50%);left:40%""></img><img src=""media/j.png""style = ""width:30px; height:30px;position:fixed; top:43%;    transform: translate(-50%, -50%);left:60%""></img>","media/stimuli/animate_001_right.png","animate","right","pair","media/stimuli/animate_001_right.png","animate","right","single","media/stimuli/animate_001_left.png","animate","left","pair","number_pose","","","",""
"","","","","","html-keyboard-response","49","546122","0.0-49.0","SS1678233226043","626af8ea8c93e250e03bfaa6","6406d7f26dd5b7fc1e3377bd","6407ce7ac431a66bd9931123","2006","1052","","3660","","f","","","<img src=""media/stimuli/inanimate_011_left.png"" class=""coveredImage test"" style = ""width:100px; height:100px; position:fixed; top:10%;    transform: translate(-50%, -50%);left:48%""></img><img src=""media/stimuli/inanimate_005_left.png"" class=""coveredImage test"" style = ""width:100px; height:100px;position:fixed; top:25%;        transform: translate(-50%, -50%);left:38%""></img><img src=""media/stimuli/animate_003_left.png"" class=""coveredImage test"" style = ""width:100px; height:100px;position:fixed; top:25%;        transform: translate(-50%, -50%);left:58%""></img><img src=""media/f.png""style = ""width:30px x; height:30px;position:fixed; top:43%;    transform: translate(-50%, -50%);left:40%""></img><img src=""media/j.png""style = ""width:30px; height:30px;position:fixed; top:43%;    transform: translate(-50%, -50%);left:60%""></img>","media/stimuli/inanimate_011_left.png","inanimate","left","single","media/stimuli/inanimate_005_left.png","inanimate","left","single","media/stimuli/animate_003_left.png","animate","left","single","identity_animacy","","","",""
"","","","","","html-keyboard-response","50","552806","0.0-50.0","SS1678233226043","626af8ea8c93e250e03bfaa6","6406d7f26dd5b7fc1e3377bd","6407ce7ac431a66bd9931123","2006","1052","","6677","","j","","","<img src=""media/stimuli/animate_009_right.png"" class=""coveredImage test"" style = ""width:100px; height:100px; position:fixed; top:10%;    transform: translate(-50%, -50%);left:44.5%""></img><img src=""media/stimuli/animate_009_right.png"" class=""coveredImage test"" style = ""width:100px; height:100px; position:fixed; top:10%;    transform: translate(-50%, -50%);left:51.5%""></img><img src=""media/stimuli/inanimate_007_right.png"" class=""coveredImage test"" style = ""width:100px; height:100px;position:fixed; top:25%;        transform: translate(-50%, -50%);left:34.5%""></img><img src=""media/stimuli/inanimate_007_right.png"" class=""coveredImage test"" style = ""width:100px; height:100px;position:fixed; top:25%;        transform: translate(-50%, -50%);left:41.5%""></img><img src=""media/stimuli/animate_009_right.png"" class=""coveredImage test"" style = ""width:100px; height:100px;position:fixed; top:25%;        transform: translate(-50%, -50%);left:58%""></img><img src=""media/f.png""style = ""width:30px x; height:30px;position:fixed; top:43%;    transform: translate(-50%, -50%);left:40%""></img><img src=""media/j.png""style = ""width:30px; height:30px;position:fixed; top:43%;    transform: translate(-50%, -50%);left:60%""></img>","media/stimuli/animate_009_right.png","animate","right","pair","media/stimuli/inanimate_007_right.png","inanimate","right","pair","media/stimuli/animate_009_right.png","animate","right","single","animacy_number","","","",""
"","","","","","html-keyboard-response","51","556495","0.0-51.0","SS1678233226043","626af8ea8c93e250e03bfaa6","6406d7f26dd5b7fc1e3377bd","6407ce7ac431a66bd9931123","2006","1052","","3682","","f","","","<img src=""media/stimuli/inanimate_005_right.png"" class=""coveredImage test"" style = ""width:100px; height:100px; position:fixed; top:10%;    transform: translate(-50%, -50%);left:48%""></img><img src=""media/stimuli/inanimate_005_right.png"" class=""coveredImage test"" style = ""width:100px; height:100px;position:fixed; top:25%;        transform: translate(-50%, -50%);left:38%""></img><img src=""media/stimuli/inanimate_005_right.png"" class=""coveredImage test"" style = ""width:100px; height:100px;position:fixed; top:25%;        transform: translate(-50%, -50%);left:54.5%""></img><img src=""media/stimuli/inanimate_005_right.png"" class=""coveredImage test"" style = ""width:100px; height:100px;position:fixed; top:25%;        transform: translate(-50%, -50%);left:61.5%""></img><img src=""media/f.png""style = ""width:30px x; height:30px;position:fixed; top:43%;    transform: translate(-50%, -50%);left:40%""></img><img src=""media/j.png""style = ""width:30px; height:30px;position:fixed; top:43%;    transform: translate(-50%, -50%);left:60%""></img>","media/stimuli/inanimate_005_right.png","inanimate","right","single","media/stimuli/inanimate_005_right.png","inanimate","right","single","media/stimuli/inanimate_005_right.png","inanimate","right","pair","filler_number","","","",""
"","","","","","html-keyboard-response","52","559442","0.0-52.0","SS1678233226043","626af8ea8c93e250e03bfaa6","6406d7f26dd5b7fc1e3377bd","6407ce7ac431a66bd9931123","2006","1052","","2942","","f","","","<img src=""media/stimuli/animate_012_right.png"" class=""coveredImage test"" style = ""width:100px; height:100px; position:fixed; top:10%;    transform: translate(-50%, -50%);left:48%""></img><img src=""media/stimuli/animate_012_right.png"" class=""coveredImage test"" style = ""width:100px; height:100px;position:fixed; top:25%;        transform: translate(-50%, -50%);left:34.5%""></img><img src=""media/stimuli/animate_012_right.png"" class=""coveredImage test"" style = ""width:100px; height:100px;position:fixed; top:25%;        transform: translate(-50%, -50%);left:41.5%""></img><img src=""media/stimuli/inanimate_003_left.png"" class=""coveredImage test"" style = ""width:100px; height:100px;position:fixed; top:25%;        transform: translate(-50%, -50%);left:54.5%""></img><img src=""media/stimuli/inanimate_003_left.png"" class=""coveredImage test"" style = ""width:100px; height:100px;position:fixed; top:25%;        transform: translate(-50%, -50%);left:61.5%""></img><img src=""media/f.png""style = ""width:30px x; height:30px;position:fixed; top:43%;    transform: translate(-50%, -50%);left:40%""></img><img src=""media/j.png""style = ""width:30px; height:30px;position:fixed; top:43%;    transform: translate(-50%, -50%);left:60%""></img>","media/stimuli/animate_012_right.png","animate","right","single","media/stimuli/animate_012_right.png","animate","right","pair","media/stimuli/inanimate_003_left.png","inanimate","left","pair","pose_animacy","","","",""
"","","","","","html-keyboard-response","53","561242","0.0-53.0","SS1678233226043","626af8ea8c93e250e03bfaa6","6406d7f26dd5b7fc1e3377bd","6407ce7ac431a66bd9931123","2006","1052","","1794","","j","","","<img src=""media/stimuli/inanimate_011_left.png"" class=""coveredImage test"" style = ""width:100px; height:100px; position:fixed; top:10%;    transform: translate(-50%, -50%);left:48%""></img><img src=""media/stimuli/animate_010_left.png"" class=""coveredImage test"" style = ""width:100px; height:100px;position:fixed; top:25%;        transform: translate(-50%, -50%);left:38%""></img><img src=""media/stimuli/inanimate_004_left.png"" class=""coveredImage test"" style = ""width:100px; height:100px;position:fixed; top:25%;        transform: translate(-50%, -50%);left:58%""></img><img src=""media/f.png""style = ""width:30px x; height:30px;position:fixed; top:43%;    transform: translate(-50%, -50%);left:40%""></img><img src=""media/j.png""style = ""width:30px; height:30px;position:fixed; top:43%;    transform: translate(-50%, -50%);left:60%""></img>","media/stimuli/inanimate_011_left.png","inanimate","left","single","media/stimuli/animate_010_left.png","animate","left","single","media/stimuli/inanimate_004_left.png","inanimate","left","single","animacy_identity","","","",""
"","","","","","html-keyboard-response","54","562954","0.0-54.0","SS1678233226043","626af8ea8c93e250e03bfaa6","6406d7f26dd5b7fc1e3377bd","6407ce7ac431a66bd9931123","2006","1052","","1706","","f","","","<img src=""media/stimuli/animate_012_left.png"" class=""coveredImage test"" style = ""width:100px; height:100px; position:fixed; top:10%;    transform: translate(-50%, -50%);left:44.5%""></img><img src=""media/stimuli/animate_012_left.png"" class=""coveredImage test"" style = ""width:100px; height:100px; position:fixed; top:10%;    transform: translate(-50%, -50%);left:51.5%""></img><img src=""media/stimuli/animate_012_right.png"" class=""coveredImage test"" style = ""width:100px; height:100px;position:fixed; top:25%;        transform: translate(-50%, -50%);left:34.5%""></img><img src=""media/stimuli/animate_012_right.png"" class=""coveredImage test"" style = ""width:100px; height:100px;position:fixed; top:25%;        transform: translate(-50%, -50%);left:41.5%""></img><img src=""media/stimuli/animate_012_left.png"" class=""coveredImage test"" style = ""width:100px; height:100px;position:fixed; top:25%;        transform: translate(-50%, -50%);left:58%""></img><img src=""media/f.png""style = ""width:30px x; height:30px;position:fixed; top:43%;    transform: translate(-50%, -50%);left:40%""></img><img src=""media/j.png""style = ""width:30px; height:30px;position:fixed; top:43%;    transform: translate(-50%, -50%);left:60%""></img>","media/stimuli/animate_012_left.png","animate","left","pair","media/stimuli/animate_012_right.png","animate","right","pair","media/stimuli/animate_012_left.png","animate","left","single","pose_number","","","",""
"","","","","","html-keyboard-response","55","564798","0.0-55.0","SS1678233226043","626af8ea8c93e250e03bfaa6","6406d7f26dd5b7fc1e3377bd","6407ce7ac431a66bd9931123","2006","1052","","1838","","f","","","<img src=""media/stimuli/animate_003_right.png"" class=""coveredImage test"" style = ""width:100px; height:100px; position:fixed; top:10%;    transform: translate(-50%, -50%);left:44.5%""></img><img src=""media/stimuli/animate_003_right.png"" class=""coveredImage test"" style = ""width:100px; height:100px; position:fixed; top:10%;    transform: translate(-50%, -50%);left:51.5%""></img><img src=""media/stimuli/animate_003_right.png"" class=""coveredImage test"" style = ""width:100px; height:100px;position:fixed; top:25%;        transform: translate(-50%, -50%);left:38%""></img><img src=""media/stimuli/inanimate_005_right.png"" class=""coveredImage test"" style = ""width:100px; height:100px;position:fixed; top:25%;        transform: translate(-50%, -50%);left:54.5%""></img><img src=""media/stimuli/inanimate_005_right.png"" class=""coveredImage test"" style = ""width:100px; height:100px;position:fixed; top:25%;        transform: translate(-50%, -50%);left:61.5%""></img><img src=""media/f.png""style = ""width:30px x; height:30px;position:fixed; top:43%;    transform: translate(-50%, -50%);left:40%""></img><img src=""media/j.png""style = ""width:30px; height:30px;position:fixed; top:43%;    transform: translate(-50%, -50%);left:60%""></img>","media/stimuli/animate_003_right.png","animate","right","pair","media/stimuli/animate_003_right.png","animate","right","single","media/stimuli/inanimate_005_right.png","inanimate","right","pair","number_animacy","","","",""
"","","","","","html-keyboard-response","56","567880","0.0-56.0","SS1678233226043","626af8ea8c93e250e03bfaa6","6406d7f26dd5b7fc1e3377bd","6407ce7ac431a66bd9931123","2006","1052","","3077","","f","","","<img src=""media/stimuli/animate_003_right.png"" class=""coveredImage test"" style = ""width:100px; height:100px; position:fixed; top:10%;    transform: translate(-50%, -50%);left:44.5%""></img><img src=""media/stimuli/animate_003_right.png"" class=""coveredImage test"" style = ""width:100px; height:100px; position:fixed; top:10%;    transform: translate(-50%, -50%);left:51.5%""></img><img src=""media/stimuli/animate_003_right.png"" class=""coveredImage test"" style = ""width:100px; height:100px;position:fixed; top:25%;        transform: translate(-50%, -50%);left:38%""></img><img src=""media/stimuli/inanimate_003_right.png"" class=""coveredImage test"" style = ""width:100px; height:100px;position:fixed; top:25%;        transform: translate(-50%, -50%);left:54.5%""></img><img src=""media/stimuli/inanimate_003_right.png"" class=""coveredImage test"" style = ""width:100px; height:100px;position:fixed; top:25%;        transform: translate(-50%, -50%);left:61.5%""></img><img src=""media/f.png""style = ""width:30px x; height:30px;position:fixed; top:43%;    transform: translate(-50%, -50%);left:40%""></img><img src=""media/j.png""style = ""width:30px; height:30px;position:fixed; top:43%;    transform: translate(-50%, -50%);left:60%""></img>","media/stimuli/animate_003_right.png","animate","right","pair","media/stimuli/animate_003_right.png","animate","right","single","media/stimuli/inanimate_003_right.png","inanimate","right","pair","number_animacy","","","",""
"","","","","","html-keyboard-response","57","569905","0.0-57.0","SS1678233226043","626af8ea8c93e250e03bfaa6","6406d7f26dd5b7fc1e3377bd","6407ce7ac431a66bd9931123","2006","1052","","2018","","f","","","<img src=""media/stimuli/inanimate_001_right.png"" class=""coveredImage test"" style = ""width:100px; height:100px; position:fixed; top:10%;    transform: translate(-50%, -50%);left:44.5%""></img><img src=""media/stimuli/inanimate_001_right.png"" class=""coveredImage test"" style = ""width:100px; height:100px; position:fixed; top:10%;    transform: translate(-50%, -50%);left:51.5%""></img><img src=""media/stimuli/inanimate_001_right.png"" class=""coveredImage test"" style = ""width:100px; height:100px;position:fixed; top:25%;        transform: translate(-50%, -50%);left:38%""></img><img src=""media/stimuli/animate_005_right.png"" class=""coveredImage test"" style = ""width:100px; height:100px;position:fixed; top:25%;        transform: translate(-50%, -50%);left:54.5%""></img><img src=""media/stimuli/animate_005_right.png"" class=""coveredImage test"" style = ""width:100px; height:100px;position:fixed; top:25%;        transform: translate(-50%, -50%);left:61.5%""></img><img src=""media/f.png""style = ""width:30px x; height:30px;position:fixed; top:43%;    transform: translate(-50%, -50%);left:40%""></img><img src=""media/j.png""style = ""width:30px; height:30px;position:fixed; top:43%;    transform: translate(-50%, -50%);left:60%""></img>","media/stimuli/inanimate_001_right.png","inanimate","right","pair","media/stimuli/inanimate_001_right.png","inanimate","right","single","media/stimuli/animate_005_right.png","animate","right","pair","number_animacy","","","",""
"","","","","","html-keyboard-response","58","572335","0.0-58.0","SS1678233226043","626af8ea8c93e250e03bfaa6","6406d7f26dd5b7fc1e3377bd","6407ce7ac431a66bd9931123","2006","1052","","2424","","j","","","<img src=""media/stimuli/inanimate_011_right.png"" class=""coveredImage test"" style = ""width:100px; height:100px; position:fixed; top:10%;    transform: translate(-50%, -50%);left:44.5%""></img><img src=""media/stimuli/inanimate_011_right.png"" class=""coveredImage test"" style = ""width:100px; height:100px; position:fixed; top:10%;    transform: translate(-50%, -50%);left:51.5%""></img><img src=""media/stimuli/animate_004_right.png"" class=""coveredImage test"" style = ""width:100px; height:100px;position:fixed; top:25%;        transform: translate(-50%, -50%);left:34.5%""></img><img src=""media/stimuli/animate_004_right.png"" class=""coveredImage test"" style = ""width:100px; height:100px;position:fixed; top:25%;        transform: translate(-50%, -50%);left:41.5%""></img><img src=""media/stimuli/inanimate_011_left.png"" class=""coveredImage test"" style = ""width:100px; height:100px;position:fixed; top:25%;        transform: translate(-50%, -50%);left:54.5%""></img><img src=""media/stimuli/inanimate_011_left.png"" class=""coveredImage test"" style = ""width:100px; height:100px;position:fixed; top:25%;        transform: translate(-50%, -50%);left:61.5%""></img><img src=""media/f.png""style = ""width:30px x; height:30px;position:fixed; top:43%;    transform: translate(-50%, -50%);left:40%""></img><img src=""media/j.png""style = ""width:30px; height:30px;position:fixed; top:43%;    transform: translate(-50%, -50%);left:60%""></img>","media/stimuli/inanimate_011_right.png","inanimate","right","pair","media/stimuli/animate_004_right.png","animate","right","pair","media/stimuli/inanimate_011_left.png","inanimate","left","pair","animacy_pose","","","",""
"","","","","","html-keyboard-response","59","575059","0.0-59.0","SS1678233226043","626af8ea8c93e250e03bfaa6","6406d7f26dd5b7fc1e3377bd","6407ce7ac431a66bd9931123","2006","1052","","2717",""," ","","","","","","","","","","","","","","","","","","","",""
"","","","","","html-keyboard-response","60","577196","0.0-60.0","SS1678233226043","626af8ea8c93e250e03bfaa6","6406d7f26dd5b7fc1e3377bd","6407ce7ac431a66bd9931123","2006","1052","","2129","","j","","","<img src=""media/stimuli/inanimate_009_right.png"" class=""coveredImage test"" style = ""width:100px; height:100px; position:fixed; top:10%;    transform: translate(-50%, -50%);left:48%""></img><img src=""media/stimuli/animate_005_right.png"" class=""coveredImage test"" style = ""width:100px; height:100px;position:fixed; top:25%;        transform: translate(-50%, -50%);left:38%""></img><img src=""media/stimuli/inanimate_009_right.png"" class=""coveredImage test"" style = ""width:100px; height:100px;position:fixed; top:25%;        transform: translate(-50%, -50%);left:54.5%""></img><img src=""media/stimuli/inanimate_009_right.png"" class=""coveredImage test"" style = ""width:100px; height:100px;position:fixed; top:25%;        transform: translate(-50%, -50%);left:61.5%""></img><img src=""media/f.png""style = ""width:30px x; height:30px;position:fixed; top:43%;    transform: translate(-50%, -50%);left:40%""></img><img src=""media/j.png""style = ""width:30px; height:30px;position:fixed; top:43%;    transform: translate(-50%, -50%);left:60%""></img>","media/stimuli/inanimate_009_right.png","inanimate","right","single","media/stimuli/animate_005_right.png","animate","right","single","media/stimuli/inanimate_009_right.png","inanimate","right","pair","animacy_number","","","",""
"","","","","","html-keyboard-response","61","578748","0.0-61.0","SS1678233226043","626af8ea8c93e250e03bfaa6","6406d7f26dd5b7fc1e3377bd","6407ce7ac431a66bd9931123","2006","1052","","1545","","f","","","<img src=""media/stimuli/inanimate_005_left.png"" class=""coveredImage test"" style = ""width:100px; height:100px; position:fixed; top:10%;    transform: translate(-50%, -50%);left:48%""></img><img src=""media/stimuli/inanimate_005_left.png"" class=""coveredImage test"" style = ""width:100px; height:100px;position:fixed; top:25%;        transform: translate(-50%, -50%);left:34.5%""></img><img src=""media/stimuli/inanimate_005_left.png"" class=""coveredImage test"" style = ""width:100px; height:100px;position:fixed; top:25%;        transform: translate(-50%, -50%);left:41.5%""></img><img src=""media/stimuli/animate_001_left.png"" class=""coveredImage test"" style = ""width:100px; height:100px;position:fixed; top:25%;        transform: translate(-50%, -50%);left:58%""></img><img src=""media/f.png""style = ""width:30px x; height:30px;position:fixed; top:43%;    transform: translate(-50%, -50%);left:40%""></img><img src=""media/j.png""style = ""width:30px; height:30px;position:fixed; top:43%;    transform: translate(-50%, -50%);left:60%""></img>","media/stimuli/inanimate_005_left.png","inanimate","left","single","media/stimuli/inanimate_005_left.png","inanimate","left","pair","media/stimuli/animate_001_left.png","animate","left","single","number_animacy","","","",""
"","","","","","html-keyboard-response","62","581628","0.0-62.0","SS1678233226043","626af8ea8c93e250e03bfaa6","6406d7f26dd5b7fc1e3377bd","6407ce7ac431a66bd9931123","2006","1052","","2872","","j","","","<img src=""media/stimuli/animate_012_left.png"" class=""coveredImage test"" style = ""width:100px; height:100px; position:fixed; top:10%;    transform: translate(-50%, -50%);left:44.5%""></img><img src=""media/stimuli/animate_012_left.png"" class=""coveredImage test"" style = ""width:100px; height:100px; position:fixed; top:10%;    transform: translate(-50%, -50%);left:51.5%""></img><img src=""media/stimuli/inanimate_012_left.png"" class=""coveredImage test"" style = ""width:100px; height:100px;position:fixed; top:25%;        transform: translate(-50%, -50%);left:34.5%""></img><img src=""media/stimuli/inanimate_012_left.png"" class=""coveredImage test"" style = ""width:100px; height:100px;position:fixed; top:25%;        transform: translate(-50%, -50%);left:41.5%""></img><img src=""media/stimuli/animate_006_left.png"" class=""coveredImage test"" style = ""width:100px; height:100px;position:fixed; top:25%;        transform: translate(-50%, -50%);left:54.5%""></img><img src=""media/stimuli/animate_006_left.png"" class=""coveredImage test"" style = ""width:100px; height:100px;position:fixed; top:25%;        transform: translate(-50%, -50%);left:61.5%""></img><img src=""media/f.png""style = ""width:30px x; height:30px;position:fixed; top:43%;    transform: translate(-50%, -50%);left:40%""></img><img src=""media/j.png""style = ""width:30px; height:30px;position:fixed; top:43%;    transform: translate(-50%, -50%);left:60%""></img>","media/stimuli/animate_012_left.png","animate","left","pair","media/stimuli/inanimate_012_left.png","inanimate","left","pair","media/stimuli/animate_006_left.png","animate","left","pair","animacy_identity","","","",""
"","","","","","html-keyboard-response","63","583608","0.0-63.0","SS1678233226043","626af8ea8c93e250e03bfaa6","6406d7f26dd5b7fc1e3377bd","6407ce7ac431a66bd9931123","2006","1052","","1973","","j","","","<img src=""media/stimuli/inanimate_001_left.png"" class=""coveredImage test"" style = ""width:100px; height:100px; position:fixed; top:10%;    transform: translate(-50%, -50%);left:48%""></img><img src=""media/stimuli/inanimate_005_left.png"" class=""coveredImage test"" style = ""width:100px; height:100px;position:fixed; top:25%;        transform: translate(-50%, -50%);left:38%""></img><img src=""media/stimuli/inanimate_001_right.png"" class=""coveredImage test"" style = ""width:100px; height:100px;position:fixed; top:25%;        transform: translate(-50%, -50%);left:58%""></img><img src=""media/f.png""style = ""width:30px x; height:30px;position:fixed; top:43%;    transform: translate(-50%, -50%);left:40%""></img><img src=""media/j.png""style = ""width:30px; height:30px;position:fixed; top:43%;    transform: translate(-50%, -50%);left:60%""></img>","media/stimuli/inanimate_001_left.png","inanimate","left","single","media/stimuli/inanimate_005_left.png","inanimate","left","single","media/stimuli/inanimate_001_right.png","inanimate","right","single","identity_pose","","","",""
"","","","","","html-keyboard-response","64","585341","0.0-64.0","SS1678233226043","626af8ea8c93e250e03bfaa6","6406d7f26dd5b7fc1e3377bd","6407ce7ac431a66bd9931123","2006","1052","","1727","","j","","","<img src=""media/stimuli/animate_007_left.png"" class=""coveredImage test"" style = ""width:100px; height:100px; position:fixed; top:10%;    transform: translate(-50%, -50%);left:48%""></img><img src=""media/stimuli/inanimate_008_left.png"" class=""coveredImage test"" style = ""width:100px; height:100px;position:fixed; top:25%;        transform: translate(-50%, -50%);left:38%""></img><img src=""media/stimuli/animate_007_right.png"" class=""coveredImage test"" style = ""width:100px; height:100px;position:fixed; top:25%;        transform: translate(-50%, -50%);left:58%""></img><img src=""media/f.png""style = ""width:30px x; height:30px;position:fixed; top:43%;    transform: translate(-50%, -50%);left:40%""></img><img src=""media/j.png""style = ""width:30px; height:30px;position:fixed; top:43%;    transform: translate(-50%, -50%);left:60%""></img>","media/stimuli/animate_007_left.png","animate","left","single","media/stimuli/inanimate_008_left.png","inanimate","left","single","media/stimuli/animate_007_right.png","animate","right","single","animacy_pose","","","",""
"","","","","","html-keyboard-response","65","587073","0.0-65.0","SS1678233226043","626af8ea8c93e250e03bfaa6","6406d7f26dd5b7fc1e3377bd","6407ce7ac431a66bd9931123","2006","1052","","1723","","j","","","<img src=""media/stimuli/inanimate_010_left.png"" class=""coveredImage test"" style = ""width:100px; height:100px; position:fixed; top:10%;    transform: translate(-50%, -50%);left:48%""></img><img src=""media/stimuli/animate_002_left.png"" class=""coveredImage test"" style = ""width:100px; height:100px;position:fixed; top:25%;        transform: translate(-50%, -50%);left:38%""></img><img src=""media/stimuli/inanimate_001_left.png"" class=""coveredImage test"" style = ""width:100px; height:100px;position:fixed; top:25%;        transform: translate(-50%, -50%);left:58%""></img><img src=""media/f.png""style = ""width:30px x; height:30px;position:fixed; top:43%;    transform: translate(-50%, -50%);left:40%""></img><img src=""media/j.png""style = ""width:30px; height:30px;position:fixed; top:43%;    transform: translate(-50%, -50%);left:60%""></img>","media/stimuli/inanimate_010_left.png","inanimate","left","single","media/stimuli/animate_002_left.png","animate","left","single","media/stimuli/inanimate_001_left.png","inanimate","left","single","animacy_identity","","","",""
"","","","","","html-keyboard-response","66","589256","0.0-66.0","SS1678233226043","626af8ea8c93e250e03bfaa6","6406d7f26dd5b7fc1e3377bd","6407ce7ac431a66bd9931123","2006","1052","","2177","","j","","","<img src=""media/stimuli/animate_005_left.png"" class=""coveredImage test"" style = ""width:100px; height:100px; position:fixed; top:10%;    transform: translate(-50%, -50%);left:48%""></img><img src=""media/stimuli/animate_007_left.png"" class=""coveredImage test"" style = ""width:100px; height:100px;position:fixed; top:25%;        transform: translate(-50%, -50%);left:38%""></img><img src=""media/stimuli/animate_005_left.png"" class=""coveredImage test"" style = ""width:100px; height:100px;position:fixed; top:25%;        transform: translate(-50%, -50%);left:54.5%""></img><img src=""media/stimuli/animate_005_left.png"" class=""coveredImage test"" style = ""width:100px; height:100px;position:fixed; top:25%;        transform: translate(-50%, -50%);left:61.5%""></img><img src=""media/f.png""style = ""width:30px x; height:30px;position:fixed; top:43%;    transform: translate(-50%, -50%);left:40%""></img><img src=""media/j.png""style = ""width:30px; height:30px;position:fixed; top:43%;    transform: translate(-50%, -50%);left:60%""></img>","media/stimuli/animate_005_left.png","animate","left","single","media/stimuli/animate_007_left.png","animate","left","single","media/stimuli/animate_005_left.png","animate","left","pair","identity_number","","","",""
"","","","","","html-keyboard-response","67","592270","0.0-67.0","SS1678233226043","626af8ea8c93e250e03bfaa6","6406d7f26dd5b7fc1e3377bd","6407ce7ac431a66bd9931123","2006","1052","","3008","","j","","","<img src=""media/stimuli/animate_006_right.png"" class=""coveredImage test"" style = ""width:100px; height:100px; position:fixed; top:10%;    transform: translate(-50%, -50%);left:44.5%""></img><img src=""media/stimuli/animate_006_right.png"" class=""coveredImage test"" style = ""width:100px; height:100px; position:fixed; top:10%;    transform: translate(-50%, -50%);left:51.5%""></img><img src=""media/stimuli/inanimate_006_left.png"" class=""coveredImage test"" style = ""width:100px; height:100px;position:fixed; top:25%;        transform: translate(-50%, -50%);left:38%""></img><img src=""media/stimuli/animate_006_right.png"" class=""coveredImage test"" style = ""width:100px; height:100px;position:fixed; top:25%;        transform: translate(-50%, -50%);left:58%""></img><img src=""media/f.png""style = ""width:30px x; height:30px;position:fixed; top:43%;    transform: translate(-50%, -50%);left:40%""></img><img src=""media/j.png""style = ""width:30px; height:30px;position:fixed; top:43%;    transform: translate(-50%, -50%);left:60%""></img>","media/stimuli/animate_006_right.png","animate","right","pair","media/stimuli/inanimate_006_left.png","inanimate","left","single","media/stimuli/animate_006_right.png","animate","right","single","animacy_pose","","","",""
"","","","","","html-keyboard-response","68","593891","0.0-68.0","SS1678233226043","626af8ea8c93e250e03bfaa6","6406d7f26dd5b7fc1e3377bd","6407ce7ac431a66bd9931123","2006","1052","","1614","","j","","","<img src=""media/stimuli/animate_012_right.png"" class=""coveredImage test"" style = ""width:100px; height:100px; position:fixed; top:10%;    transform: translate(-50%, -50%);left:48%""></img><img src=""media/stimuli/inanimate_010_left.png"" class=""coveredImage test"" style = ""width:100px; height:100px;position:fixed; top:25%;        transform: translate(-50%, -50%);left:34.5%""></img><img src=""media/stimuli/inanimate_010_left.png"" class=""coveredImage test"" style = ""width:100px; height:100px;position:fixed; top:25%;        transform: translate(-50%, -50%);left:41.5%""></img><img src=""media/stimuli/animate_012_right.png"" class=""coveredImage test"" style = ""width:100px; height:100px;position:fixed; top:25%;        transform: translate(-50%, -50%);left:54.5%""></img><img src=""media/stimuli/animate_012_right.png"" class=""coveredImage test"" style = ""width:100px; height:100px;position:fixed; top:25%;        transform: translate(-50%, -50%);left:61.5%""></img><img src=""media/f.png""style = ""width:30px x; height:30px;position:fixed; top:43%;    transform: translate(-50%, -50%);left:40%""></img><img src=""media/j.png""style = ""width:30px; height:30px;position:fixed; top:43%;    transform: translate(-50%, -50%);left:60%""></img>","media/stimuli/animate_012_right.png","animate","right","single","media/stimuli/inanimate_010_left.png","inanimate","left","pair","media/stimuli/animate_012_right.png","animate","right","pair","animacy_pose","","","",""
"","","","","","html-keyboard-response","69","595759","0.0-69.0","SS1678233226043","626af8ea8c93e250e03bfaa6","6406d7f26dd5b7fc1e3377bd","6407ce7ac431a66bd9931123","2006","1052","","1862","","j","","","<img src=""media/stimuli/inanimate_001_right.png"" class=""coveredImage test"" style = ""width:100px; height:100px; position:fixed; top:10%;    transform: translate(-50%, -50%);left:48%""></img><img src=""media/stimuli/inanimate_001_right.png"" class=""coveredImage test"" style = ""width:100px; height:100px;position:fixed; top:25%;        transform: translate(-50%, -50%);left:34.5%""></img><img src=""media/stimuli/inanimate_001_right.png"" class=""coveredImage test"" style = ""width:100px; height:100px;position:fixed; top:25%;        transform: translate(-50%, -50%);left:41.5%""></img><img src=""media/stimuli/inanimate_004_right.png"" class=""coveredImage test"" style = ""width:100px; height:100px;position:fixed; top:25%;        transform: translate(-50%, -50%);left:58%""></img><img src=""media/f.png""style = ""width:30px x; height:30px;position:fixed; top:43%;    transform: translate(-50%, -50%);left:40%""></img><img src=""media/j.png""style = ""width:30px; height:30px;position:fixed; top:43%;    transform: translate(-50%, -50%);left:60%""></img>","media/stimuli/inanimate_001_right.png","inanimate","right","single","media/stimuli/inanimate_001_right.png","inanimate","right","pair","media/stimuli/inanimate_004_right.png","inanimate","right","single","number_identity","","","",""
"","","","","","html-keyboard-response","70","598301","0.0-70.0","SS1678233226043","626af8ea8c93e250e03bfaa6","6406d7f26dd5b7fc1e3377bd","6407ce7ac431a66bd9931123","2006","1052","","2535","","f","","","<img src=""media/stimuli/inanimate_005_left.png"" class=""coveredImage test"" style = ""width:100px; height:100px; position:fixed; top:10%;    transform: translate(-50%, -50%);left:48%""></img><img src=""media/stimuli/inanimate_005_right.png"" class=""coveredImage test"" style = ""width:100px; height:100px;position:fixed; top:25%;        transform: translate(-50%, -50%);left:38%""></img><img src=""media/stimuli/inanimate_005_left.png"" class=""coveredImage test"" style = ""width:100px; height:100px;position:fixed; top:25%;        transform: translate(-50%, -50%);left:54.5%""></img><img src=""media/stimuli/inanimate_005_left.png"" class=""coveredImage test"" style = ""width:100px; height:100px;position:fixed; top:25%;        transform: translate(-50%, -50%);left:61.5%""></img><img src=""media/f.png""style = ""width:30px x; height:30px;position:fixed; top:43%;    transform: translate(-50%, -50%);left:40%""></img><img src=""media/j.png""style = ""width:30px; height:30px;position:fixed; top:43%;    transform: translate(-50%, -50%);left:60%""></img>","media/stimuli/inanimate_005_left.png","inanimate","left","single","media/stimuli/inanimate_005_right.png","inanimate","right","single","media/stimuli/inanimate_005_left.png","inanimate","left","pair","pose_number","","","",""
"","","","","","html-keyboard-response","71","600281","0.0-71.0","SS1678233226043","626af8ea8c93e250e03bfaa6","6406d7f26dd5b7fc1e3377bd","6407ce7ac431a66bd9931123","2006","1052","","1972","","f","","","<img src=""media/stimuli/inanimate_001_left.png"" class=""coveredImage test"" style = ""width:100px; height:100px; position:fixed; top:10%;    transform: translate(-50%, -50%);left:48%""></img><img src=""media/stimuli/inanimate_001_right.png"" class=""coveredImage test"" style = ""width:100px; height:100px;position:fixed; top:25%;        transform: translate(-50%, -50%);left:38%""></img><img src=""media/stimuli/inanimate_002_left.png"" class=""coveredImage test"" style = ""width:100px; height:100px;position:fixed; top:25%;        transform: translate(-50%, -50%);left:58%""></img><img src=""media/f.png""style = ""width:30px x; height:30px;position:fixed; top:43%;    transform: translate(-50%, -50%);left:40%""></img><img src=""media/j.png""style = ""width:30px; height:30px;position:fixed; top:43%;    transform: translate(-50%, -50%);left:60%""></img>","media/stimuli/inanimate_001_left.png","inanimate","left","single","media/stimuli/inanimate_001_right.png","inanimate","right","single","media/stimuli/inanimate_002_left.png","inanimate","left","single","pose_identity","","","",""
"","","","","","html-keyboard-response","72","601541","0.0-72.0","SS1678233226043","626af8ea8c93e250e03bfaa6","6406d7f26dd5b7fc1e3377bd","6407ce7ac431a66bd9931123","2006","1052","","1253","","j","","","","","","","","","","","","","","","","","","","",""
"","","","","","html-keyboard-response","73","602688","0.0-73.0","SS1678233226043","626af8ea8c93e250e03bfaa6","6406d7f26dd5b7fc1e3377bd","6407ce7ac431a66bd9931123","2006","1052","","1138","","j","","","<img src=""media/stimuli/animate_003_left.png"" class=""coveredImage test"" style = ""width:100px; height:100px; position:fixed; top:10%;    transform: translate(-50%, -50%);left:44.5%""></img><img src=""media/stimuli/animate_003_left.png"" class=""coveredImage test"" style = ""width:100px; height:100px; position:fixed; top:10%;    transform: translate(-50%, -50%);left:51.5%""></img><img src=""media/stimuli/inanimate_006_left.png"" class=""coveredImage test"" style = ""width:100px; height:100px;position:fixed; top:25%;        transform: translate(-50%, -50%);left:34.5%""></img><img src=""media/stimuli/inanimate_006_left.png"" class=""coveredImage test"" style = ""width:100px; height:100px;position:fixed; top:25%;        transform: translate(-50%, -50%);left:41.5%""></img><img src=""media/stimuli/animate_003_left.png"" class=""coveredImage test"" style = ""width:100px; height:100px;position:fixed; top:25%;        transform: translate(-50%, -50%);left:54.5%""></img><img src=""media/stimuli/animate_003_left.png"" class=""coveredImage test"" style = ""width:100px; height:100px;position:fixed; top:25%;        transform: translate(-50%, -50%);left:61.5%""></img><img src=""media/f.png""style = ""width:30px x; height:30px;position:fixed; top:43%;    transform: translate(-50%, -50%);left:40%""></img><img src=""media/j.png""style = ""width:30px; height:30px;position:fixed; top:43%;    transform: translate(-50%, -50%);left:60%""></img>","media/stimuli/animate_003_left.png","animate","left","pair","media/stimuli/inanimate_006_left.png","inanimate","left","pair","media/stimuli/animate_003_left.png","animate","left","pair","animacy_filler","","","",""
"","","","","","html-keyboard-response","74","604128","0.0-74.0","SS1678233226043","626af8ea8c93e250e03bfaa6","6406d7f26dd5b7fc1e3377bd","6407ce7ac431a66bd9931123","2006","1052","","1432","","f","","","<img src=""media/stimuli/animate_001_left.png"" class=""coveredImage test"" style = ""width:100px; height:100px; position:fixed; top:10%;    transform: translate(-50%, -50%);left:44.5%""></img><img src=""media/stimuli/animate_001_left.png"" class=""coveredImage test"" style = ""width:100px; height:100px; position:fixed; top:10%;    transform: translate(-50%, -50%);left:51.5%""></img><img src=""media/stimuli/animate_010_left.png"" class=""coveredImage test"" style = ""width:100px; height:100px;position:fixed; top:25%;        transform: translate(-50%, -50%);left:34.5%""></img><img src=""media/stimuli/animate_010_left.png"" class=""coveredImage test"" style = ""width:100px; height:100px;position:fixed; top:25%;        transform: translate(-50%, -50%);left:41.5%""></img><img src=""media/stimuli/inanimate_006_left.png"" class=""coveredImage test"" style = ""width:100px; height:100px;position:fixed; top:25%;        transform: translate(-50%, -50%);left:54.5%""></img><img src=""media/stimuli/inanimate_006_left.png"" class=""coveredImage test"" style = ""width:100px; height:100px;position:fixed; top:25%;        transform: translate(-50%, -50%);left:61.5%""></img><img src=""media/f.png""style = ""width:30px x; height:30px;position:fixed; top:43%;    transform: translate(-50%, -50%);left:40%""></img><img src=""media/j.png""style = ""width:30px; height:30px;position:fixed; top:43%;    transform: translate(-50%, -50%);left:60%""></img>","media/stimuli/animate_001_left.png","animate","left","pair","media/stimuli/animate_010_left.png","animate","left","pair","media/stimuli/inanimate_006_left.png","inanimate","left","pair","identity_animacy","","","",""
"","","","","","html-keyboard-response","75","605209","0.0-75.0","SS1678233226043","626af8ea8c93e250e03bfaa6","6406d7f26dd5b7fc1e3377bd","6407ce7ac431a66bd9931123","2006","1052","","1072","","f","","","<img src=""media/stimuli/inanimate_010_left.png"" class=""coveredImage test"" style = ""width:100px; height:100px; position:fixed; top:10%;    transform: translate(-50%, -50%);left:44.5%""></img><img src=""media/stimuli/inanimate_010_left.png"" class=""coveredImage test"" style = ""width:100px; height:100px; position:fixed; top:10%;    transform: translate(-50%, -50%);left:51.5%""></img><img src=""media/stimuli/inanimate_010_left.png"" class=""coveredImage test"" style = ""width:100px; height:100px;position:fixed; top:25%;        transform: translate(-50%, -50%);left:38%""></img><img src=""media/stimuli/inanimate_012_left.png"" class=""coveredImage test"" style = ""width:100px; height:100px;position:fixed; top:25%;        transform: translate(-50%, -50%);left:54.5%""></img><img src=""media/stimuli/inanimate_012_left.png"" class=""coveredImage test"" style = ""width:100px; height:100px;position:fixed; top:25%;        transform: translate(-50%, -50%);left:61.5%""></img><img src=""media/f.png""style = ""width:30px x; height:30px;position:fixed; top:43%;    transform: translate(-50%, -50%);left:40%""></img><img src=""media/j.png""style = ""width:30px; height:30px;position:fixed; top:43%;    transform: translate(-50%, -50%);left:60%""></img>","media/stimuli/inanimate_010_left.png","inanimate","left","pair","media/stimuli/inanimate_010_left.png","inanimate","left","single","media/stimuli/inanimate_012_left.png","inanimate","left","pair","number_identity","","","",""
"","","","","","html-keyboard-response","76","606200","0.0-76.0","SS1678233226043","626af8ea8c93e250e03bfaa6","6406d7f26dd5b7fc1e3377bd","6407ce7ac431a66bd9931123","2006","1052","","983","","f","","","<img src=""media/stimuli/animate_005_right.png"" class=""coveredImage test"" style = ""width:100px; height:100px; position:fixed; top:10%;    transform: translate(-50%, -50%);left:48%""></img><img src=""media/stimuli/animate_005_right.png"" class=""coveredImage test"" style = ""width:100px; height:100px;position:fixed; top:25%;        transform: translate(-50%, -50%);left:34.5%""></img><img src=""media/stimuli/animate_005_right.png"" class=""coveredImage test"" style = ""width:100px; height:100px;position:fixed; top:25%;        transform: translate(-50%, -50%);left:41.5%""></img><img src=""media/stimuli/inanimate_011_left.png"" class=""coveredImage test"" style = ""width:100px; height:100px;position:fixed; top:25%;        transform: translate(-50%, -50%);left:54.5%""></img><img src=""media/stimuli/inanimate_011_left.png"" class=""coveredImage test"" style = ""width:100px; height:100px;position:fixed; top:25%;        transform: translate(-50%, -50%);left:61.5%""></img><img src=""media/f.png""style = ""width:30px x; height:30px;position:fixed; top:43%;    transform: translate(-50%, -50%);left:40%""></img><img src=""media/j.png""style = ""width:30px; height:30px;position:fixed; top:43%;    transform: translate(-50%, -50%);left:60%""></img>","media/stimuli/animate_005_right.png","animate","right","single","media/stimuli/animate_005_right.png","animate","right","pair","media/stimuli/inanimate_011_left.png","inanimate","left","pair","pose_animacy","","","",""
"","","","","","html-keyboard-response","77","607144","0.0-77.0","SS1678233226043","626af8ea8c93e250e03bfaa6","6406d7f26dd5b7fc1e3377bd","6407ce7ac431a66bd9931123","2006","1052","","935","","f","","","<img src=""media/stimuli/animate_007_left.png"" class=""coveredImage test"" style = ""width:100px; height:100px; position:fixed; top:10%;    transform: translate(-50%, -50%);left:48%""></img><img src=""media/stimuli/animate_007_left.png"" class=""coveredImage test"" style = ""width:100px; height:100px;position:fixed; top:25%;        transform: translate(-50%, -50%);left:34.5%""></img><img src=""media/stimuli/animate_007_left.png"" class=""coveredImage test"" style = ""width:100px; height:100px;position:fixed; top:25%;        transform: translate(-50%, -50%);left:41.5%""></img><img src=""media/stimuli/inanimate_001_left.png"" class=""coveredImage test"" style = ""width:100px; height:100px;position:fixed; top:25%;        transform: translate(-50%, -50%);left:58%""></img><img src=""media/f.png""style = ""width:30px x; height:30px;position:fixed; top:43%;    transform: translate(-50%, -50%);left:40%""></img><img src=""media/j.png""style = ""width:30px; height:30px;position:fixed; top:43%;    transform: translate(-50%, -50%);left:60%""></img>","media/stimuli/animate_007_left.png","animate","left","single","media/stimuli/animate_007_left.png","animate","left","pair","media/stimuli/inanimate_001_left.png","inanimate","left","single","number_animacy","","","",""
"","","","","","html-keyboard-response","78","608201","0.0-78.0","SS1678233226043","626af8ea8c93e250e03bfaa6","6406d7f26dd5b7fc1e3377bd","6407ce7ac431a66bd9931123","2006","1052","","1049","","f","","","<img src=""media/stimuli/animate_011_left.png"" class=""coveredImage test"" style = ""width:100px; height:100px; position:fixed; top:10%;    transform: translate(-50%, -50%);left:48%""></img><img src=""media/stimuli/animate_011_left.png"" class=""coveredImage test"" style = ""width:100px; height:100px;position:fixed; top:25%;        transform: translate(-50%, -50%);left:34.5%""></img><img src=""media/stimuli/animate_011_left.png"" class=""coveredImage test"" style = ""width:100px; height:100px;position:fixed; top:25%;        transform: translate(-50%, -50%);left:41.5%""></img><img src=""media/stimuli/animate_008_left.png"" class=""coveredImage test"" style = ""width:100px; height:100px;position:fixed; top:25%;        transform: translate(-50%, -50%);left:58%""></img><img src=""media/f.png""style = ""width:30px x; height:30px;position:fixed; top:43%;    transform: translate(-50%, -50%);left:40%""></img><img src=""media/j.png""style = ""width:30px; height:30px;position:fixed; top:43%;    transform: translate(-50%, -50%);left:60%""></img>","media/stimuli/animate_011_left.png","animate","left","single","media/stimuli/animate_011_left.png","animate","left","pair","media/stimuli/animate_008_left.png","animate","left","single","number_identity","","","",""
"","","","","","html-keyboard-response","79","609191","0.0-79.0","SS1678233226043","626af8ea8c93e250e03bfaa6","6406d7f26dd5b7fc1e3377bd","6407ce7ac431a66bd9931123","2006","1052","","982","","f","","","<img src=""media/stimuli/animate_009_right.png"" class=""coveredImage test"" style = ""width:100px; height:100px; position:fixed; top:10%;    transform: translate(-50%, -50%);left:44.5%""></img><img src=""media/stimuli/animate_009_right.png"" class=""coveredImage test"" style = ""width:100px; height:100px; position:fixed; top:10%;    transform: translate(-50%, -50%);left:51.5%""></img><img src=""media/stimuli/animate_009_left.png"" class=""coveredImage test"" style = ""width:100px; height:100px;position:fixed; top:25%;        transform: translate(-50%, -50%);left:34.5%""></img><img src=""media/stimuli/animate_009_left.png"" class=""coveredImage test"" style = ""width:100px; height:100px;position:fixed; top:25%;        transform: translate(-50%, -50%);left:41.5%""></img><img src=""media/stimuli/animate_003_right.png"" class=""coveredImage test"" style = ""width:100px; height:100px;position:fixed; top:25%;        transform: translate(-50%, -50%);left:54.5%""></img><img src=""media/stimuli/animate_003_right.png"" class=""coveredImage test"" style = ""width:100px; height:100px;position:fixed; top:25%;        transform: translate(-50%, -50%);left:61.5%""></img><img src=""media/f.png""style = ""width:30px x; height:30px;position:fixed; top:43%;    transform: translate(-50%, -50%);left:40%""></img><img src=""media/j.png""style = ""width:30px; height:30px;position:fixed; top:43%;    transform: translate(-50%, -50%);left:60%""></img>","media/stimuli/animate_009_right.png","animate","right","pair","media/stimuli/animate_009_left.png","animate","left","pair","media/stimuli/animate_003_right.png","animate","right","pair","pose_identity","","","",""
"","","","","","html-keyboard-response","80","610316","0.0-80.0","SS1678233226043","626af8ea8c93e250e03bfaa6","6406d7f26dd5b7fc1e3377bd","6407ce7ac431a66bd9931123","2006","1052","","1116","","f","","","<img src=""media/stimuli/animate_010_right.png"" class=""coveredImage test"" style = ""width:100px; height:100px; position:fixed; top:10%;    transform: translate(-50%, -50%);left:48%""></img><img src=""media/stimuli/animate_010_right.png"" class=""coveredImage test"" style = ""width:100px; height:100px;position:fixed; top:25%;        transform: translate(-50%, -50%);left:34.5%""></img><img src=""media/stimuli/animate_010_right.png"" class=""coveredImage test"" style = ""width:100px; height:100px;position:fixed; top:25%;        transform: translate(-50%, -50%);left:41.5%""></img><img src=""media/stimuli/animate_005_right.png"" class=""coveredImage test"" style = ""width:100px; height:100px;position:fixed; top:25%;        transform: translate(-50%, -50%);left:58%""></img><img src=""media/f.png""style = ""width:30px x; height:30px;position:fixed; top:43%;    transform: translate(-50%, -50%);left:40%""></img><img src=""media/j.png""style = ""width:30px; height:30px;position:fixed; top:43%;    transform: translate(-50%, -50%);left:60%""></img>","media/stimuli/animate_010_right.png","animate","right","single","media/stimuli/animate_010_right.png","animate","right","pair","media/stimuli/animate_005_right.png","animate","right","single","number_identity","","","",""
"","","","","","html-keyboard-response","81","611554","0.0-81.0","SS1678233226043","626af8ea8c93e250e03bfaa6","6406d7f26dd5b7fc1e3377bd","6407ce7ac431a66bd9931123","2006","1052","","1229","","f","","","<img src=""media/stimuli/inanimate_002_left.png"" class=""coveredImage test"" style = ""width:100px; height:100px; position:fixed; top:10%;    transform: translate(-50%, -50%);left:44.5%""></img><img src=""media/stimuli/inanimate_002_left.png"" class=""coveredImage test"" style = ""width:100px; height:100px; position:fixed; top:10%;    transform: translate(-50%, -50%);left:51.5%""></img><img src=""media/stimuli/inanimate_002_left.png"" class=""coveredImage test"" style = ""width:100px; height:100px;position:fixed; top:25%;        transform: translate(-50%, -50%);left:38%""></img><img src=""media/stimuli/inanimate_012_left.png"" class=""coveredImage test"" style = ""width:100px; height:100px;position:fixed; top:25%;        transform: translate(-50%, -50%);left:54.5%""></img><img src=""media/stimuli/inanimate_012_left.png"" class=""coveredImage test"" style = ""width:100px; height:100px;position:fixed; top:25%;        transform: translate(-50%, -50%);left:61.5%""></img><img src=""media/f.png""style = ""width:30px x; height:30px;position:fixed; top:43%;    transform: translate(-50%, -50%);left:40%""></img><img src=""media/j.png""style = ""width:30px; height:30px;position:fixed; top:43%;    transform: translate(-50%, -50%);left:60%""></img>","media/stimuli/inanimate_002_left.png","inanimate","left","pair","media/stimuli/inanimate_002_left.png","inanimate","left","single","media/stimuli/inanimate_012_left.png","inanimate","left","pair","number_identity","","","",""
"","","","","","html-keyboard-response","82","612859","0.0-82.0","SS1678233226043","626af8ea8c93e250e03bfaa6","6406d7f26dd5b7fc1e3377bd","6407ce7ac431a66bd9931123","2006","1052","","1295","","f","","","<img src=""media/stimuli/inanimate_009_right.png"" class=""coveredImage test"" style = ""width:100px; height:100px; position:fixed; top:10%;    transform: translate(-50%, -50%);left:48%""></img><img src=""media/stimuli/inanimate_009_left.png"" class=""coveredImage test"" style = ""width:100px; height:100px;position:fixed; top:25%;        transform: translate(-50%, -50%);left:38%""></img><img src=""media/stimuli/inanimate_009_right.png"" class=""coveredImage test"" style = ""width:100px; height:100px;position:fixed; top:25%;        transform: translate(-50%, -50%);left:54.5%""></img><img src=""media/stimuli/inanimate_009_right.png"" class=""coveredImage test"" style = ""width:100px; height:100px;position:fixed; top:25%;        transform: translate(-50%, -50%);left:61.5%""></img><img src=""media/f.png""style = ""width:30px x; height:30px;position:fixed; top:43%;    transform: translate(-50%, -50%);left:40%""></img><img src=""media/j.png""style = ""width:30px; height:30px;position:fixed; top:43%;    transform: translate(-50%, -50%);left:60%""></img>","media/stimuli/inanimate_009_right.png","inanimate","right","single","media/stimuli/inanimate_009_left.png","inanimate","left","single","media/stimuli/inanimate_009_right.png","inanimate","right","pair","pose_number","","","",""
"","","","","","html-keyboard-response","83","613736","0.0-83.0","SS1678233226043","626af8ea8c93e250e03bfaa6","6406d7f26dd5b7fc1e3377bd","6407ce7ac431a66bd9931123","2006","1052","","868","","j","","","<img src=""media/stimuli/animate_002_right.png"" class=""coveredImage test"" style = ""width:100px; height:100px; position:fixed; top:10%;    transform: translate(-50%, -50%);left:48%""></img><img src=""media/stimuli/animate_005_right.png"" class=""coveredImage test"" style = ""width:100px; height:100px;position:fixed; top:25%;        transform: translate(-50%, -50%);left:38%""></img><img src=""media/stimuli/animate_002_right.png"" class=""coveredImage test"" style = ""width:100px; height:100px;position:fixed; top:25%;        transform: translate(-50%, -50%);left:54.5%""></img><img src=""media/stimuli/animate_002_right.png"" class=""coveredImage test"" style = ""width:100px; height:100px;position:fixed; top:25%;        transform: translate(-50%, -50%);left:61.5%""></img><img src=""media/f.png""style = ""width:30px x; height:30px;position:fixed; top:43%;    transform: translate(-50%, -50%);left:40%""></img><img src=""media/j.png""style = ""width:30px; height:30px;position:fixed; top:43%;    transform: translate(-50%, -50%);left:60%""></img>","media/stimuli/animate_002_right.png","animate","right","single","media/stimuli/animate_005_right.png","animate","right","single","media/stimuli/animate_002_right.png","animate","right","pair","identity_number","","","",""
"","","","","","html-keyboard-response","84","615491","0.0-84.0","SS1678233226043","626af8ea8c93e250e03bfaa6","6406d7f26dd5b7fc1e3377bd","6407ce7ac431a66bd9931123","2006","1052","","1746","","j","","","<img src=""media/stimuli/animate_010_right.png"" class=""coveredImage test"" style = ""width:100px; height:100px; position:fixed; top:10%;    transform: translate(-50%, -50%);left:44.5%""></img><img src=""media/stimuli/animate_010_right.png"" class=""coveredImage test"" style = ""width:100px; height:100px; position:fixed; top:10%;    transform: translate(-50%, -50%);left:51.5%""></img><img src=""media/stimuli/animate_010_left.png"" class=""coveredImage test"" style = ""width:100px; height:100px;position:fixed; top:25%;        transform: translate(-50%, -50%);left:34.5%""></img><img src=""media/stimuli/animate_010_left.png"" class=""coveredImage test"" style = ""width:100px; height:100px;position:fixed; top:25%;        transform: translate(-50%, -50%);left:41.5%""></img><img src=""media/stimuli/animate_010_right.png"" class=""coveredImage test"" style = ""width:100px; height:100px;position:fixed; top:25%;        transform: translate(-50%, -50%);left:58%""></img><img src=""media/f.png""style = ""width:30px x; height:30px;position:fixed; top:43%;    transform: translate(-50%, -50%);left:40%""></img><img src=""media/j.png""style = ""width:30px; height:30px;position:fixed; top:43%;    transform: translate(-50%, -50%);left:60%""></img>","media/stimuli/animate_010_right.png","animate","right","pair","media/stimuli/animate_010_left.png","animate","left","pair","media/stimuli/animate_010_right.png","animate","right","single","pose_number","","","",""
"","","","","","html-keyboard-response","85","618710","0.0-85.0","SS1678233226043","626af8ea8c93e250e03bfaa6","6406d7f26dd5b7fc1e3377bd","6407ce7ac431a66bd9931123","2006","1052","","3209","","j","","","","","","","","","","","","","","","","","","","",""
"","","","","","survey-likert","86","626429","0.0-86.0","SS1678233226043","626af8ea8c93e250e03bfaa6","6406d7f26dd5b7fc1e3377bd","6407ce7ac431a66bd9931123","2006","1052","","7710","","{""Q0"":3}","[0]","complexity","","","","","","","","","","","","","","","media/stimuli/inanimate_009_right.png","inanimate","pair","right"
"","","","","","survey-likert","87","631028","0.0-87.0","SS1678233226043","626af8ea8c93e250e03bfaa6","6406d7f26dd5b7fc1e3377bd","6407ce7ac431a66bd9931123","2006","1052","","4586","","{""Q0"":4}","[0]","complexity","","","","","","","","","","","","","","","media/stimuli/animate_004_right.png","animate","pair","right"
"","","","","","survey-likert","88","634554","0.0-88.0","SS1678233226043","626af8ea8c93e250e03bfaa6","6406d7f26dd5b7fc1e3377bd","6407ce7ac431a66bd9931123","2006","1052","","3516","","{""Q0"":1}","[0]","complexity","","","","","","","","","","","","","","","media/stimuli/inanimate_010_right.png","inanimate","single","right"
"","","","","","survey-likert","89","637464","0.0-89.0","SS1678233226043","626af8ea8c93e250e03bfaa6","6406d7f26dd5b7fc1e3377bd","6407ce7ac431a66bd9931123","2006","1052","","2898","","{""Q0"":2}","[0]","complexity","","","","","","","","","","","","","","","media/stimuli/inanimate_008_right.png","inanimate","pair","right"
"","","","","","survey-likert","90","641202","0.0-90.0","SS1678233226043","626af8ea8c93e250e03bfaa6","6406d7f26dd5b7fc1e3377bd","6407ce7ac431a66bd9931123","2006","1052","","3726","","{""Q0"":1}","[0]","complexity","","","","","","","","","","","","","","","media/stimuli/animate_007_right.png","animate","single","right"
"","","","","","survey-likert","91","643700","0.0-91.0","SS1678233226043","626af8ea8c93e250e03bfaa6","6406d7f26dd5b7fc1e3377bd","6407ce7ac431a66bd9931123","2006","1052","","2486","","{""Q0"":1}","[0]","complexity","","","","","","","","","","","","","","","media/stimuli/inanimate_012_left.png","inanimate","single","left"
"","","","","","survey-likert","92","646194","0.0-92.0","SS1678233226043","626af8ea8c93e250e03bfaa6","6406d7f26dd5b7fc1e3377bd","6407ce7ac431a66bd9931123","2006","1052","","2483","","{""Q0"":1}","[0]","complexity","","","","","","","","","","","","","","","media/stimuli/inanimate_001_right.png","inanimate","single","right"
"","","","","","survey-likert","93","648546","0.0-93.0","SS1678233226043","626af8ea8c93e250e03bfaa6","6406d7f26dd5b7fc1e3377bd","6407ce7ac431a66bd9931123","2006","1052","","2341","","{""Q0"":2}","[0]","complexity","","","","","","","","","","","","","","","media/stimuli/inanimate_002_left.png","inanimate","pair","left"
"","","","","","survey-likert","94","651270","0.0-94.0","SS1678233226043","626af8ea8c93e250e03bfaa6","6406d7f26dd5b7fc1e3377bd","6407ce7ac431a66bd9931123","2006","1052","","2710","","{""Q0"":3}","[0]","complexity","","","","","","","","","","","","","","","media/stimuli/animate_007_left.png","animate","pair","left"
"","","","","","survey-likert","95","654382","0.0-95.0","SS1678233226043","626af8ea8c93e250e03bfaa6","6406d7f26dd5b7fc1e3377bd","6407ce7ac431a66bd9931123","2006","1052","","3098","","{""Q0"":2}","[0]","complexity","","","","","","","","","","","","","","","media/stimuli/animate_008_left.png","animate","single","left"
"","","","","","survey-likert","96","661604","0.0-96.0","SS1678233226043","626af8ea8c93e250e03bfaa6","6406d7f26dd5b7fc1e3377bd","6407ce7ac431a66bd9931123","2006","1052","","7210","","{""Q0"":3}","[0]","complexity","","","","","","","","","","","","","","","media/stimuli/animate_001_right.png","animate","pair","right"
"","","","","","survey-likert","97","665546","0.0-97.0","SS1678233226043","626af8ea8c93e250e03bfaa6","6406d7f26dd5b7fc1e3377bd","6407ce7ac431a66bd9931123","2006","1052","","3929","","{""Q0"":1}","[0]","complexity","","","","","","","","","","","","","","","media/stimuli/inanimate_006_left.png","inanimate","single","left"
"","","","","","html-keyboard-response","98","667579","0.0-98.0","SS1678233226043","626af8ea8c93e250e03bfaa6","6406d7f26dd5b7fc1e3377bd","6407ce7ac431a66bd9931123","2006","1052","","2020",""," ","","","","","","","","","","","","","","","","","","","",""
"","","","","","survey-likert","99","678018","0.0-99.0","SS1678233226043","626af8ea8c93e250e03bfaa6","6406d7f26dd5b7fc1e3377bd","6407ce7ac431a66bd9931123","2006","1052","","10430","","{""Q0"":3}","[0]","complexity","","","","","","","","","","","","","","","media/stimuli/animate_008_right.png","animate","pair","right"
"","","","","","survey-likert","100","680382","0.0-100.0","SS1678233226043","626af8ea8c93e250e03bfaa6","6406d7f26dd5b7fc1e3377bd","6407ce7ac431a66bd9931123","2006","1052","","2352","","{""Q0"":2}","[0]","complexity","","","","","","","","","","","","","","","media/stimuli/animate_006_right.png","animate","single","right"
"","","","","","survey-likert","101","683015","0.0-101.0","SS1678233226043","626af8ea8c93e250e03bfaa6","6406d7f26dd5b7fc1e3377bd","6407ce7ac431a66bd9931123","2006","1052","","2620","","{""Q0"":2}","[0]","complexity","","","","","","","","","","","","","","","media/stimuli/animate_011_left.png","animate","single","left"
"","","","","","survey-likert","102","685787","0.0-102.0","SS1678233226043","626af8ea8c93e250e03bfaa6","6406d7f26dd5b7fc1e3377bd","6407ce7ac431a66bd9931123","2006","1052","","2759","","{""Q0"":1}","[0]","complexity","","","","","","","","","","","","","","","media/stimuli/inanimate_004_left.png","inanimate","single","left"
"","","","","","survey-likert","103","688807","0.0-103.0","SS1678233226043","626af8ea8c93e250e03bfaa6","6406d7f26dd5b7fc1e3377bd","6407ce7ac431a66bd9931123","2006","1052","","3004","","{""Q0"":2}","[0]","complexity","","","","","","","","","","","","","","","media/stimuli/animate_002_left.png","animate","single","left"
"","","","","","survey-likert","104","699055","0.0-104.0","SS1678233226043","626af8ea8c93e250e03bfaa6","6406d7f26dd5b7fc1e3377bd","6407ce7ac431a66bd9931123","2006","1052","","10235","","{""Q0"":4}","[0]","complexity","","","","","","","","","","","","","","","media/stimuli/animate_008_left.png","animate","pair","left"
"","","","","","survey-likert","105","702431","0.0-105.0","SS1678233226043","626af8ea8c93e250e03bfaa6","6406d7f26dd5b7fc1e3377bd","6407ce7ac431a66bd9931123","2006","1052","","3364","","{""Q0"":3}","[0]","complexity","","","","","","","","","","","","","","","media/stimuli/inanimate_010_left.png","inanimate","pair","left"
"","","","","","survey-likert","106","707613","0.0-106.0","SS1678233226043","626af8ea8c93e250e03bfaa6","6406d7f26dd5b7fc1e3377bd","6407ce7ac431a66bd9931123","2006","1052","","5167","","{""Q0"":1}","[0]","complexity","","","","","","","","","","","","","","","media/stimuli/inanimate_002_right.png","inanimate","single","right"
"","","","","","survey-likert","107","711807","0.0-107.0","SS1678233226043","626af8ea8c93e250e03bfaa6","6406d7f26dd5b7fc1e3377bd","6407ce7ac431a66bd9931123","2006","1052","","4180","","{""Q0"":2}","[0]","complexity","","","","","","","","","","","","","","","media/stimuli/inanimate_011_right.png","inanimate","pair","right"
"","","","","","survey-likert","108","714771","0.0-108.0","SS1678233226043","626af8ea8c93e250e03bfaa6","6406d7f26dd5b7fc1e3377bd","6407ce7ac431a66bd9931123","2006","1052","","2950","","{""Q0"":2}","[0]","complexity","","","","","","","","","","","","","","","media/stimuli/inanimate_007_left.png","inanimate","pair","left"
"","","","","","survey-likert","109","717509","0.0-109.0","SS1678233226043","626af8ea8c93e250e03bfaa6","6406d7f26dd5b7fc1e3377bd","6407ce7ac431a66bd9931123","2006","1052","","2724","","{""Q0"":3}","[0]","complexity","","","","","","","","","","","","","","","media/stimuli/animate_009_left.png","animate","pair","left"
"","","","","","survey-likert","110","720027","0.0-110.0","SS1678233226043","626af8ea8c93e250e03bfaa6","6406d7f26dd5b7fc1e3377bd","6407ce7ac431a66bd9931123","2006","1052","","2504","","{""Q0"":2}","[0]","complexity","","","","","","","","","","","","","","","media/stimuli/animate_011_right.png","animate","single","right"
"","","","","","html-keyboard-response","111","721490","0.0-111.0","SS1678233226043","626af8ea8c93e250e03bfaa6","6406d7f26dd5b7fc1e3377bd","6407ce7ac431a66bd9931123","2006","1052","","1451",""," ","","","","","","","","","","","","","","","","","","","",""
"","","","","","html-keyboard-response","112","727857","0.0-112.0","SS1678233226043","626af8ea8c93e250e03bfaa6","6406d7f26dd5b7fc1e3377bd","6407ce7ac431a66bd9931123","2006","1052","","6356","","j","","","<img src=""media/stimuli/inanimate_011_right.png"" class=""coveredImage test"" style = ""width:100px; height:100px; position:fixed; top:10%;    transform: translate(-50%, -50%);left:44.5%""></img><img src=""media/stimuli/inanimate_011_right.png"" class=""coveredImage test"" style = ""width:100px; height:100px; position:fixed; top:10%;    transform: translate(-50%, -50%);left:51.5%""></img><img src=""media/stimuli/animate_003_right.png"" class=""coveredImage test"" style = ""width:100px; height:100px;position:fixed; top:25%;        transform: translate(-50%, -50%);left:34.5%""></img><img src=""media/stimuli/animate_003_right.png"" class=""coveredImage test"" style = ""width:100px; height:100px;position:fixed; top:25%;        transform: translate(-50%, -50%);left:41.5%""></img><img src=""media/stimuli/inanimate_011_right.png"" class=""coveredImage test"" style = ""width:100px; height:100px;position:fixed; top:25%;        transform: translate(-50%, -50%);left:58%""></img><img src=""media/f.png""style = ""width:30px x; height:30px;position:fixed; top:43%;    transform: translate(-50%, -50%);left:40%""></img><img src=""media/j.png""style = ""width:30px; height:30px;position:fixed; top:43%;    transform: translate(-50%, -50%);left:60%""></img>","media/stimuli/inanimate_011_right.png","inanimate","right","pair","media/stimuli/animate_003_right.png","animate","right","pair","media/stimuli/inanimate_011_right.png","inanimate","right","single","animacy_number","","","",""
"","","","","","html-keyboard-response","113","730265","0.0-113.0","SS1678233226043","626af8ea8c93e250e03bfaa6","6406d7f26dd5b7fc1e3377bd","6407ce7ac431a66bd9931123","2006","1052","","2395","","f","","","<img src=""media/stimuli/inanimate_002_left.png"" class=""coveredImage test"" style = ""width:100px; height:100px; position:fixed; top:10%;    transform: translate(-50%, -50%);left:48%""></img><img src=""media/stimuli/inanimate_003_left.png"" class=""coveredImage test"" style = ""width:100px; height:100px;position:fixed; top:25%;        transform: translate(-50%, -50%);left:38%""></img><img src=""media/stimuli/animate_007_left.png"" class=""coveredImage test"" style = ""width:100px; height:100px;position:fixed; top:25%;        transform: translate(-50%, -50%);left:58%""></img><img src=""media/f.png""style = ""width:30px x; height:30px;position:fixed; top:43%;    transform: translate(-50%, -50%);left:40%""></img><img src=""media/j.png""style = ""width:30px; height:30px;position:fixed; top:43%;    transform: translate(-50%, -50%);left:60%""></img>","media/stimuli/inanimate_002_left.png","inanimate","left","single","media/stimuli/inanimate_003_left.png","inanimate","left","single","media/stimuli/animate_007_left.png","animate","left","single","identity_animacy","","","",""
"","","","","","html-keyboard-response","114","731728","0.0-114.0","SS1678233226043","626af8ea8c93e250e03bfaa6","6406d7f26dd5b7fc1e3377bd","6407ce7ac431a66bd9931123","2006","1052","","1452","","f","","","<img src=""media/stimuli/animate_012_left.png"" class=""coveredImage test"" style = ""width:100px; height:100px; position:fixed; top:10%;    transform: translate(-50%, -50%);left:44.5%""></img><img src=""media/stimuli/animate_012_left.png"" class=""coveredImage test"" style = ""width:100px; height:100px; position:fixed; top:10%;    transform: translate(-50%, -50%);left:51.5%""></img><img src=""media/stimuli/animate_012_left.png"" class=""coveredImage test"" style = ""width:100px; height:100px;position:fixed; top:25%;        transform: translate(-50%, -50%);left:38%""></img><img src=""media/stimuli/inanimate_004_left.png"" class=""coveredImage test"" style = ""width:100px; height:100px;position:fixed; top:25%;        transform: translate(-50%, -50%);left:54.5%""></img><img src=""media/stimuli/inanimate_004_left.png"" class=""coveredImage test"" style = ""width:100px; height:100px;position:fixed; top:25%;        transform: translate(-50%, -50%);left:61.5%""></img><img src=""media/f.png""style = ""width:30px x; height:30px;position:fixed; top:43%;    transform: translate(-50%, -50%);left:40%""></img><img src=""media/j.png""style = ""width:30px; height:30px;position:fixed; top:43%;    transform: translate(-50%, -50%);left:60%""></img>","media/stimuli/animate_012_left.png","animate","left","pair","media/stimuli/animate_012_left.png","animate","left","single","media/stimuli/inanimate_004_left.png","inanimate","left","pair","number_animacy","","","",""
