"success","timeout","failed_images","failed_audio","failed_video","trial_type","trial_index","time_elapsed","internal_node_id","subject","prolific_id","study","session","window_width","window_height","view_history","rt","stimulus_type","response","question_order","rating_type","stimulus","target","target_animacy","target_pose","target_number","left","left_animacy","left_pose","left_number","right","right_animacy","right_pose","right_number","comparison_type","rating_stimulus","rating_animacy","rating_number","rating_pose"
"true","false","[]","[]","[]","preload","0","1811","0.0-0.0","SS1678233172398","5e27727328b7b698b037ee6c","6406d7f26dd5b7fc1e3377bd","6407ce4b5b075dbc28df5db9","1536","711","","","","","","","","","","","","","","","","","","","","","","","",""
"","","","","","instructions","1","4656","0.0-1.0","SS1678233172398","5e27727328b7b698b037ee6c","6406d7f26dd5b7fc1e3377bd","6407ce4b5b075dbc28df5db9","1536","711","[{""page_index"":0,""viewing_time"":2842}]","2843","","","","","","","","","","","","","","","","","","","","","",""
"","","","","","instructions","2","15273","0.0-2.0","SS1678233172398","5e27727328b7b698b037ee6c","6406d7f26dd5b7fc1e3377bd","6407ce4b5b075dbc28df5db9","1536","711","[{""page_index"":0,""viewing_time"":8612}]","8612","instructions","","","","","","","","","","","","","","","","","","","","",""
"","","","","","instructions","3","22100","0.0-3.0","SS1678233172398","5e27727328b7b698b037ee6c","6406d7f26dd5b7fc1e3377bd","6407ce4b5b075dbc28df5db9","1536","711","[{""page_index"":0,""viewing_time"":6824}]","6824","instructions","","","","","","","","","","","","","","","","","","","","",""
"","","","","","survey-likert","4","27376","0.0-4.0","SS1678233172398","5e27727328b7b698b037ee6c","6406d7f26dd5b7fc1e3377bd","6407ce4b5b075dbc28df5db9","1536","711","","5272","","{""Q0"":4}","[0]","anchoring","","","","","","","","","","","","","","","","","",""
"","","","","","survey-likert","5","30465","0.0-5.0","SS1678233172398","5e27727328b7b698b037ee6c","6406d7f26dd5b7fc1e3377bd","6407ce4b5b075dbc28df5db9","1536","711","","3084","","{""Q0"":2}","[0]","anchoring","","","","","","","","","","","","","","","","","",""
"","","","","","instructions","6","32242","0.0-6.0","SS1678233172398","5e27727328b7b698b037ee6c","6406d7f26dd5b7fc1e3377bd","6407ce4b5b075dbc28df5db9","1536","711","[{""page_index"":0,""viewing_time"":1776}]","1776","instructions","","","","","","","","","","","","","","","","","","","","",""
"true","","","","","fullscreen","7","44272","0.0-7.0","SS1678233172398","5e27727328b7b698b037ee6c","6406d7f26dd5b7fc1e3377bd","6407ce4b5b075dbc28df5db9","1536","711","","","","","","","","","","","","","","","","","","","","","","","",""
"","","","","","html-keyboard-response","8","59941","0.0-8.0","SS1678233172398","5e27727328b7b698b037ee6c","6406d7f26dd5b7fc1e3377bd","6407ce4b5b075dbc28df5db9","1536","711","","15664","","f","","","<img src=""media/stimuli/inanimate_003_right.png"" class=""coveredImage test"" style = ""width:100px; height:100px; position:fixed; top:10%;    transform: translate(-50%, -50%);left:48%""></img><img src=""media/stimuli/inanimate_003_right.png"" class=""coveredImage test"" style = ""width:100px; height:100px;position:fixed; top:25%;        transform: translate(-50%, -50%);left:34.5%""></img><img src=""media/stimuli/inanimate_003_right.png"" class=""coveredImage test"" style = ""width:100px; height:100px;position:fixed; top:25%;        transform: translate(-50%, -50%);left:41.5%""></img><img src=""media/stimuli/inanimate_003_left.png"" class=""coveredImage test"" style = ""width:100px; height:100px;position:fixed; top:25%;        transform: translate(-50%, -50%);left:58%""></img><img src=""media/f.png""style = ""width:30px x; height:30px;position:fixed; top:43%;    transform: translate(-50%, -50%);left:40%""></img><img src=""media/j.png""style = ""width:30px; height:30px;position:fixed; top:43%;    transform: translate(-50%, -50%);left:60%""></img>","media/stimuli/inanimate_003_right.png","inanimate","right","single","media/stimuli/inanimate_003_right.png","inanimate","right","pair","media/stimuli/inanimate_003_left.png","inanimate","left","single","number_pose","","","",""
"","","","","","html-keyboard-response","9","66868","0.0-9.0","SS1678233172398","5e27727328b7b698b037ee6c","6406d7f26dd5b7fc1e3377bd","6407ce4b5b075dbc28df5db9","1536","711","","6925","","j","","","<img src=""media/stimuli/animate_007_right.png"" class=""coveredImage test"" style = ""width:100px; height:100px; position:fixed; top:10%;    transform: translate(-50%, -50%);left:48%""></img><img src=""media/stimuli/animate_001_right.png"" class=""coveredImage test"" style = ""width:100px; height:100px;position:fixed; top:25%;        transform: translate(-50%, -50%);left:38%""></img><img src=""media/stimuli/animate_007_right.png"" class=""coveredImage test"" style = ""width:100px; height:100px;position:fixed; top:25%;        transform: translate(-50%, -50%);left:58%""></img><img src=""media/f.png""style = ""width:30px x; height:30px;position:fixed; top:43%;    transform: translate(-50%, -50%);left:40%""></img><img src=""media/j.png""style = ""width:30px; height:30px;position:fixed; top:43%;    transform: translate(-50%, -50%);left:60%""></img>","media/stimuli/animate_007_right.png","animate","right","single","media/stimuli/animate_001_right.png","animate","right","single","media/stimuli/animate_007_right.png","animate","right","single","identity_filler","","","",""
"","","","","","html-keyboard-response","10","68751","0.0-10.0","SS1678233172398","5e27727328b7b698b037ee6c","6406d7f26dd5b7fc1e3377bd","6407ce4b5b075dbc28df5db9","1536","711","","1881","","f","","","<img src=""media/stimuli/inanimate_006_right.png"" class=""coveredImage test"" style = ""width:100px; height:100px; position:fixed; top:10%;    transform: translate(-50%, -50%);left:44.5%""></img><img src=""media/stimuli/inanimate_006_right.png"" class=""coveredImage test"" style = ""width:100px; height:100px; position:fixed; top:10%;    transform: translate(-50%, -50%);left:51.5%""></img><img src=""media/stimuli/inanimate_006_right.png"" class=""coveredImage test"" style = ""width:100px; height:100px;position:fixed; top:25%;        transform: translate(-50%, -50%);left:38%""></img><img src=""media/stimuli/inanimate_006_left.png"" class=""coveredImage test"" style = ""width:100px; height:100px;position:fixed; top:25%;        transform: translate(-50%, -50%);left:54.5%""></img><img src=""media/stimuli/inanimate_006_left.png"" class=""coveredImage test"" style = ""width:100px; height:100px;position:fixed; top:25%;        transform: translate(-50%, -50%);left:61.5%""></img><img src=""media/f.png""style = ""width:30px x; height:30px;position:fixed; top:43%;    transform: translate(-50%, -50%);left:40%""></img><img src=""media/j.png""style = ""width:30px; height:30px;position:fixed; top:43%;    transform: translate(-50%, -50%);left:60%""></img>","media/stimuli/inanimate_006_right.png","inanimate","right","pair","media/stimuli/inanimate_006_right.png","inanimate","right","single","media/stimuli/inanimate_006_left.png","inanimate","left","pair","number_pose","","","",""
"","","","","","html-keyboard-response","11","69530","0.0-11.0","SS1678233172398","5e27727328b7b698b037ee6c","6406d7f26dd5b7fc1e3377bd","6407ce4b5b075dbc28df5db9","1536","711","","777","","f","","","<img src=""media/stimuli/inanimate_009_left.png"" class=""coveredImage test"" style = ""width:100px; height:100px; position:fixed; top:10%;    transform: translate(-50%, -50%);left:48%""></img><img src=""media/stimuli/inanimate_009_right.png"" class=""coveredImage test"" style = ""width:100px; height:100px;position:fixed; top:25%;        transform: translate(-50%, -50%);left:38%""></img><img src=""media/stimuli/inanimate_001_left.png"" class=""coveredImage test"" style = ""width:100px; height:100px;position:fixed; top:25%;        transform: translate(-50%, -50%);left:58%""></img><img src=""media/f.png""style = ""width:30px x; height:30px;position:fixed; top:43%;    transform: translate(-50%, -50%);left:40%""></img><img src=""media/j.png""style = ""width:30px; height:30px;position:fixed; top:43%;    transform: translate(-50%, -50%);left:60%""></img>","media/stimuli/inanimate_009_left.png","inanimate","left","single","media/stimuli/inanimate_009_right.png","inanimate","right","single","media/stimuli/inanimate_001_left.png","inanimate","left","single","pose_identity","","","",""
"","","","","","html-keyboard-response","12","70469","0.0-12.0","SS1678233172398","5e27727328b7b698b037ee6c","6406d7f26dd5b7fc1e3377bd","6407ce4b5b075dbc28df5db9","1536","711","","937","","f","","","<img src=""media/stimuli/animate_008_right.png"" class=""coveredImage test"" style = ""width:100px; height:100px; position:fixed; top:10%;    transform: translate(-50%, -50%);left:48%""></img><img src=""media/stimuli/animate_008_left.png"" class=""coveredImage test"" style = ""width:100px; height:100px;position:fixed; top:25%;        transform: translate(-50%, -50%);left:38%""></img><img src=""media/stimuli/animate_004_right.png"" class=""coveredImage test"" style = ""width:100px; height:100px;position:fixed; top:25%;        transform: translate(-50%, -50%);left:58%""></img><img src=""media/f.png""style = ""width:30px x; height:30px;position:fixed; top:43%;    transform: translate(-50%, -50%);left:40%""></img><img src=""media/j.png""style = ""width:30px; height:30px;position:fixed; top:43%;    transform: translate(-50%, -50%);left:60%""></img>","media/stimuli/animate_008_right.png","animate","right","single","media/stimuli/animate_008_left.png","animate","left","single","media/stimuli/animate_004_right.png","animate","right","single","pose_identity","","","",""
"","","","","","html-keyboard-response","13","71063","0.0-13.0","SS1678233172398","5e27727328b7b698b037ee6c","6406d7f26dd5b7fc1e3377bd","6407ce4b5b075dbc28df5db9","1536","711","","592","","f","","","<img src=""media/stimuli/inanimate_005_left.png"" class=""coveredImage test"" style = ""width:100px; height:100px; position:fixed; top:10%;    transform: translate(-50%, -50%);left:48%""></img><img src=""media/stimuli/inanimate_005_left.png"" class=""coveredImage test"" style = ""width:100px; height:100px;position:fixed; top:25%;        transform: translate(-50%, -50%);left:34.5%""></img><img src=""media/stimuli/inanimate_005_left.png"" class=""coveredImage test"" style = ""width:100px; height:100px;position:fixed; top:25%;        transform: translate(-50%, -50%);left:41.5%""></img><img src=""media/stimuli/animate_001_left.png"" class=""coveredImage test"" style = ""width:100px; height:100px;position:fixed; top:25%;        transform: translate(-50%, -50%);left:58%""></img><img src=""media/f.png""style = ""width:30px x; height:30px;position:fixed; top:43%;    transform: translate(-50%, -50%);left:40%""></img><img src=""media/j.png""style = ""width:30px; height:30px;position:fixed; top:43%;    transform: translate(-50%, -50%);left:60%""></img>","media/stimuli/inanimate_005_left.png","inanimate","left","single","media/stimuli/inanimate_005_left.png","inanimate","left","pair","media/stimuli/animate_001_left.png","animate","left","single","number_animacy","","","",""
"","","","","","html-keyboard-response","14","71852","0.0-14.0","SS1678233172398","5e27727328b7b698b037ee6c","6406d7f26dd5b7fc1e3377bd","6407ce4b5b075dbc28df5db9","1536","711","","787","","j","","","<img src=""media/stimuli/inanimate_006_right.png"" class=""coveredImage test"" style = ""width:100px; height:100px; position:fixed; top:10%;    transform: translate(-50%, -50%);left:44.5%""></img><img src=""media/stimuli/inanimate_006_right.png"" class=""coveredImage test"" style = ""width:100px; height:100px; position:fixed; top:10%;    transform: translate(-50%, -50%);left:51.5%""></img><img src=""media/stimuli/animate_006_right.png"" class=""coveredImage test"" style = ""width:100px; height:100px;position:fixed; top:25%;        transform: translate(-50%, -50%);left:34.5%""></img><img src=""media/stimuli/animate_006_right.png"" class=""coveredImage test"" style = ""width:100px; height:100px;position:fixed; top:25%;        transform: translate(-50%, -50%);left:41.5%""></img><img src=""media/stimuli/inanimate_006_right.png"" class=""coveredImage test"" style = ""width:100px; height:100px;position:fixed; top:25%;        transform: translate(-50%, -50%);left:58%""></img><img src=""media/f.png""style = ""width:30px x; height:30px;position:fixed; top:43%;    transform: translate(-50%, -50%);left:40%""></img><img src=""media/j.png""style = ""width:30px; height:30px;position:fixed; top:43%;    transform: translate(-50%, -50%);left:60%""></img>","media/stimuli/inanimate_006_right.png","inanimate","right","pair","media/stimuli/animate_006_right.png","animate","right","pair","media/stimuli/inanimate_006_right.png","inanimate","right","single","animacy_number","","","",""
"","","","","","html-keyboard-response","15","73142","0.0-15.0","SS1678233172398","5e27727328b7b698b037ee6c","6406d7f26dd5b7fc1e3377bd","6407ce4b5b075dbc28df5db9","1536","711","","1285","","f","","","<img src=""media/stimuli/animate_002_right.png"" class=""coveredImage test"" style = ""width:100px; height:100px; position:fixed; top:10%;    transform: translate(-50%, -50%);left:48%""></img><img src=""media/stimuli/animate_002_right.png"" class=""coveredImage test"" style = ""width:100px; height:100px;position:fixed; top:25%;        transform: translate(-50%, -50%);left:34.5%""></img><img src=""media/stimuli/animate_002_right.png"" class=""coveredImage test"" style = ""width:100px; height:100px;position:fixed; top:25%;        transform: translate(-50%, -50%);left:41.5%""></img><img src=""media/stimuli/animate_002_left.png"" class=""coveredImage test"" style = ""width:100px; height:100px;position:fixed; top:25%;        transform: translate(-50%, -50%);left:58%""></img><img src=""media/f.png""style = ""width:30px x; height:30px;position:fixed; top:43%;    transform: translate(-50%, -50%);left:40%""></img><img src=""media/j.png""style = ""width:30px; height:30px;position:fixed; top:43%;    transform: translate(-50%, -50%);left:60%""></img>","media/stimuli/animate_002_right.png","animate","right","single","media/stimuli/animate_002_right.png","animate","right","pair","media/stimuli/animate_002_left.png","animate","left","single","number_pose","","","",""
"","","","","","html-keyboard-response","16","74152","0.0-16.0","SS1678233172398","5e27727328b7b698b037ee6c","6406d7f26dd5b7fc1e3377bd","6407ce4b5b075dbc28df5db9","1536","711","","1005","","j","","","<img src=""media/stimuli/animate_011_right.png"" class=""coveredImage test"" style = ""width:100px; height:100px; position:fixed; top:10%;    transform: translate(-50%, -50%);left:44.5%""></img><img src=""media/stimuli/animate_011_right.png"" class=""coveredImage test"" style = ""width:100px; height:100px; position:fixed; top:10%;    transform: translate(-50%, -50%);left:51.5%""></img><img src=""media/stimuli/animate_006_right.png"" class=""coveredImage test"" style = ""width:100px; height:100px;position:fixed; top:25%;        transform: translate(-50%, -50%);left:34.5%""></img><img src=""media/stimuli/animate_006_right.png"" class=""coveredImage test"" style = ""width:100px; height:100px;position:fixed; top:25%;        transform: translate(-50%, -50%);left:41.5%""></img><img src=""media/stimuli/animate_011_right.png"" class=""coveredImage test"" style = ""width:100px; height:100px;position:fixed; top:25%;        transform: translate(-50%, -50%);left:58%""></img><img src=""media/f.png""style = ""width:30px x; height:30px;position:fixed; top:43%;    transform: translate(-50%, -50%);left:40%""></img><img src=""media/j.png""style = ""width:30px; height:30px;position:fixed; top:43%;    transform: translate(-50%, -50%);left:60%""></img>","media/stimuli/animate_011_right.png","animate","right","pair","media/stimuli/animate_006_right.png","animate","right","pair","media/stimuli/animate_011_right.png","animate","right","single","identity_number","","","",""
"","","","","","html-keyboard-response","17","78136","0.0-17.0","SS1678233172398","5e27727328b7b698b037ee6c","6406d7f26dd5b7fc1e3377bd","6407ce4b5b075dbc28df5db9","1536","711","","3981","","f","","","<img src=""media/stimuli/animate_007_right.png"" class=""coveredImage test"" style = ""width:100px; height:100px; position:fixed; top:10%;    transform: translate(-50%, -50%);left:44.5%""></img><img src=""media/stimuli/animate_007_right.png"" class=""coveredImage test"" style = ""width:100px; height:100px; position:fixed; top:10%;    transform: translate(-50%, -50%);left:51.5%""></img><img src=""media/stimuli/animate_007_right.png"" class=""coveredImage test"" style = ""width:100px; height:100px;position:fixed; top:25%;        transform: translate(-50%, -50%);left:38%""></img><img src=""media/stimuli/animate_007_left.png"" class=""coveredImage test"" style = ""width:100px; height:100px;position:fixed; top:25%;        transform: translate(-50%, -50%);left:54.5%""></img><img src=""media/stimuli/animate_007_left.png"" class=""coveredImage test"" style = ""width:100px; height:100px;position:fixed; top:25%;        transform: translate(-50%, -50%);left:61.5%""></img><img src=""media/f.png""style = ""width:30px x; height:30px;position:fixed; top:43%;    transform: translate(-50%, -50%);left:40%""></img><img src=""media/j.png""style = ""width:30px; height:30px;position:fixed; top:43%;    transform: translate(-50%, -50%);left:60%""></img>","media/stimuli/animate_007_right.png","animate","right","pair","media/stimuli/animate_007_right.png","animate","right","single","media/stimuli/animate_007_left.png","animate","left","pair","number_pose","","","",""
"","","","","","html-keyboard-response","18","79024","0.0-18.0","SS1678233172398","5e27727328b7b698b037ee6c","6406d7f26dd5b7fc1e3377bd","6407ce4b5b075dbc28df5db9","1536","711","","886","","j","","","<img src=""media/stimuli/inanimate_007_left.png"" class=""coveredImage test"" style = ""width:100px; height:100px; position:fixed; top:10%;    transform: translate(-50%, -50%);left:48%""></img><img src=""media/stimuli/inanimate_001_left.png"" class=""coveredImage test"" style = ""width:100px; height:100px;position:fixed; top:25%;        transform: translate(-50%, -50%);left:38%""></img><img src=""media/stimuli/inanimate_007_left.png"" class=""coveredImage test"" style = ""width:100px; height:100px;position:fixed; top:25%;        transform: translate(-50%, -50%);left:54.5%""></img><img src=""media/stimuli/inanimate_007_left.png"" class=""coveredImage test"" style = ""width:100px; height:100px;position:fixed; top:25%;        transform: translate(-50%, -50%);left:61.5%""></img><img src=""media/f.png""style = ""width:30px x; height:30px;position:fixed; top:43%;    transform: translate(-50%, -50%);left:40%""></img><img src=""media/j.png""style = ""width:30px; height:30px;position:fixed; top:43%;    transform: translate(-50%, -50%);left:60%""></img>","media/stimuli/inanimate_007_left.png","inanimate","left","single","media/stimuli/inanimate_001_left.png","inanimate","left","single","media/stimuli/inanimate_007_left.png","inanimate","left","pair","identity_number","","","",""
"","","","","","html-keyboard-response","19","80227","0.0-19.0","SS1678233172398","5e27727328b7b698b037ee6c","6406d7f26dd5b7fc1e3377bd","6407ce4b5b075dbc28df5db9","1536","711","","1200","","j","","","<img src=""media/stimuli/animate_004_right.png"" class=""coveredImage test"" style = ""width:100px; height:100px; position:fixed; top:10%;    transform: translate(-50%, -50%);left:44.5%""></img><img src=""media/stimuli/animate_004_right.png"" class=""coveredImage test"" style = ""width:100px; height:100px; position:fixed; top:10%;    transform: translate(-50%, -50%);left:51.5%""></img><img src=""media/stimuli/inanimate_008_left.png"" class=""coveredImage test"" style = ""width:100px; height:100px;position:fixed; top:25%;        transform: translate(-50%, -50%);left:34.5%""></img><img src=""media/stimuli/inanimate_008_left.png"" class=""coveredImage test"" style = ""width:100px; height:100px;position:fixed; top:25%;        transform: translate(-50%, -50%);left:41.5%""></img><img src=""media/stimuli/animate_004_right.png"" class=""coveredImage test"" style = ""width:100px; height:100px;position:fixed; top:25%;        transform: translate(-50%, -50%);left:54.5%""></img><img src=""media/stimuli/animate_004_right.png"" class=""coveredImage test"" style = ""width:100px; height:100px;position:fixed; top:25%;        transform: translate(-50%, -50%);left:61.5%""></img><img src=""media/f.png""style = ""width:30px x; height:30px;position:fixed; top:43%;    transform: translate(-50%, -50%);left:40%""></img><img src=""media/j.png""style = ""width:30px; height:30px;position:fixed; top:43%;    transform: translate(-50%, -50%);left:60%""></img>","media/stimuli/animate_004_right.png","animate","right","pair","media/stimuli/inanimate_008_left.png","inanimate","left","pair","media/stimuli/animate_004_right.png","animate","right","pair","animacy_pose","","","",""
"","","","","","html-keyboard-response","20","82166","0.0-20.0","SS1678233172398","5e27727328b7b698b037ee6c","6406d7f26dd5b7fc1e3377bd","6407ce4b5b075dbc28df5db9","1536","711","","1934",""," ","","","","","","","","","","","","","","","","","","","",""
"","","","","","html-keyboard-response","21","84536","0.0-21.0","SS1678233172398","5e27727328b7b698b037ee6c","6406d7f26dd5b7fc1e3377bd","6407ce4b5b075dbc28df5db9","1536","711","","2369","","j","","","<img src=""media/stimuli/inanimate_003_left.png"" class=""coveredImage test"" style = ""width:100px; height:100px; position:fixed; top:10%;    transform: translate(-50%, -50%);left:44.5%""></img><img src=""media/stimuli/inanimate_003_left.png"" class=""coveredImage test"" style = ""width:100px; height:100px; position:fixed; top:10%;    transform: translate(-50%, -50%);left:51.5%""></img><img src=""media/stimuli/animate_011_left.png"" class=""coveredImage test"" style = ""width:100px; height:100px;position:fixed; top:25%;        transform: translate(-50%, -50%);left:34.5%""></img><img src=""media/stimuli/animate_011_left.png"" class=""coveredImage test"" style = ""width:100px; height:100px;position:fixed; top:25%;        transform: translate(-50%, -50%);left:41.5%""></img><img src=""media/stimuli/inanimate_008_left.png"" class=""coveredImage test"" style = ""width:100px; height:100px;position:fixed; top:25%;        transform: translate(-50%, -50%);left:54.5%""></img><img src=""media/stimuli/inanimate_008_left.png"" class=""coveredImage test"" style = ""width:100px; height:100px;position:fixed; top:25%;        transform: translate(-50%, -50%);left:61.5%""></img><img src=""media/f.png""style = ""width:30px x; height:30px;position:fixed; top:43%;    transform: translate(-50%, -50%);left:40%""></img><img src=""media/j.png""style = ""width:30px; height:30px;position:fixed; top:43%;    transform: translate(-50%, -50%);left:60%""></img>","media/stimuli/inanimate_003_left.png","inanimate","left","pair","media/stimuli/animate_011_left.png","animate","left","pair","media/stimuli/inanimate_008_left.png","inanimate","left","pair","animacy_identity","","","",""
"","","","","","html-keyboard-response","22","85475","0.0-22.0","SS1678233172398","5e27727328b7b698b037ee6c","6406d7f26dd5b7fc1e3377bd","6407ce4b5b075dbc28df5db9","1536","711","","938","","j","","","<img src=""media/stimuli/inanimate_004_left.png"" class=""coveredImage test"" style = ""width:100px; height:100px; position:fixed; top:10%;    transform: translate(-50%, -50%);left:44.5%""></img><img src=""media/stimuli/inanimate_004_left.png"" class=""coveredImage test"" style = ""width:100px; height:100px; position:fixed; top:10%;    transform: translate(-50%, -50%);left:51.5%""></img><img src=""media/stimuli/animate_012_left.png"" class=""coveredImage test"" style = ""width:100px; height:100px;position:fixed; top:25%;        transform: translate(-50%, -50%);left:34.5%""></img><img src=""media/stimuli/animate_012_left.png"" class=""coveredImage test"" style = ""width:100px; height:100px;position:fixed; top:25%;        transform: translate(-50%, -50%);left:41.5%""></img><img src=""media/stimuli/inanimate_002_left.png"" class=""coveredImage test"" style = ""width:100px; height:100px;position:fixed; top:25%;        transform: translate(-50%, -50%);left:54.5%""></img><img src=""media/stimuli/inanimate_002_left.png"" class=""coveredImage test"" style = ""width:100px; height:100px;position:fixed; top:25%;        transform: translate(-50%, -50%);left:61.5%""></img><img src=""media/f.png""style = ""width:30px x; height:30px;position:fixed; top:43%;    transform: translate(-50%, -50%);left:40%""></img><img src=""media/j.png""style = ""width:30px; height:30px;position:fixed; top:43%;    transform: translate(-50%, -50%);left:60%""></img>","media/stimuli/inanimate_004_left.png","inanimate","left","pair","media/stimuli/animate_012_left.png","animate","left","pair","media/stimuli/inanimate_002_left.png","inanimate","left","pair","animacy_identity","","","",""
"","","","","","html-keyboard-response","23","86183","0.0-23.0","SS1678233172398","5e27727328b7b698b037ee6c","6406d7f26dd5b7fc1e3377bd","6407ce4b5b075dbc28df5db9","1536","711","","704","","f","","","<img src=""media/stimuli/inanimate_010_right.png"" class=""coveredImage test"" style = ""width:100px; height:100px; position:fixed; top:10%;    transform: translate(-50%, -50%);left:44.5%""></img><img src=""media/stimuli/inanimate_010_right.png"" class=""coveredImage test"" style = ""width:100px; height:100px; position:fixed; top:10%;    transform: translate(-50%, -50%);left:51.5%""></img><img src=""media/stimuli/inanimate_010_left.png"" class=""coveredImage test"" style = ""width:100px; height:100px;position:fixed; top:25%;        transform: translate(-50%, -50%);left:34.5%""></img><img src=""media/stimuli/inanimate_010_left.png"" class=""coveredImage test"" style = ""width:100px; height:100px;position:fixed; top:25%;        transform: translate(-50%, -50%);left:41.5%""></img><img src=""media/stimuli/inanimate_002_right.png"" class=""coveredImage test"" style = ""width:100px; height:100px;position:fixed; top:25%;        transform: translate(-50%, -50%);left:54.5%""></img><img src=""media/stimuli/inanimate_002_right.png"" class=""coveredImage test"" style = ""width:100px; height:100px;position:fixed; top:25%;        transform: translate(-50%, -50%);left:61.5%""></img><img src=""media/f.png""style = ""width:30px x; height:30px;position:fixed; top:43%;    transform: translate(-50%, -50%);left:40%""></img><img src=""media/j.png""style = ""width:30px; height:30px;position:fixed; top:43%;    transform: translate(-50%, -50%);left:60%""></img>","media/stimuli/inanimate_010_right.png","inanimate","right","pair","media/stimuli/inanimate_010_left.png","inanimate","left","pair","media/stimuli/inanimate_002_right.png","inanimate","right","pair","pose_identity","","","",""
"","","","","","html-keyboard-response","24","86967","0.0-24.0","SS1678233172398","5e27727328b7b698b037ee6c","6406d7f26dd5b7fc1e3377bd","6407ce4b5b075dbc28df5db9","1536","711","","782","","f","","","<img src=""media/stimuli/animate_008_left.png"" class=""coveredImage test"" style = ""width:100px; height:100px; position:fixed; top:10%;    transform: translate(-50%, -50%);left:44.5%""></img><img src=""media/stimuli/animate_008_left.png"" class=""coveredImage test"" style = ""width:100px; height:100px; position:fixed; top:10%;    transform: translate(-50%, -50%);left:51.5%""></img><img src=""media/stimuli/animate_008_left.png"" class=""coveredImage test"" style = ""width:100px; height:100px;position:fixed; top:25%;        transform: translate(-50%, -50%);left:38%""></img><img src=""media/stimuli/inanimate_008_right.png"" class=""coveredImage test"" style = ""width:100px; height:100px;position:fixed; top:25%;        transform: translate(-50%, -50%);left:58%""></img><img src=""media/f.png""style = ""width:30px x; height:30px;position:fixed; top:43%;    transform: translate(-50%, -50%);left:40%""></img><img src=""media/j.png""style = ""width:30px; height:30px;position:fixed; top:43%;    transform: translate(-50%, -50%);left:60%""></img>","media/stimuli/animate_008_left.png","animate","left","pair","media/stimuli/animate_008_left.png","animate","left","single","media/stimuli/inanimate_008_right.png","inanimate","right","single","pose_animacy","","","",""
"","","","","","html-keyboard-response","25","87924","0.0-25.0","SS1678233172398","5e27727328b7b698b037ee6c","6406d7f26dd5b7fc1e3377bd","6407ce4b5b075dbc28df5db9","1536","711","","954","","j","","","<img src=""media/stimuli/inanimate_011_left.png"" class=""coveredImage test"" style = ""width:100px; height:100px; position:fixed; top:10%;    transform: translate(-50%, -50%);left:48%""></img><img src=""media/stimuli/inanimate_011_right.png"" class=""coveredImage test"" style = ""width:100px; height:100px;position:fixed; top:25%;        transform: translate(-50%, -50%);left:38%""></img><img src=""media/stimuli/inanimate_011_left.png"" class=""coveredImage test"" style = ""width:100px; height:100px;position:fixed; top:25%;        transform: translate(-50%, -50%);left:54.5%""></img><img src=""media/stimuli/inanimate_011_left.png"" class=""coveredImage test"" style = ""width:100px; height:100px;position:fixed; top:25%;        transform: translate(-50%, -50%);left:61.5%""></img><img src=""media/f.png""style = ""width:30px x; height:30px;position:fixed; top:43%;    transform: translate(-50%, -50%);left:40%""></img><img src=""media/j.png""style = ""width:30px; height:30px;position:fixed; top:43%;    transform: translate(-50%, -50%);left:60%""></img>","media/stimuli/inanimate_011_left.png","inanimate","left","single","media/stimuli/inanimate_011_right.png","inanimate","right","single","media/stimuli/inanimate_011_left.png","inanimate","left","pair","pose_number","","","",""
"","","","","","html-keyboard-response","26","89615","0.0-26.0","SS1678233172398","5e27727328b7b698b037ee6c","6406d7f26dd5b7fc1e3377bd","6407ce4b5b075dbc28df5db9","1536","711","","1689","","j","","","<img src=""media/stimuli/inanimate_005_left.png"" class=""coveredImage test"" style = ""width:100px; height:100px; position:fixed; top:10%;    transform: translate(-50%, -50%);left:44.5%""></img><img src=""media/stimuli/inanimate_005_left.png"" class=""coveredImage test"" style = ""width:100px; height:100px; position:fixed; top:10%;    transform: translate(-50%, -50%);left:51.5%""></img><img src=""media/stimuli/inanimate_005_left.png"" class=""coveredImage test"" style = ""width:100px; height:100px;position:fixed; top:25%;        transform: translate(-50%, -50%);left:38%""></img><img src=""media/stimuli/inanimate_005_right.png"" class=""coveredImage test"" style = ""width:100px; height:100px;position:fixed; top:25%;        transform: translate(-50%, -50%);left:54.5%""></img><img src=""media/stimuli/inanimate_005_right.png"" class=""coveredImage test"" style = ""width:100px; height:100px;position:fixed; top:25%;        transform: translate(-50%, -50%);left:61.5%""></img><img src=""media/f.png""style = ""width:30px x; height:30px;position:fixed; top:43%;    transform: translate(-50%, -50%);left:40%""></img><img src=""media/j.png""style = ""width:30px; height:30px;position:fixed; top:43%;    transform: translate(-50%, -50%);left:60%""></img>","media/stimuli/inanimate_005_left.png","inanimate","left","pair","media/stimuli/inanimate_005_left.png","inanimate","left","single","media/stimuli/inanimate_005_right.png","inanimate","right","pair","number_pose","","","",""
"","","","","","html-keyboard-response","27","90673","0.0-27.0","SS1678233172398","5e27727328b7b698b037ee6c","6406d7f26dd5b7fc1e3377bd","6407ce4b5b075dbc28df5db9","1536","711","","1055","","f","","","<img src=""media/stimuli/inanimate_007_right.png"" class=""coveredImage test"" style = ""width:100px; height:100px; position:fixed; top:10%;    transform: translate(-50%, -50%);left:48%""></img><img src=""media/stimuli/inanimate_007_left.png"" class=""coveredImage test"" style = ""width:100px; height:100px;position:fixed; top:25%;        transform: translate(-50%, -50%);left:38%""></img><img src=""media/stimuli/inanimate_011_right.png"" class=""coveredImage test"" style = ""width:100px; height:100px;position:fixed; top:25%;        transform: translate(-50%, -50%);left:58%""></img><img src=""media/f.png""style = ""width:30px x; height:30px;position:fixed; top:43%;    transform: translate(-50%, -50%);left:40%""></img><img src=""media/j.png""style = ""width:30px; height:30px;position:fixed; top:43%;    transform: translate(-50%, -50%);left:60%""></img>","media/stimuli/inanimate_007_right.png","inanimate","right","single","media/stimuli/inanimate_007_left.png","inanimate","left","single","media/stimuli/inanimate_011_right.png","inanimate","right","single","pose_identity","","","",""
"","","","","","html-keyboard-response","28","91659","0.0-28.0","SS1678233172398","5e27727328b7b698b037ee6c","6406d7f26dd5b7fc1e3377bd","6407ce4b5b075dbc28df5db9","1536","711","","984","","j","","","<img src=""media/stimuli/animate_012_right.png"" class=""coveredImage test"" style = ""width:100px; height:100px; position:fixed; top:10%;    transform: translate(-50%, -50%);left:44.5%""></img><img src=""media/stimuli/animate_012_right.png"" class=""coveredImage test"" style = ""width:100px; height:100px; position:fixed; top:10%;    transform: translate(-50%, -50%);left:51.5%""></img><img src=""media/stimuli/animate_003_right.png"" class=""coveredImage test"" style = ""width:100px; height:100px;position:fixed; top:25%;        transform: translate(-50%, -50%);left:34.5%""></img><img src=""media/stimuli/animate_003_right.png"" class=""coveredImage test"" style = ""width:100px; height:100px;position:fixed; top:25%;        transform: translate(-50%, -50%);left:41.5%""></img><img src=""media/stimuli/animate_012_left.png"" class=""coveredImage test"" style = ""width:100px; height:100px;position:fixed; top:25%;        transform: translate(-50%, -50%);left:54.5%""></img><img src=""media/stimuli/animate_012_left.png"" class=""coveredImage test"" style = ""width:100px; height:100px;position:fixed; top:25%;        transform: translate(-50%, -50%);left:61.5%""></img><img src=""media/f.png""style = ""width:30px x; height:30px;position:fixed; top:43%;    transform: translate(-50%, -50%);left:40%""></img><img src=""media/j.png""style = ""width:30px; height:30px;position:fixed; top:43%;    transform: translate(-50%, -50%);left:60%""></img>","media/stimuli/animate_012_right.png","animate","right","pair","media/stimuli/animate_003_right.png","animate","right","pair","media/stimuli/animate_012_left.png","animate","left","pair","identity_pose","","","",""
"","","","","","html-keyboard-response","29","93398","0.0-29.0","SS1678233172398","5e27727328b7b698b037ee6c","6406d7f26dd5b7fc1e3377bd","6407ce4b5b075dbc28df5db9","1536","711","","1735","","f","","","<img src=""media/stimuli/animate_012_left.png"" class=""coveredImage test"" style = ""width:100px; height:100px; position:fixed; top:10%;    transform: translate(-50%, -50%);left:44.5%""></img><img src=""media/stimuli/animate_012_left.png"" class=""coveredImage test"" style = ""width:100px; height:100px; position:fixed; top:10%;    transform: translate(-50%, -50%);left:51.5%""></img><img src=""media/stimuli/animate_012_left.png"" class=""coveredImage test"" style = ""width:100px; height:100px;position:fixed; top:25%;        transform: translate(-50%, -50%);left:38%""></img><img src=""media/stimuli/animate_012_right.png"" class=""coveredImage test"" style = ""width:100px; height:100px;position:fixed; top:25%;        transform: translate(-50%, -50%);left:54.5%""></img><img src=""media/stimuli/animate_012_right.png"" class=""coveredImage test"" style = ""width:100px; height:100px;position:fixed; top:25%;        transform: translate(-50%, -50%);left:61.5%""></img><img src=""media/f.png""style = ""width:30px x; height:30px;position:fixed; top:43%;    transform: translate(-50%, -50%);left:40%""></img><img src=""media/j.png""style = ""width:30px; height:30px;position:fixed; top:43%;    transform: translate(-50%, -50%);left:60%""></img>","media/stimuli/animate_012_left.png","animate","left","pair","media/stimuli/animate_012_left.png","animate","left","single","media/stimuli/animate_012_right.png","animate","right","pair","number_pose","","","",""
"","","","","","html-keyboard-response","30","96043","0.0-30.0","SS1678233172398","5e27727328b7b698b037ee6c","6406d7f26dd5b7fc1e3377bd","6407ce4b5b075dbc28df5db9","1536","711","","2645","","j","","","<img src=""media/stimuli/animate_001_right.png"" class=""coveredImage test"" style = ""width:100px; height:100px; position:fixed; top:10%;    transform: translate(-50%, -50%);left:44.5%""></img><img src=""media/stimuli/animate_001_right.png"" class=""coveredImage test"" style = ""width:100px; height:100px; position:fixed; top:10%;    transform: translate(-50%, -50%);left:51.5%""></img><img src=""media/stimuli/inanimate_005_right.png"" class=""coveredImage test"" style = ""width:100px; height:100px;position:fixed; top:25%;        transform: translate(-50%, -50%);left:38%""></img><img src=""media/stimuli/animate_001_left.png"" class=""coveredImage test"" style = ""width:100px; height:100px;position:fixed; top:25%;        transform: translate(-50%, -50%);left:58%""></img><img src=""media/f.png""style = ""width:30px x; height:30px;position:fixed; top:43%;    transform: translate(-50%, -50%);left:40%""></img><img src=""media/j.png""style = ""width:30px; height:30px;position:fixed; top:43%;    transform: translate(-50%, -50%);left:60%""></img>","media/stimuli/animate_001_right.png","animate","right","pair","media/stimuli/inanimate_005_right.png","inanimate","right","single","media/stimuli/animate_001_left.png","animate","left","single","animacy_pose","","","",""
"","","","","","html-keyboard-response","31","96743","0.0-31.0","SS1678233172398","5e27727328b7b698b037ee6c","6406d7f26dd5b7fc1e3377bd","6407ce4b5b075dbc28df5db9","1536","711","","698","","f","","","<img src=""media/stimuli/inanimate_005_left.png"" class=""coveredImage test"" style = ""width:100px; height:100px; position:fixed; top:10%;    transform: translate(-50%, -50%);left:48%""></img><img src=""media/stimuli/inanimate_005_left.png"" class=""coveredImage test"" style = ""width:100px; height:100px;position:fixed; top:25%;        transform: translate(-50%, -50%);left:34.5%""></img><img src=""media/stimuli/inanimate_005_left.png"" class=""coveredImage test"" style = ""width:100px; height:100px;position:fixed; top:25%;        transform: translate(-50%, -50%);left:41.5%""></img><img src=""media/stimuli/animate_003_left.png"" class=""coveredImage test"" style = ""width:100px; height:100px;position:fixed; top:25%;        transform: translate(-50%, -50%);left:58%""></img><img src=""media/f.png""style = ""width:30px x; height:30px;position:fixed; top:43%;    transform: translate(-50%, -50%);left:40%""></img><img src=""media/j.png""style = ""width:30px; height:30px;position:fixed; top:43%;    transform: translate(-50%, -50%);left:60%""></img>","media/stimuli/inanimate_005_left.png","inanimate","left","single","media/stimuli/inanimate_005_left.png","inanimate","left","pair","media/stimuli/animate_003_left.png","animate","left","single","number_animacy","","","",""
"","","","","","html-keyboard-response","32","97416","0.0-32.0","SS1678233172398","5e27727328b7b698b037ee6c","6406d7f26dd5b7fc1e3377bd","6407ce4b5b075dbc28df5db9","1536","711","","670","","f","","","<img src=""media/stimuli/inanimate_002_right.png"" class=""coveredImage test"" style = ""width:100px; height:100px; position:fixed; top:10%;    transform: translate(-50%, -50%);left:48%""></img><img src=""media/stimuli/inanimate_002_left.png"" class=""coveredImage test"" style = ""width:100px; height:100px;position:fixed; top:25%;        transform: translate(-50%, -50%);left:38%""></img><img src=""media/stimuli/animate_005_right.png"" class=""coveredImage test"" style = ""width:100px; height:100px;position:fixed; top:25%;        transform: translate(-50%, -50%);left:58%""></img><img src=""media/f.png""style = ""width:30px x; height:30px;position:fixed; top:43%;    transform: translate(-50%, -50%);left:40%""></img><img src=""media/j.png""style = ""width:30px; height:30px;position:fixed; top:43%;    transform: translate(-50%, -50%);left:60%""></img>","media/stimuli/inanimate_002_right.png","inanimate","right","single","media/stimuli/inanimate_002_left.png","inanimate","left","single","media/stimuli/animate_005_right.png","animate","right","single","pose_animacy","","","",""
"","","","","","html-keyboard-response","33","98358","0.0-33.0","SS1678233172398","5e27727328b7b698b037ee6c","6406d7f26dd5b7fc1e3377bd","6407ce4b5b075dbc28df5db9","1536","711","","941",""," ","","","","","","","","","","","","","","","","","","","",""
"","","","","","survey-likert","34","102766","0.0-34.0","SS1678233172398","5e27727328b7b698b037ee6c","6406d7f26dd5b7fc1e3377bd","6407ce4b5b075dbc28df5db9","1536","711","","4404","","{""Q0"":3}","[0]","complexity","","","","","","","","","","","","","","","media/stimuli/inanimate_012_left.png","inanimate","pair","left"
"","","","","","survey-likert","35","106287","0.0-35.0","SS1678233172398","5e27727328b7b698b037ee6c","6406d7f26dd5b7fc1e3377bd","6407ce4b5b075dbc28df5db9","1536","711","","3510","","{""Q0"":3}","[0]","complexity","","","","","","","","","","","","","","","media/stimuli/animate_010_right.png","animate","pair","right"
"","","","","","survey-likert","36","108875","0.0-36.0","SS1678233172398","5e27727328b7b698b037ee6c","6406d7f26dd5b7fc1e3377bd","6407ce4b5b075dbc28df5db9","1536","711","","2582","","{""Q0"":1}","[0]","complexity","","","","","","","","","","","","","","","media/stimuli/inanimate_002_right.png","inanimate","pair","right"
"","","","","","survey-likert","37","111201","0.0-37.0","SS1678233172398","5e27727328b7b698b037ee6c","6406d7f26dd5b7fc1e3377bd","6407ce4b5b075dbc28df5db9","1536","711","","2320","","{""Q0"":1}","[0]","complexity","","","","","","","","","","","","","","","media/stimuli/inanimate_007_right.png","inanimate","single","right"
"","","","","","survey-likert","38","113527","0.0-38.0","SS1678233172398","5e27727328b7b698b037ee6c","6406d7f26dd5b7fc1e3377bd","6407ce4b5b075dbc28df5db9","1536","711","","2320","","{""Q0"":4}","[0]","complexity","","","","","","","","","","","","","","","media/stimuli/inanimate_006_left.png","inanimate","pair","left"
"","","","","","survey-likert","39","115605","0.0-39.0","SS1678233172398","5e27727328b7b698b037ee6c","6406d7f26dd5b7fc1e3377bd","6407ce4b5b075dbc28df5db9","1536","711","","2070","","{""Q0"":2}","[0]","complexity","","","","","","","","","","","","","","","media/stimuli/inanimate_002_right.png","inanimate","single","right"
"","","","","","survey-likert","40","117639","0.0-40.0","SS1678233172398","5e27727328b7b698b037ee6c","6406d7f26dd5b7fc1e3377bd","6407ce4b5b075dbc28df5db9","1536","711","","2032","","{""Q0"":3}","[0]","complexity","","","","","","","","","","","","","","","media/stimuli/inanimate_010_left.png","inanimate","pair","left"
"","","","","","survey-likert","41","119741","0.0-41.0","SS1678233172398","5e27727328b7b698b037ee6c","6406d7f26dd5b7fc1e3377bd","6407ce4b5b075dbc28df5db9","1536","711","","2098","","{""Q0"":2}","[0]","complexity","","","","","","","","","","","","","","","media/stimuli/inanimate_009_right.png","inanimate","pair","right"
"","","","","","survey-likert","42","123248","0.0-42.0","SS1678233172398","5e27727328b7b698b037ee6c","6406d7f26dd5b7fc1e3377bd","6407ce4b5b075dbc28df5db9","1536","711","","3501","","{""Q0"":3}","[0]","complexity","","","","","","","","","","","","","","","media/stimuli/animate_002_right.png","animate","pair","right"
"","","","","","survey-likert","43","126129","0.0-43.0","SS1678233172398","5e27727328b7b698b037ee6c","6406d7f26dd5b7fc1e3377bd","6407ce4b5b075dbc28df5db9","1536","711","","2877","","{""Q0"":2}","[0]","complexity","","","","","","","","","","","","","","","media/stimuli/inanimate_009_left.png","inanimate","single","left"
"","","","","","survey-likert","44","128400","0.0-44.0","SS1678233172398","5e27727328b7b698b037ee6c","6406d7f26dd5b7fc1e3377bd","6407ce4b5b075dbc28df5db9","1536","711","","2267","","{""Q0"":4}","[0]","complexity","","","","","","","","","","","","","","","media/stimuli/inanimate_012_right.png","inanimate","pair","right"
"","","","","","survey-likert","45","132210","0.0-45.0","SS1678233172398","5e27727328b7b698b037ee6c","6406d7f26dd5b7fc1e3377bd","6407ce4b5b075dbc28df5db9","1536","711","","3806","","{""Q0"":4}","[0]","complexity","","","","","","","","","","","","","","","media/stimuli/inanimate_010_right.png","inanimate","single","right"
"","","","","","html-keyboard-response","46","134522","0.0-46.0","SS1678233172398","5e27727328b7b698b037ee6c","6406d7f26dd5b7fc1e3377bd","6407ce4b5b075dbc28df5db9","1536","711","","2307","","enter","","","","","","","","","","","","","","","","","","","",""
"","","","","","html-keyboard-response","47","137500","0.0-47.0","SS1678233172398","5e27727328b7b698b037ee6c","6406d7f26dd5b7fc1e3377bd","6407ce4b5b075dbc28df5db9","1536","711","","2976","","f","","","<img src=""media/stimuli/inanimate_008_right.png"" class=""coveredImage test"" style = ""width:100px; height:100px; position:fixed; top:10%;    transform: translate(-50%, -50%);left:44.5%""></img><img src=""media/stimuli/inanimate_008_right.png"" class=""coveredImage test"" style = ""width:100px; height:100px; position:fixed; top:10%;    transform: translate(-50%, -50%);left:51.5%""></img><img src=""media/stimuli/inanimate_007_right.png"" class=""coveredImage test"" style = ""width:100px; height:100px;position:fixed; top:25%;        transform: translate(-50%, -50%);left:34.5%""></img><img src=""media/stimuli/inanimate_007_right.png"" class=""coveredImage test"" style = ""width:100px; height:100px;position:fixed; top:25%;        transform: translate(-50%, -50%);left:41.5%""></img><img src=""media/stimuli/animate_007_right.png"" class=""coveredImage test"" style = ""width:100px; height:100px;position:fixed; top:25%;        transform: translate(-50%, -50%);left:54.5%""></img><img src=""media/stimuli/animate_007_right.png"" class=""coveredImage test"" style = ""width:100px; height:100px;position:fixed; top:25%;        transform: translate(-50%, -50%);left:61.5%""></img><img src=""media/f.png""style = ""width:30px x; height:30px;position:fixed; top:43%;    transform: translate(-50%, -50%);left:40%""></img><img src=""media/j.png""style = ""width:30px; height:30px;position:fixed; top:43%;    transform: translate(-50%, -50%);left:60%""></img>","media/stimuli/inanimate_008_right.png","inanimate","right","pair","media/stimuli/inanimate_007_right.png","inanimate","right","pair","media/stimuli/animate_007_right.png","animate","right","pair","identity_animacy","","","",""
"","","","","","html-keyboard-response","48","138332","0.0-48.0","SS1678233172398","5e27727328b7b698b037ee6c","6406d7f26dd5b7fc1e3377bd","6407ce4b5b075dbc28df5db9","1536","711","","829","","f","","","<img src=""media/stimuli/animate_007_right.png"" class=""coveredImage test"" style = ""width:100px; height:100px; position:fixed; top:10%;    transform: translate(-50%, -50%);left:44.5%""></img><img src=""media/stimuli/animate_007_right.png"" class=""coveredImage test"" style = ""width:100px; height:100px; position:fixed; top:10%;    transform: translate(-50%, -50%);left:51.5%""></img><img src=""media/stimuli/animate_007_right.png"" class=""coveredImage test"" style = ""width:100px; height:100px;position:fixed; top:25%;        transform: translate(-50%, -50%);left:38%""></img><img src=""media/stimuli/inanimate_001_right.png"" class=""coveredImage test"" style = ""width:100px; height:100px;position:fixed; top:25%;        transform: translate(-50%, -50%);left:54.5%""></img><img src=""media/stimuli/inanimate_001_right.png"" class=""coveredImage test"" style = ""width:100px; height:100px;position:fixed; top:25%;        transform: translate(-50%, -50%);left:61.5%""></img><img src=""media/f.png""style = ""width:30px x; height:30px;position:fixed; top:43%;    transform: translate(-50%, -50%);left:40%""></img><img src=""media/j.png""style = ""width:30px; height:30px;position:fixed; top:43%;    transform: translate(-50%, -50%);left:60%""></img>","media/stimuli/animate_007_right.png","animate","right","pair","media/stimuli/animate_007_right.png","animate","right","single","media/stimuli/inanimate_001_right.png","inanimate","right","pair","number_animacy","","","",""
"","","","","","html-keyboard-response","49","139098","0.0-49.0","SS1678233172398","5e27727328b7b698b037ee6c","6406d7f26dd5b7fc1e3377bd","6407ce4b5b075dbc28df5db9","1536","711","","763","","j","","","<img src=""media/stimuli/animate_011_left.png"" class=""coveredImage test"" style = ""width:100px; height:100px; position:fixed; top:10%;    transform: translate(-50%, -50%);left:48%""></img><img src=""media/stimuli/inanimate_006_left.png"" class=""coveredImage test"" style = ""width:100px; height:100px;position:fixed; top:25%;        transform: translate(-50%, -50%);left:38%""></img><img src=""media/stimuli/animate_011_left.png"" class=""coveredImage test"" style = ""width:100px; height:100px;position:fixed; top:25%;        transform: translate(-50%, -50%);left:54.5%""></img><img src=""media/stimuli/animate_011_left.png"" class=""coveredImage test"" style = ""width:100px; height:100px;position:fixed; top:25%;        transform: translate(-50%, -50%);left:61.5%""></img><img src=""media/f.png""style = ""width:30px x; height:30px;position:fixed; top:43%;    transform: translate(-50%, -50%);left:40%""></img><img src=""media/j.png""style = ""width:30px; height:30px;position:fixed; top:43%;    transform: translate(-50%, -50%);left:60%""></img>","media/stimuli/animate_011_left.png","animate","left","single","media/stimuli/inanimate_006_left.png","inanimate","left","single","media/stimuli/animate_011_left.png","animate","left","pair","animacy_number","","","",""
"","","","","","html-keyboard-response","50","139891","0.0-50.0","SS1678233172398","5e27727328b7b698b037ee6c","6406d7f26dd5b7fc1e3377bd","6407ce4b5b075dbc28df5db9","1536","711","","790","","j","","","<img src=""media/stimuli/inanimate_009_left.png"" class=""coveredImage test"" style = ""width:100px; height:100px; position:fixed; top:10%;    transform: translate(-50%, -50%);left:44.5%""></img><img src=""media/stimuli/inanimate_009_left.png"" class=""coveredImage test"" style = ""width:100px; height:100px; position:fixed; top:10%;    transform: translate(-50%, -50%);left:51.5%""></img><img src=""media/stimuli/inanimate_012_left.png"" class=""coveredImage test"" style = ""width:100px; height:100px;position:fixed; top:25%;        transform: translate(-50%, -50%);left:34.5%""></img><img src=""media/stimuli/inanimate_012_left.png"" class=""coveredImage test"" style = ""width:100px; height:100px;position:fixed; top:25%;        transform: translate(-50%, -50%);left:41.5%""></img><img src=""media/stimuli/inanimate_009_left.png"" class=""coveredImage test"" style = ""width:100px; height:100px;position:fixed; top:25%;        transform: translate(-50%, -50%);left:58%""></img><img src=""media/f.png""style = ""width:30px x; height:30px;position:fixed; top:43%;    transform: translate(-50%, -50%);left:40%""></img><img src=""media/j.png""style = ""width:30px; height:30px;position:fixed; top:43%;    transform: translate(-50%, -50%);left:60%""></img>","media/stimuli/inanimate_009_left.png","inanimate","left","pair","media/stimuli/inanimate_012_left.png","inanimate","left","pair","media/stimuli/inanimate_009_left.png","inanimate","left","single","identity_number","","","",""
"","","","","","html-keyboard-response","51","140558","0.0-51.0","SS1678233172398","5e27727328b7b698b037ee6c","6406d7f26dd5b7fc1e3377bd","6407ce4b5b075dbc28df5db9","1536","711","","663","","j","","","<img src=""media/stimuli/animate_001_right.png"" class=""coveredImage test"" style = ""width:100px; height:100px; position:fixed; top:10%;    transform: translate(-50%, -50%);left:48%""></img><img src=""media/stimuli/inanimate_001_right.png"" class=""coveredImage test"" style = ""width:100px; height:100px;position:fixed; top:25%;        transform: translate(-50%, -50%);left:38%""></img><img src=""media/stimuli/animate_001_right.png"" class=""coveredImage test"" style = ""width:100px; height:100px;position:fixed; top:25%;        transform: translate(-50%, -50%);left:54.5%""></img><img src=""media/stimuli/animate_001_right.png"" class=""coveredImage test"" style = ""width:100px; height:100px;position:fixed; top:25%;        transform: translate(-50%, -50%);left:61.5%""></img><img src=""media/f.png""style = ""width:30px x; height:30px;position:fixed; top:43%;    transform: translate(-50%, -50%);left:40%""></img><img src=""media/j.png""style = ""width:30px; height:30px;position:fixed; top:43%;    transform: translate(-50%, -50%);left:60%""></img>","media/stimuli/animate_001_right.png","animate","right","single","media/stimuli/inanimate_001_right.png","inanimate","right","single","media/stimuli/animate_001_right.png","animate","right","pair","animacy_number","","","",""
"","","","","","html-keyboard-response","52","141653","0.0-52.0","SS1678233172398","5e27727328b7b698b037ee6c","6406d7f26dd5b7fc1e3377bd","6407ce4b5b075dbc28df5db9","1536","711","","1091","","f","","","<img src=""media/stimuli/inanimate_001_right.png"" class=""coveredImage test"" style = ""width:100px; height:100px; position:fixed; top:10%;    transform: translate(-50%, -50%);left:44.5%""></img><img src=""media/stimuli/inanimate_001_right.png"" class=""coveredImage test"" style = ""width:100px; height:100px; position:fixed; top:10%;    transform: translate(-50%, -50%);left:51.5%""></img><img src=""media/stimuli/animate_007_right.png"" class=""coveredImage test"" style = ""width:100px; height:100px;position:fixed; top:25%;        transform: translate(-50%, -50%);left:34.5%""></img><img src=""media/stimuli/animate_007_right.png"" class=""coveredImage test"" style = ""width:100px; height:100px;position:fixed; top:25%;        transform: translate(-50%, -50%);left:41.5%""></img><img src=""media/stimuli/inanimate_001_right.png"" class=""coveredImage test"" style = ""width:100px; height:100px;position:fixed; top:25%;        transform: translate(-50%, -50%);left:58%""></img><img src=""media/f.png""style = ""width:30px x; height:30px;position:fixed; top:43%;    transform: translate(-50%, -50%);left:40%""></img><img src=""media/j.png""style = ""width:30px; height:30px;position:fixed; top:43%;    transform: translate(-50%, -50%);left:60%""></img>","media/stimuli/inanimate_001_right.png","inanimate","right","pair","media/stimuli/animate_007_right.png","animate","right","pair","media/stimuli/inanimate_001_right.png","inanimate","right","single","animacy_number","","","",""
"","","","","","html-keyboard-response","53","142382","0.0-53.0","SS1678233172398","5e27727328b7b698b037ee6c","6406d7f26dd5b7fc1e3377bd","6407ce4b5b075dbc28df5db9","1536","711","","724","","f","","","<img src=""media/stimuli/animate_003_right.png"" class=""coveredImage test"" style = ""width:100px; height:100px; position:fixed; top:10%;    transform: translate(-50%, -50%);left:48%""></img><img src=""media/stimuli/animate_003_left.png"" class=""coveredImage test"" style = ""width:100px; height:100px;position:fixed; top:25%;        transform: translate(-50%, -50%);left:38%""></img><img src=""media/stimuli/animate_011_right.png"" class=""coveredImage test"" style = ""width:100px; height:100px;position:fixed; top:25%;        transform: translate(-50%, -50%);left:58%""></img><img src=""media/f.png""style = ""width:30px x; height:30px;position:fixed; top:43%;    transform: translate(-50%, -50%);left:40%""></img><img src=""media/j.png""style = ""width:30px; height:30px;position:fixed; top:43%;    transform: translate(-50%, -50%);left:60%""></img>","media/stimuli/animate_003_right.png","animate","right","single","media/stimuli/animate_003_left.png","animate","left","single","media/stimuli/animate_011_right.png","animate","right","single","pose_identity","","","",""
"","","","","","html-keyboard-response","54","144643","0.0-54.0","SS1678233172398","5e27727328b7b698b037ee6c","6406d7f26dd5b7fc1e3377bd","6407ce4b5b075dbc28df5db9","1536","711","","2258","","j","","","<img src=""media/stimuli/animate_010_right.png"" class=""coveredImage test"" style = ""width:100px; height:100px; position:fixed; top:10%;    transform: translate(-50%, -50%);left:48%""></img><img src=""media/stimuli/animate_010_right.png"" class=""coveredImage test"" style = ""width:100px; height:100px;position:fixed; top:25%;        transform: translate(-50%, -50%);left:34.5%""></img><img src=""media/stimuli/animate_010_right.png"" class=""coveredImage test"" style = ""width:100px; height:100px;position:fixed; top:25%;        transform: translate(-50%, -50%);left:41.5%""></img><img src=""media/stimuli/animate_010_left.png"" class=""coveredImage test"" style = ""width:100px; height:100px;position:fixed; top:25%;        transform: translate(-50%, -50%);left:58%""></img><img src=""media/f.png""style = ""width:30px x; height:30px;position:fixed; top:43%;    transform: translate(-50%, -50%);left:40%""></img><img src=""media/j.png""style = ""width:30px; height:30px;position:fixed; top:43%;    transform: translate(-50%, -50%);left:60%""></img>","media/stimuli/animate_010_right.png","animate","right","single","media/stimuli/animate_010_right.png","animate","right","pair","media/stimuli/animate_010_left.png","animate","left","single","number_pose","","","",""
"","","","","","html-keyboard-response","55","145422","0.0-55.0","SS1678233172398","5e27727328b7b698b037ee6c","6406d7f26dd5b7fc1e3377bd","6407ce4b5b075dbc28df5db9","1536","711","","777","","f","","","<img src=""media/stimuli/inanimate_005_right.png"" class=""coveredImage test"" style = ""width:100px; height:100px; position:fixed; top:10%;    transform: translate(-50%, -50%);left:48%""></img><img src=""media/stimuli/inanimate_005_right.png"" class=""coveredImage test"" style = ""width:100px; height:100px;position:fixed; top:25%;        transform: translate(-50%, -50%);left:38%""></img><img src=""media/stimuli/inanimate_005_right.png"" class=""coveredImage test"" style = ""width:100px; height:100px;position:fixed; top:25%;        transform: translate(-50%, -50%);left:54.5%""></img><img src=""media/stimuli/inanimate_005_right.png"" class=""coveredImage test"" style = ""width:100px; height:100px;position:fixed; top:25%;        transform: translate(-50%, -50%);left:61.5%""></img><img src=""media/f.png""style = ""width:30px x; height:30px;position:fixed; top:43%;    transform: translate(-50%, -50%);left:40%""></img><img src=""media/j.png""style = ""width:30px; height:30px;position:fixed; top:43%;    transform: translate(-50%, -50%);left:60%""></img>","media/stimuli/inanimate_005_right.png","inanimate","right","single","media/stimuli/inanimate_005_right.png","inanimate","right","single","media/stimuli/inanimate_005_right.png","inanimate","right","pair","filler_number","","","",""
"","","","","","html-keyboard-response","56","146292","0.0-56.0","SS1678233172398","5e27727328b7b698b037ee6c","6406d7f26dd5b7fc1e3377bd","6407ce4b5b075dbc28df5db9","1536","711","","865","","f","","","<img src=""media/stimuli/animate_007_left.png"" class=""coveredImage test"" style = ""width:100px; height:100px; position:fixed; top:10%;    transform: translate(-50%, -50%);left:44.5%""></img><img src=""media/stimuli/animate_007_left.png"" class=""coveredImage test"" style = ""width:100px; height:100px; position:fixed; top:10%;    transform: translate(-50%, -50%);left:51.5%""></img><img src=""media/stimuli/animate_007_right.png"" class=""coveredImage test"" style = ""width:100px; height:100px;position:fixed; top:25%;        transform: translate(-50%, -50%);left:34.5%""></img><img src=""media/stimuli/animate_007_right.png"" class=""coveredImage test"" style = ""width:100px; height:100px;position:fixed; top:25%;        transform: translate(-50%, -50%);left:41.5%""></img><img src=""media/stimuli/inanimate_009_left.png"" class=""coveredImage test"" style = ""width:100px; height:100px;position:fixed; top:25%;        transform: translate(-50%, -50%);left:54.5%""></img><img src=""media/stimuli/inanimate_009_left.png"" class=""coveredImage test"" style = ""width:100px; height:100px;position:fixed; top:25%;        transform: translate(-50%, -50%);left:61.5%""></img><img src=""media/f.png""style = ""width:30px x; height:30px;position:fixed; top:43%;    transform: translate(-50%, -50%);left:40%""></img><img src=""media/j.png""style = ""width:30px; height:30px;position:fixed; top:43%;    transform: translate(-50%, -50%);left:60%""></img>","media/stimuli/animate_007_left.png","animate","left","pair","media/stimuli/animate_007_right.png","animate","right","pair","media/stimuli/inanimate_009_left.png","inanimate","left","pair","pose_animacy","","","",""
"","","","","","html-keyboard-response","57","146997","0.0-57.0","SS1678233172398","5e27727328b7b698b037ee6c","6406d7f26dd5b7fc1e3377bd","6407ce4b5b075dbc28df5db9","1536","711","","702","","j","","","<img src=""media/stimuli/animate_002_left.png"" class=""coveredImage test"" style = ""width:100px; height:100px; position:fixed; top:10%;    transform: translate(-50%, -50%);left:48%""></img><img src=""media/stimuli/inanimate_003_right.png"" class=""coveredImage test"" style = ""width:100px; height:100px;position:fixed; top:25%;        transform: translate(-50%, -50%);left:34.5%""></img><img src=""media/stimuli/inanimate_003_right.png"" class=""coveredImage test"" style = ""width:100px; height:100px;position:fixed; top:25%;        transform: translate(-50%, -50%);left:41.5%""></img><img src=""media/stimuli/animate_002_left.png"" class=""coveredImage test"" style = ""width:100px; height:100px;position:fixed; top:25%;        transform: translate(-50%, -50%);left:54.5%""></img><img src=""media/stimuli/animate_002_left.png"" class=""coveredImage test"" style = ""width:100px; height:100px;position:fixed; top:25%;        transform: translate(-50%, -50%);left:61.5%""></img><img src=""media/f.png""style = ""width:30px x; height:30px;position:fixed; top:43%;    transform: translate(-50%, -50%);left:40%""></img><img src=""media/j.png""style = ""width:30px; height:30px;position:fixed; top:43%;    transform: translate(-50%, -50%);left:60%""></img>","media/stimuli/animate_002_left.png","animate","left","single","media/stimuli/inanimate_003_right.png","inanimate","right","pair","media/stimuli/animate_002_left.png","animate","left","pair","animacy_pose","","","",""
"","","","","","html-keyboard-response","58","147639","0.0-58.0","SS1678233172398","5e27727328b7b698b037ee6c","6406d7f26dd5b7fc1e3377bd","6407ce4b5b075dbc28df5db9","1536","711","","639","","f","","","<img src=""media/stimuli/inanimate_008_left.png"" class=""coveredImage test"" style = ""width:100px; height:100px; position:fixed; top:10%;    transform: translate(-50%, -50%);left:48%""></img><img src=""media/stimuli/inanimate_008_left.png"" class=""coveredImage test"" style = ""width:100px; height:100px;position:fixed; top:25%;        transform: translate(-50%, -50%);left:34.5%""></img><img src=""media/stimuli/inanimate_008_left.png"" class=""coveredImage test"" style = ""width:100px; height:100px;position:fixed; top:25%;        transform: translate(-50%, -50%);left:41.5%""></img><img src=""media/stimuli/animate_003_left.png"" class=""coveredImage test"" style = ""width:100px; height:100px;position:fixed; top:25%;        transform: translate(-50%, -50%);left:58%""></img><img src=""media/f.png""style = ""width:30px x; height:30px;position:fixed; top:43%;    transform: translate(-50%, -50%);left:40%""></img><img src=""media/j.png""style = ""width:30px; height:30px;position:fixed; top:43%;    transform: translate(-50%, -50%);left:60%""></img>","media/stimuli/inanimate_008_left.png","inanimate","left","single","media/stimuli/inanimate_008_left.png","inanimate","left","pair","media/stimuli/animate_003_left.png","animate","left","single","number_animacy","","","",""
"","","","","","html-keyboard-response","59","149023","0.0-59.0","SS1678233172398","5e27727328b7b698b037ee6c","6406d7f26dd5b7fc1e3377bd","6407ce4b5b075dbc28df5db9","1536","711","","1382",""," ","","","","","","","","","","","","","","","","","","","",""
"","","","","","survey-likert","60","153877","0.0-60.0","SS1678233172398","5e27727328b7b698b037ee6c","6406d7f26dd5b7fc1e3377bd","6407ce4b5b075dbc28df5db9","1536","711","","4851","","{""Q0"":4}","[0]","complexity","","","","","","","","","","","","","","","media/stimuli/inanimate_004_left.png","inanimate","pair","left"
"","","","","","survey-likert","61","156548","0.0-61.0","SS1678233172398","5e27727328b7b698b037ee6c","6406d7f26dd5b7fc1e3377bd","6407ce4b5b075dbc28df5db9","1536","711","","2667","","{""Q0"":3}","[0]","complexity","","","","","","","","","","","","","","","media/stimuli/inanimate_001_left.png","inanimate","pair","left"
"","","","","","survey-likert","62","161926","0.0-62.0","SS1678233172398","5e27727328b7b698b037ee6c","6406d7f26dd5b7fc1e3377bd","6407ce4b5b075dbc28df5db9","1536","711","","5371","","{""Q0"":3}","[0]","complexity","","","","","","","","","","","","","","","media/stimuli/animate_008_left.png","animate","pair","left"
"","","","","","survey-likert","63","164038","0.0-63.0","SS1678233172398","5e27727328b7b698b037ee6c","6406d7f26dd5b7fc1e3377bd","6407ce4b5b075dbc28df5db9","1536","711","","2098","","{""Q0"":4}","[0]","complexity","","","","","","","","","","","","","","","media/stimuli/animate_002_left.png","animate","single","left"
"","","","","","survey-likert","64","166178","0.0-64.0","SS1678233172398","5e27727328b7b698b037ee6c","6406d7f26dd5b7fc1e3377bd","6407ce4b5b075dbc28df5db9","1536","711","","2128","","{""Q0"":1}","[0]","complexity","","","","","","","","","","","","","","","media/stimuli/inanimate_004_right.png","inanimate","pair","right"
"","","","","","survey-likert","65","168231","0.0-65.0","SS1678233172398","5e27727328b7b698b037ee6c","6406d7f26dd5b7fc1e3377bd","6407ce4b5b075dbc28df5db9","1536","711","","2044","","{""Q0"":4}","[0]","complexity","","","","","","","","","","","","","","","media/stimuli/animate_011_left.png","animate","pair","left"
"","","","","","survey-likert","66","169631","0.0-66.0","SS1678233172398","5e27727328b7b698b037ee6c","6406d7f26dd5b7fc1e3377bd","6407ce4b5b075dbc28df5db9","1536","711","","1394","","{""Q0"":3}","[0]","complexity","","","","","","","","","","","","","","","media/stimuli/animate_010_right.png","animate","single","right"
"","","","","","survey-likert","67","171448","0.0-67.0","SS1678233172398","5e27727328b7b698b037ee6c","6406d7f26dd5b7fc1e3377bd","6407ce4b5b075dbc28df5db9","1536","711","","1811","","{""Q0"":5}","[0]","complexity","","","","","","","","","","","","","","","media/stimuli/animate_010_left.png","animate","pair","left"
"","","","","","survey-likert","68","173549","0.0-68.0","SS1678233172398","5e27727328b7b698b037ee6c","6406d7f26dd5b7fc1e3377bd","6407ce4b5b075dbc28df5db9","1536","711","","2096","","{""Q0"":4}","[0]","complexity","","","","","","","","","","","","","","","media/stimuli/inanimate_010_left.png","inanimate","single","left"
"","","","","","survey-likert","69","176850","0.0-69.0","SS1678233172398","5e27727328b7b698b037ee6c","6406d7f26dd5b7fc1e3377bd","6407ce4b5b075dbc28df5db9","1536","711","","3296","","{""Q0"":2}","[0]","complexity","","","","","","","","","","","","","","","media/stimuli/inanimate_005_right.png","inanimate","single","right"
"","","","","","survey-likert","70","179267","0.0-70.0","SS1678233172398","5e27727328b7b698b037ee6c","6406d7f26dd5b7fc1e3377bd","6407ce4b5b075dbc28df5db9","1536","711","","2413","","{""Q0"":3}","[0]","complexity","","","","","","","","","","","","","","","media/stimuli/animate_004_left.png","animate","single","left"
"","","","","","survey-likert","71","181586","0.0-71.0","SS1678233172398","5e27727328b7b698b037ee6c","6406d7f26dd5b7fc1e3377bd","6407ce4b5b075dbc28df5db9","1536","711","","2312","","{""Q0"":1}","[0]","complexity","","","","","","","","","","","","","","","media/stimuli/inanimate_001_right.png","inanimate","pair","right"
"","","","","","html-keyboard-response","72","183367","0.0-72.0","SS1678233172398","5e27727328b7b698b037ee6c","6406d7f26dd5b7fc1e3377bd","6407ce4b5b075dbc28df5db9","1536","711","","1777","","enter","","","","","","","","","","","","","","","","","","","",""
"","","","","","survey-likert","73","186537","0.0-73.0","SS1678233172398","5e27727328b7b698b037ee6c","6406d7f26dd5b7fc1e3377bd","6407ce4b5b075dbc28df5db9","1536","711","","3167","","{""Q0"":4}","[0]","complexity","","","","","","","","","","","","","","","media/stimuli/inanimate_006_right.png","inanimate","single","right"
"","","","","","survey-likert","74","188397","0.0-74.0","SS1678233172398","5e27727328b7b698b037ee6c","6406d7f26dd5b7fc1e3377bd","6407ce4b5b075dbc28df5db9","1536","711","","1853","","{""Q0"":4}","[0]","complexity","","","","","","","","","","","","","","","media/stimuli/animate_003_right.png","animate","single","right"
"","","","","","survey-likert","75","190377","0.0-75.0","SS1678233172398","5e27727328b7b698b037ee6c","6406d7f26dd5b7fc1e3377bd","6407ce4b5b075dbc28df5db9","1536","711","","1975","","{""Q0"":4}","[0]","complexity","","","","","","","","","","","","","","","media/stimuli/animate_005_right.png","animate","single","right"
"","","","","","survey-likert","76","192699","0.0-76.0","SS1678233172398","5e27727328b7b698b037ee6c","6406d7f26dd5b7fc1e3377bd","6407ce4b5b075dbc28df5db9","1536","711","","2318","","{""Q0"":5}","[0]","complexity","","","","","","","","","","","","","","","media/stimuli/animate_005_right.png","animate","pair","right"
"","","","","","survey-likert","77","194751","0.0-77.0","SS1678233172398","5e27727328b7b698b037ee6c","6406d7f26dd5b7fc1e3377bd","6407ce4b5b075dbc28df5db9","1536","711","","2047","","{""Q0"":5}","[0]","complexity","","","","","","","","","","","","","","","media/stimuli/inanimate_007_right.png","inanimate","pair","right"
"","","","","","survey-likert","78","196401","0.0-78.0","SS1678233172398","5e27727328b7b698b037ee6c","6406d7f26dd5b7fc1e3377bd","6407ce4b5b075dbc28df5db9","1536","711","","1644","","{""Q0"":3}","[0]","complexity","","","","","","","","","","","","","","","media/stimuli/inanimate_005_left.png","inanimate","single","left"
"","","","","","survey-likert","79","197810","0.0-79.0","SS1678233172398","5e27727328b7b698b037ee6c","6406d7f26dd5b7fc1e3377bd","6407ce4b5b075dbc28df5db9","1536","711","","1401","","{""Q0"":4}","[0]","complexity","","","","","","","","","","","","","","","media/stimuli/animate_007_left.png","animate","single","left"
"","","","","","survey-likert","80","201461","0.0-80.0","SS1678233172398","5e27727328b7b698b037ee6c","6406d7f26dd5b7fc1e3377bd","6407ce4b5b075dbc28df5db9","1536","711","","3647","","{""Q0"":5}","[0]","complexity","","","","","","","","","","","","","","","media/stimuli/animate_003_right.png","animate","pair","right"
"","","","","","survey-likert","81","204021","0.0-81.0","SS1678233172398","5e27727328b7b698b037ee6c","6406d7f26dd5b7fc1e3377bd","6407ce4b5b075dbc28df5db9","1536","711","","2555","","{""Q0"":5}","[0]","complexity","","","","","","","","","","","","","","","media/stimuli/animate_007_left.png","animate","pair","left"
"","","","","","survey-likert","82","206096","0.0-82.0","SS1678233172398","5e27727328b7b698b037ee6c","6406d7f26dd5b7fc1e3377bd","6407ce4b5b075dbc28df5db9","1536","711","","2069","","{""Q0"":4}","[0]","complexity","","","","","","","","","","","","","","","media/stimuli/animate_011_left.png","animate","single","left"
"","","","","","survey-likert","83","218857","0.0-83.0","SS1678233172398","5e27727328b7b698b037ee6c","6406d7f26dd5b7fc1e3377bd","6407ce4b5b075dbc28df5db9","1536","711","","12752","","{""Q0"":2}","[0]","complexity","","","","","","","","","","","","","","","media/stimuli/inanimate_009_right.png","inanimate","single","right"
"","","","","","survey-likert","84","220853","0.0-84.0","SS1678233172398","5e27727328b7b698b037ee6c","6406d7f26dd5b7fc1e3377bd","6407ce4b5b075dbc28df5db9","1536","711","","1958","","{""Q0"":5}","[0]","complexity","","","","","","","","","","","","","","","media/stimuli/animate_003_left.png","animate","pair","left"
"","","","","","html-keyboard-response","85","222236","0.0-85.0","SS1678233172398","5e27727328b7b698b037ee6c","6406d7f26dd5b7fc1e3377bd","6407ce4b5b075dbc28df5db9","1536","711","","1375","","enter","","","","","","","","","","","","","","","","","","","",""
"","","","","","survey-likert","86","224747","0.0-86.0","SS1678233172398","5e27727328b7b698b037ee6c","6406d7f26dd5b7fc1e3377bd","6407ce4b5b075dbc28df5db9","1536","711","","2506","","{""Q0"":4}","[0]","complexity","","","","","","","","","","","","","","","media/stimuli/inanimate_007_left.png","inanimate","pair","left"
"","","","","","survey-likert","87","226625","0.0-87.0","SS1678233172398","5e27727328b7b698b037ee6c","6406d7f26dd5b7fc1e3377bd","6407ce4b5b075dbc28df5db9","1536","711","","1862","","{""Q0"":4}","[0]","complexity","","","","","","","","","","","","","","","media/stimuli/animate_001_right.png","animate","pair","right"
"","","","","","survey-likert","88","230123","0.0-88.0","SS1678233172398","5e27727328b7b698b037ee6c","6406d7f26dd5b7fc1e3377bd","6407ce4b5b075dbc28df5db9","1536","711","","3489","","{""Q0"":2}","[0]","complexity","","","","","","","","","","","","","","","media/stimuli/inanimate_003_right.png","inanimate","pair","right"
"","","","","","survey-likert","89","232368","0.0-89.0","SS1678233172398","5e27727328b7b698b037ee6c","6406d7f26dd5b7fc1e3377bd","6407ce4b5b075dbc28df5db9","1536","711","","2235","","{""Q0"":1}","[0]","complexity","","","","","","","","","","","","","","","media/stimuli/inanimate_011_left.png","inanimate","single","left"
"","","","","","survey-likert","90","235459","0.0-90.0","SS1678233172398","5e27727328b7b698b037ee6c","6406d7f26dd5b7fc1e3377bd","6407ce4b5b075dbc28df5db9","1536","711","","3081","","{""Q0"":5}","[0]","complexity","","","","","","","","","","","","","","","media/stimuli/animate_005_left.png","animate","pair","left"
"","","","","","survey-likert","91","237515","0.0-91.0","SS1678233172398","5e27727328b7b698b037ee6c","6406d7f26dd5b7fc1e3377bd","6407ce4b5b075dbc28df5db9","1536","711","","2049","","{""Q0"":5}","[0]","complexity","","","","","","","","","","","","","","","media/stimuli/inanimate_008_right.png","inanimate","pair","right"
"","","","","","survey-likert","92","239874","0.0-92.0","SS1678233172398","5e27727328b7b698b037ee6c","6406d7f26dd5b7fc1e3377bd","6407ce4b5b075dbc28df5db9","1536","711","","2351","","{""Q0"":1}","[0]","complexity","","","","","","","","","","","","","","","media/stimuli/inanimate_012_right.png","inanimate","single","right"
"","","","","","survey-likert","93","241795","0.0-93.0","SS1678233172398","5e27727328b7b698b037ee6c","6406d7f26dd5b7fc1e3377bd","6407ce4b5b075dbc28df5db9","1536","711","","1912","","{""Q0"":5}","[0]","complexity","","","","","","","","","","","","","","","media/stimuli/animate_008_right.png","animate","pair","right"
"","","","","","survey-likert","94","244047","0.0-94.0","SS1678233172398","5e27727328b7b698b037ee6c","6406d7f26dd5b7fc1e3377bd","6407ce4b5b075dbc28df5db9","1536","711","","2246","","{""Q0"":5}","[0]","complexity","","","","","","","","","","","","","","","media/stimuli/inanimate_006_right.png","inanimate","pair","right"
"","","","","","survey-likert","95","246240","0.0-95.0","SS1678233172398","5e27727328b7b698b037ee6c","6406d7f26dd5b7fc1e3377bd","6407ce4b5b075dbc28df5db9","1536","711","","2188","","{""Q0"":5}","[0]","complexity","","","","","","","","","","","","","","","media/stimuli/inanimate_005_left.png","inanimate","pair","left"
"","","","","","survey-likert","96","248366","0.0-96.0","SS1678233172398","5e27727328b7b698b037ee6c","6406d7f26dd5b7fc1e3377bd","6407ce4b5b075dbc28df5db9","1536","711","","2120","","{""Q0"":4}","[0]","complexity","","","","","","","","","","","","","","","media/stimuli/animate_001_left.png","animate","single","left"
"","","","","","survey-likert","97","251390","0.0-97.0","SS1678233172398","5e27727328b7b698b037ee6c","6406d7f26dd5b7fc1e3377bd","6407ce4b5b075dbc28df5db9","1536","711","","3016","","{""Q0"":1}","[0]","complexity","","","","","","","","","","","","","","","media/stimuli/inanimate_004_left.png","inanimate","single","left"
"","","","","","html-keyboard-response","98","252812","0.0-98.0","SS1678233172398","5e27727328b7b698b037ee6c","6406d7f26dd5b7fc1e3377bd","6407ce4b5b075dbc28df5db9","1536","711","","1416","","enter","","","","","","","","","","","","","","","","","","","",""
"","","","","","html-keyboard-response","99","254894","0.0-99.0","SS1678233172398","5e27727328b7b698b037ee6c","6406d7f26dd5b7fc1e3377bd","6407ce4b5b075dbc28df5db9","1536","711","","2078","","f","","","<img src=""media/stimuli/inanimate_006_left.png"" class=""coveredImage test"" style = ""width:100px; height:100px; position:fixed; top:10%;    transform: translate(-50%, -50%);left:48%""></img><img src=""media/stimuli/inanimate_006_left.png"" class=""coveredImage test"" style = ""width:100px; height:100px;position:fixed; top:25%;        transform: translate(-50%, -50%);left:34.5%""></img><img src=""media/stimuli/inanimate_006_left.png"" class=""coveredImage test"" style = ""width:100px; height:100px;position:fixed; top:25%;        transform: translate(-50%, -50%);left:41.5%""></img><img src=""media/stimuli/inanimate_009_left.png"" class=""coveredImage test"" style = ""width:100px; height:100px;position:fixed; top:25%;        transform: translate(-50%, -50%);left:58%""></img><img src=""media/f.png""style = ""width:30px x; height:30px;position:fixed; top:43%;    transform: translate(-50%, -50%);left:40%""></img><img src=""media/j.png""style = ""width:30px; height:30px;position:fixed; top:43%;    transform: translate(-50%, -50%);left:60%""></img>","media/stimuli/inanimate_006_left.png","inanimate","left","single","media/stimuli/inanimate_006_left.png","inanimate","left","pair","media/stimuli/inanimate_009_left.png","inanimate","left","single","number_identity","","","",""
"","","","","","html-keyboard-response","100","256895","0.0-100.0","SS1678233172398","5e27727328b7b698b037ee6c","6406d7f26dd5b7fc1e3377bd","6407ce4b5b075dbc28df5db9","1536","711","","1995","","f","","","<img src=""media/stimuli/inanimate_006_right.png"" class=""coveredImage test"" style = ""width:100px; height:100px; position:fixed; top:10%;    transform: translate(-50%, -50%);left:44.5%""></img><img src=""media/stimuli/inanimate_006_right.png"" class=""coveredImage test"" style = ""width:100px; height:100px; position:fixed; top:10%;    transform: translate(-50%, -50%);left:51.5%""></img><img src=""media/stimuli/inanimate_011_right.png"" class=""coveredImage test"" style = ""width:100px; height:100px;position:fixed; top:25%;        transform: translate(-50%, -50%);left:34.5%""></img><img src=""media/stimuli/inanimate_011_right.png"" class=""coveredImage test"" style = ""width:100px; height:100px;position:fixed; top:25%;        transform: translate(-50%, -50%);left:41.5%""></img><img src=""media/stimuli/animate_002_right.png"" class=""coveredImage test"" style = ""width:100px; height:100px;position:fixed; top:25%;        transform: translate(-50%, -50%);left:54.5%""></img><img src=""media/stimuli/animate_002_right.png"" class=""coveredImage test"" style = ""width:100px; height:100px;position:fixed; top:25%;        transform: translate(-50%, -50%);left:61.5%""></img><img src=""media/f.png""style = ""width:30px x; height:30px;position:fixed; top:43%;    transform: translate(-50%, -50%);left:40%""></img><img src=""media/j.png""style = ""width:30px; height:30px;position:fixed; top:43%;    transform: translate(-50%, -50%);left:60%""></img>","media/stimuli/inanimate_006_right.png","inanimate","right","pair","media/stimuli/inanimate_011_right.png","inanimate","right","pair","media/stimuli/animate_002_right.png","animate","right","pair","identity_animacy","","","",""
"","","","","","html-keyboard-response","101","257497","0.0-101.0","SS1678233172398","5e27727328b7b698b037ee6c","6406d7f26dd5b7fc1e3377bd","6407ce4b5b075dbc28df5db9","1536","711","","594","","f","","","<img src=""media/stimuli/inanimate_008_left.png"" class=""coveredImage test"" style = ""width:100px; height:100px; position:fixed; top:10%;    transform: translate(-50%, -50%);left:44.5%""></img><img src=""media/stimuli/inanimate_008_left.png"" class=""coveredImage test"" style = ""width:100px; height:100px; position:fixed; top:10%;    transform: translate(-50%, -50%);left:51.5%""></img><img src=""media/stimuli/inanimate_008_left.png"" class=""coveredImage test"" style = ""width:100px; height:100px;position:fixed; top:25%;        transform: translate(-50%, -50%);left:34.5%""></img><img src=""media/stimuli/inanimate_008_left.png"" class=""coveredImage test"" style = ""width:100px; height:100px;position:fixed; top:25%;        transform: translate(-50%, -50%);left:41.5%""></img><img src=""media/stimuli/animate_008_right.png"" class=""coveredImage test"" style = ""width:100px; height:100px;position:fixed; top:25%;        transform: translate(-50%, -50%);left:54.5%""></img><img src=""media/stimuli/animate_008_right.png"" class=""coveredImage test"" style = ""width:100px; height:100px;position:fixed; top:25%;        transform: translate(-50%, -50%);left:61.5%""></img><img src=""media/f.png""style = ""width:30px x; height:30px;position:fixed; top:43%;    transform: translate(-50%, -50%);left:40%""></img><img src=""media/j.png""style = ""width:30px; height:30px;position:fixed; top:43%;    transform: translate(-50%, -50%);left:60%""></img>","media/stimuli/inanimate_008_left.png","inanimate","left","pair","media/stimuli/inanimate_008_left.png","inanimate","left","pair","media/stimuli/animate_008_right.png","animate","right","pair","pose_animacy","","","",""
"","","","","","html-keyboard-response","102","258086","0.0-102.0","SS1678233172398","5e27727328b7b698b037ee6c","6406d7f26dd5b7fc1e3377bd","6407ce4b5b075dbc28df5db9","1536","711","","583","","f","","","<img src=""media/stimuli/animate_010_left.png"" class=""coveredImage test"" style = ""width:100px; height:100px; position:fixed; top:10%;    transform: translate(-50%, -50%);left:44.5%""></img><img src=""media/stimuli/animate_010_left.png"" class=""coveredImage test"" style = ""width:100px; height:100px; position:fixed; top:10%;    transform: translate(-50%, -50%);left:51.5%""></img><img src=""media/stimuli/animate_010_left.png"" class=""coveredImage test"" style = ""width:100px; height:100px;position:fixed; top:25%;        transform: translate(-50%, -50%);left:38%""></img><img src=""media/stimuli/animate_008_left.png"" class=""coveredImage test"" style = ""width:100px; height:100px;position:fixed; top:25%;        transform: translate(-50%, -50%);left:54.5%""></img><img src=""media/stimuli/animate_008_left.png"" class=""coveredImage test"" style = ""width:100px; height:100px;position:fixed; top:25%;        transform: translate(-50%, -50%);left:61.5%""></img><img src=""media/f.png""style = ""width:30px x; height:30px;position:fixed; top:43%;    transform: translate(-50%, -50%);left:40%""></img><img src=""media/j.png""style = ""width:30px; height:30px;position:fixed; top:43%;    transform: translate(-50%, -50%);left:60%""></img>","media/stimuli/animate_010_left.png","animate","left","pair","media/stimuli/animate_010_left.png","animate","left","single","media/stimuli/animate_008_left.png","animate","left","pair","number_identity","","","",""
"","","","","","html-keyboard-response","103","258876","0.0-103.0","SS1678233172398","5e27727328b7b698b037ee6c","6406d7f26dd5b7fc1e3377bd","6407ce4b5b075dbc28df5db9","1536","711","","784","","j","","","<img src=""media/stimuli/animate_006_left.png"" class=""coveredImage test"" style = ""width:100px; height:100px; position:fixed; top:10%;    transform: translate(-50%, -50%);left:48%""></img><img src=""media/stimuli/animate_006_left.png"" class=""coveredImage test"" style = ""width:100px; height:100px;position:fixed; top:25%;        transform: translate(-50%, -50%);left:34.5%""></img><img src=""media/stimuli/animate_006_left.png"" class=""coveredImage test"" style = ""width:100px; height:100px;position:fixed; top:25%;        transform: translate(-50%, -50%);left:41.5%""></img><img src=""media/stimuli/animate_006_right.png"" class=""coveredImage test"" style = ""width:100px; height:100px;position:fixed; top:25%;        transform: translate(-50%, -50%);left:58%""></img><img src=""media/f.png""style = ""width:30px x; height:30px;position:fixed; top:43%;    transform: translate(-50%, -50%);left:40%""></img><img src=""media/j.png""style = ""width:30px; height:30px;position:fixed; top:43%;    transform: translate(-50%, -50%);left:60%""></img>","media/stimuli/animate_006_left.png","animate","left","single","media/stimuli/animate_006_left.png","animate","left","pair","media/stimuli/animate_006_right.png","animate","right","single","number_pose","","","",""
"","","","","","html-keyboard-response","104","259547","0.0-104.0","SS1678233172398","5e27727328b7b698b037ee6c","6406d7f26dd5b7fc1e3377bd","6407ce4b5b075dbc28df5db9","1536","711","","666","","f","","","<img src=""media/stimuli/animate_011_right.png"" class=""coveredImage test"" style = ""width:100px; height:100px; position:fixed; top:10%;    transform: translate(-50%, -50%);left:44.5%""></img><img src=""media/stimuli/animate_011_right.png"" class=""coveredImage test"" style = ""width:100px; height:100px; position:fixed; top:10%;    transform: translate(-50%, -50%);left:51.5%""></img><img src=""media/stimuli/animate_011_right.png"" class=""coveredImage test"" style = ""width:100px; height:100px;position:fixed; top:25%;        transform: translate(-50%, -50%);left:38%""></img><img src=""media/stimuli/animate_008_right.png"" class=""coveredImage test"" style = ""width:100px; height:100px;position:fixed; top:25%;        transform: translate(-50%, -50%);left:54.5%""></img><img src=""media/stimuli/animate_008_right.png"" class=""coveredImage test"" style = ""width:100px; height:100px;position:fixed; top:25%;        transform: translate(-50%, -50%);left:61.5%""></img><img src=""media/f.png""style = ""width:30px x; height:30px;position:fixed; top:43%;    transform: translate(-50%, -50%);left:40%""></img><img src=""media/j.png""style = ""width:30px; height:30px;position:fixed; top:43%;    transform: translate(-50%, -50%);left:60%""></img>","media/stimuli/animate_011_right.png","animate","right","pair","media/stimuli/animate_011_right.png","animate","right","single","media/stimuli/animate_008_right.png","animate","right","pair","number_identity","","","",""
"","","","","","html-keyboard-response","105","260173","0.0-105.0","SS1678233172398","5e27727328b7b698b037ee6c","6406d7f26dd5b7fc1e3377bd","6407ce4b5b075dbc28df5db9","1536","711","","621","","f","","","<img src=""media/stimuli/animate_012_right.png"" class=""coveredImage test"" style = ""width:100px; height:100px; position:fixed; top:10%;    transform: translate(-50%, -50%);left:44.5%""></img><img src=""media/stimuli/animate_012_right.png"" class=""coveredImage test"" style = ""width:100px; height:100px; position:fixed; top:10%;    transform: translate(-50%, -50%);left:51.5%""></img><img src=""media/stimuli/animate_012_left.png"" class=""coveredImage test"" style = ""width:100px; height:100px;position:fixed; top:25%;        transform: translate(-50%, -50%);left:34.5%""></img><img src=""media/stimuli/animate_012_left.png"" class=""coveredImage test"" style = ""width:100px; height:100px;position:fixed; top:25%;        transform: translate(-50%, -50%);left:41.5%""></img><img src=""media/stimuli/animate_009_right.png"" class=""coveredImage test"" style = ""width:100px; height:100px;position:fixed; top:25%;        transform: translate(-50%, -50%);left:54.5%""></img><img src=""media/stimuli/animate_009_right.png"" class=""coveredImage test"" style = ""width:100px; height:100px;position:fixed; top:25%;        transform: translate(-50%, -50%);left:61.5%""></img><img src=""media/f.png""style = ""width:30px x; height:30px;position:fixed; top:43%;    transform: translate(-50%, -50%);left:40%""></img><img src=""media/j.png""style = ""width:30px; height:30px;position:fixed; top:43%;    transform: translate(-50%, -50%);left:60%""></img>","media/stimuli/animate_012_right.png","animate","right","pair","media/stimuli/animate_012_left.png","animate","left","pair","media/stimuli/animate_009_right.png","animate","right","pair","pose_identity","","","",""
"","","","","","html-keyboard-response","106","261104","0.0-106.0","SS1678233172398","5e27727328b7b698b037ee6c","6406d7f26dd5b7fc1e3377bd","6407ce4b5b075dbc28df5db9","1536","711","","926","","f","","","<img src=""media/stimuli/inanimate_012_left.png"" class=""coveredImage test"" style = ""width:100px; height:100px; position:fixed; top:10%;    transform: translate(-50%, -50%);left:48%""></img><img src=""media/stimuli/inanimate_006_left.png"" class=""coveredImage test"" style = ""width:100px; height:100px;position:fixed; top:25%;        transform: translate(-50%, -50%);left:38%""></img><img src=""media/stimuli/animate_011_left.png"" class=""coveredImage test"" style = ""width:100px; height:100px;position:fixed; top:25%;        transform: translate(-50%, -50%);left:58%""></img><img src=""media/f.png""style = ""width:30px x; height:30px;position:fixed; top:43%;    transform: translate(-50%, -50%);left:40%""></img><img src=""media/j.png""style = ""width:30px; height:30px;position:fixed; top:43%;    transform: translate(-50%, -50%);left:60%""></img>","media/stimuli/inanimate_012_left.png","inanimate","left","single","media/stimuli/inanimate_006_left.png","inanimate","left","single","media/stimuli/animate_011_left.png","animate","left","single","identity_animacy","","","",""
"","","","","","html-keyboard-response","107","261789","0.0-107.0","SS1678233172398","5e27727328b7b698b037ee6c","6406d7f26dd5b7fc1e3377bd","6407ce4b5b075dbc28df5db9","1536","711","","680","","f","","","<img src=""media/stimuli/animate_006_right.png"" class=""coveredImage test"" style = ""width:100px; height:100px; position:fixed; top:10%;    transform: translate(-50%, -50%);left:48%""></img><img src=""media/stimuli/animate_006_left.png"" class=""coveredImage test"" style = ""width:100px; height:100px;position:fixed; top:25%;        transform: translate(-50%, -50%);left:38%""></img><img src=""media/stimuli/animate_007_right.png"" class=""coveredImage test"" style = ""width:100px; height:100px;position:fixed; top:25%;        transform: translate(-50%, -50%);left:58%""></img><img src=""media/f.png""style = ""width:30px x; height:30px;position:fixed; top:43%;    transform: translate(-50%, -50%);left:40%""></img><img src=""media/j.png""style = ""width:30px; height:30px;position:fixed; top:43%;    transform: translate(-50%, -50%);left:60%""></img>","media/stimuli/animate_006_right.png","animate","right","single","media/stimuli/animate_006_left.png","animate","left","single","media/stimuli/animate_007_right.png","animate","right","single","pose_identity","","","",""
"","","","","","html-keyboard-response","108","262962","0.0-108.0","SS1678233172398","5e27727328b7b698b037ee6c","6406d7f26dd5b7fc1e3377bd","6407ce4b5b075dbc28df5db9","1536","711","","1170","","f","","","<img src=""media/stimuli/inanimate_001_left.png"" class=""coveredImage test"" style = ""width:100px; height:100px; position:fixed; top:10%;    transform: translate(-50%, -50%);left:48%""></img><img src=""media/stimuli/inanimate_001_right.png"" class=""coveredImage test"" style = ""width:100px; height:100px;position:fixed; top:25%;        transform: translate(-50%, -50%);left:38%""></img><img src=""media/stimuli/inanimate_001_left.png"" class=""coveredImage test"" style = ""width:100px; height:100px;position:fixed; top:25%;        transform: translate(-50%, -50%);left:54.5%""></img><img src=""media/stimuli/inanimate_001_left.png"" class=""coveredImage test"" style = ""width:100px; height:100px;position:fixed; top:25%;        transform: translate(-50%, -50%);left:61.5%""></img><img src=""media/f.png""style = ""width:30px x; height:30px;position:fixed; top:43%;    transform: translate(-50%, -50%);left:40%""></img><img src=""media/j.png""style = ""width:30px; height:30px;position:fixed; top:43%;    transform: translate(-50%, -50%);left:60%""></img>","media/stimuli/inanimate_001_left.png","inanimate","left","single","media/stimuli/inanimate_001_right.png","inanimate","right","single","media/stimuli/inanimate_001_left.png","inanimate","left","pair","pose_number","","","",""
"","","","","","html-keyboard-response","109","264082","0.0-109.0","SS1678233172398","5e27727328b7b698b037ee6c","6406d7f26dd5b7fc1e3377bd","6407ce4b5b075dbc28df5db9","1536","711","","1112","","f","","","<img src=""media/stimuli/animate_005_right.png"" class=""coveredImage test"" style = ""width:100px; height:100px; position:fixed; top:10%;    transform: translate(-50%, -50%);left:48%""></img><img src=""media/stimuli/animate_008_right.png"" class=""coveredImage test"" style = ""width:100px; height:100px;position:fixed; top:25%;        transform: translate(-50%, -50%);left:38%""></img><img src=""media/stimuli/inanimate_006_right.png"" class=""coveredImage test"" style = ""width:100px; height:100px;position:fixed; top:25%;        transform: translate(-50%, -50%);left:58%""></img><img src=""media/f.png""style = ""width:30px x; height:30px;position:fixed; top:43%;    transform: translate(-50%, -50%);left:40%""></img><img src=""media/j.png""style = ""width:30px; height:30px;position:fixed; top:43%;    transform: translate(-50%, -50%);left:60%""></img>","media/stimuli/animate_005_right.png","animate","right","single","media/stimuli/animate_008_right.png","animate","right","single","media/stimuli/inanimate_006_right.png","inanimate","right","single","identity_animacy","","","",""
"","","","","","html-keyboard-response","110","265134","0.0-110.0","SS1678233172398","5e27727328b7b698b037ee6c","6406d7f26dd5b7fc1e3377bd","6407ce4b5b075dbc28df5db9","1536","711","","1045","","j","","","<img src=""media/stimuli/animate_001_left.png"" class=""coveredImage test"" style = ""width:100px; height:100px; position:fixed; top:10%;    transform: translate(-50%, -50%);left:44.5%""></img><img src=""media/stimuli/animate_001_left.png"" class=""coveredImage test"" style = ""width:100px; height:100px; position:fixed; top:10%;    transform: translate(-50%, -50%);left:51.5%""></img><img src=""media/stimuli/inanimate_011_left.png"" class=""coveredImage test"" style = ""width:100px; height:100px;position:fixed; top:25%;        transform: translate(-50%, -50%);left:34.5%""></img><img src=""media/stimuli/inanimate_011_left.png"" class=""coveredImage test"" style = ""width:100px; height:100px;position:fixed; top:25%;        transform: translate(-50%, -50%);left:41.5%""></img><img src=""media/stimuli/animate_006_left.png"" class=""coveredImage test"" style = ""width:100px; height:100px;position:fixed; top:25%;        transform: translate(-50%, -50%);left:54.5%""></img><img src=""media/stimuli/animate_006_left.png"" class=""coveredImage test"" style = ""width:100px; height:100px;position:fixed; top:25%;        transform: translate(-50%, -50%);left:61.5%""></img><img src=""media/f.png""style = ""width:30px x; height:30px;position:fixed; top:43%;    transform: translate(-50%, -50%);left:40%""></img><img src=""media/j.png""style = ""width:30px; height:30px;position:fixed; top:43%;    transform: translate(-50%, -50%);left:60%""></img>","media/stimuli/animate_001_left.png","animate","left","pair","media/stimuli/inanimate_011_left.png","inanimate","left","pair","media/stimuli/animate_006_left.png","animate","left","pair","animacy_identity","","","",""
"","","","","","html-keyboard-response","111","266076","0.0-111.0","SS1678233172398","5e27727328b7b698b037ee6c","6406d7f26dd5b7fc1e3377bd","6407ce4b5b075dbc28df5db9","1536","711","","939","","f","","","","","","","","","","","","","","","","","","","",""
"","","","","","html-keyboard-response","112","268259","0.0-112.0","SS1678233172398","5e27727328b7b698b037ee6c","6406d7f26dd5b7fc1e3377bd","6407ce4b5b075dbc28df5db9","1536","711","","2177","","j","","","<img src=""media/stimuli/inanimate_004_left.png"" class=""coveredImage test"" style = ""width:100px; height:100px; position:fixed; top:10%;    transform: translate(-50%, -50%);left:48%""></img><img src=""media/stimuli/inanimate_012_left.png"" class=""coveredImage test"" style = ""width:100px; height:100px;position:fixed; top:25%;        transform: translate(-50%, -50%);left:38%""></img><img src=""media/stimuli/inanimate_004_left.png"" class=""coveredImage test"" style = ""width:100px; height:100px;position:fixed; top:25%;        transform: translate(-50%, -50%);left:54.5%""></img><img src=""media/stimuli/inanimate_004_left.png"" class=""coveredImage test"" style = ""width:100px; height:100px;position:fixed; top:25%;        transform: translate(-50%, -50%);left:61.5%""></img><img src=""media/f.png""style = ""width:30px x; height:30px;position:fixed; top:43%;    transform: translate(-50%, -50%);left:40%""></img><img src=""media/j.png""style = ""width:30px; height:30px;position:fixed; top:43%;    transform: translate(-50%, -50%);left:60%""></img>","media/stimuli/inanimate_004_left.png","inanimate","left","single","media/stimuli/inanimate_012_left.png","inanimate","left","single","media/stimuli/inanimate_004_left.png","inanimate","left","pair","identity_number","","","",""
"","","","","","html-keyboard-response","113","269700","0.0-113.0","SS1678233172398","5e27727328b7b698b037ee6c","6406d7f26dd5b7fc1e3377bd","6407ce4b5b075dbc28df5db9","1536","711","","1435","","j","","","<img src=""media/stimuli/animate_003_right.png"" class=""coveredImage test"" style = ""width:100px; height:100px; position:fixed; top:10%;    transform: translate(-50%, -50%);left:44.5%""></img><img src=""media/stimuli/animate_003_right.png"" class=""coveredImage test"" style = ""width:100px; height:100px; position:fixed; top:10%;    transform: translate(-50%, -50%);left:51.5%""></img><img src=""media/stimuli/animate_003_right.png"" class=""coveredImage test"" style = ""width:100px; height:100px;position:fixed; top:25%;        transform: translate(-50%, -50%);left:38%""></img><img src=""media/stimuli/animate_003_left.png"" class=""coveredImage test"" style = ""width:100px; height:100px;position:fixed; top:25%;        transform: translate(-50%, -50%);left:54.5%""></img><img src=""media/stimuli/animate_003_left.png"" class=""coveredImage test"" style = ""width:100px; height:100px;position:fixed; top:25%;        transform: translate(-50%, -50%);left:61.5%""></img><img src=""media/f.png""style = ""width:30px x; height:30px;position:fixed; top:43%;    transform: translate(-50%, -50%);left:40%""></img><img src=""media/j.png""style = ""width:30px; height:30px;position:fixed; top:43%;    transform: translate(-50%, -50%);left:60%""></img>","media/stimuli/animate_003_right.png","animate","right","pair","media/stimuli/animate_003_right.png","animate","right","single","media/stimuli/animate_003_left.png","animate","left","pair","number_pose","","","",""
