"success","timeout","failed_images","failed_audio","failed_video","trial_type","trial_index","time_elapsed","internal_node_id","subject","prolific_id","study","session","window_width","window_height","view_history","rt","stimulus_type","response","question_order","rating_type","rating_stimulus","rating_animacy","rating_number","rating_pose","stimulus","target","target_animacy","target_pose","target_number","left","left_animacy","left_pose","left_number","right","right_animacy","right_pose","right_number","comparison_type"
"true","false","[]","[]","[]","preload","0","25387","0.0-0.0","SS1678233255084","5e6bdd2a3ea572199bb7f6b6","6406d7f26dd5b7fc1e3377bd","6407ce76b33cc00d42b44d93","1536","722","","","","","","","","","","","","","","","","","","","","","","","",""
"","","","","","instructions","1","75604","0.0-1.0","SS1678233255084","5e6bdd2a3ea572199bb7f6b6","6406d7f26dd5b7fc1e3377bd","6407ce76b33cc00d42b44d93","1536","722","[{""page_index"":0,""viewing_time"":50215}]","50216","","","","","","","","","","","","","","","","","","","","","",""
"","","","","","instructions","2","90381","0.0-2.0","SS1678233255084","5e6bdd2a3ea572199bb7f6b6","6406d7f26dd5b7fc1e3377bd","6407ce76b33cc00d42b44d93","1536","722","[{""page_index"":0,""viewing_time"":12775}]","12775","instructions","","","","","","","","","","","","","","","","","","","","",""
"","","","","","instructions","3","172134","0.0-3.0","SS1678233255084","5e6bdd2a3ea572199bb7f6b6","6406d7f26dd5b7fc1e3377bd","6407ce76b33cc00d42b44d93","1536","722","[{""page_index"":0,""viewing_time"":81751}]","81751","instructions","","","","","","","","","","","","","","","","","","","","",""
"","","","","","survey-likert","4","186734","0.0-4.0","SS1678233255084","5e6bdd2a3ea572199bb7f6b6","6406d7f26dd5b7fc1e3377bd","6407ce76b33cc00d42b44d93","1536","722","","14597","","{""Q0"":5}","[0]","anchoring","","","","","","","","","","","","","","","","","",""
"","","","","","survey-likert","5","194966","0.0-5.0","SS1678233255084","5e6bdd2a3ea572199bb7f6b6","6406d7f26dd5b7fc1e3377bd","6407ce76b33cc00d42b44d93","1536","722","","8228","","{""Q0"":1}","[0]","anchoring","","","","","","","","","","","","","","","","","",""
"","","","","","instructions","6","197356","0.0-6.0","SS1678233255084","5e6bdd2a3ea572199bb7f6b6","6406d7f26dd5b7fc1e3377bd","6407ce76b33cc00d42b44d93","1536","722","[{""page_index"":0,""viewing_time"":2386}]","2386","instructions","","","","","","","","","","","","","","","","","","","","",""
"true","","","","","fullscreen","7","200740","0.0-7.0","SS1678233255084","5e6bdd2a3ea572199bb7f6b6","6406d7f26dd5b7fc1e3377bd","6407ce76b33cc00d42b44d93","1536","722","","","","","","","","","","","","","","","","","","","","","","","",""
"","","","","","survey-likert","8","206554","0.0-8.0","SS1678233255084","5e6bdd2a3ea572199bb7f6b6","6406d7f26dd5b7fc1e3377bd","6407ce76b33cc00d42b44d93","1536","722","","5811","","{""Q0"":1}","[0]","complexity","media/stimuli/inanimate_004_right.png","inanimate","pair","right","","","","","","","","","","","","","",""
"","","","","","survey-likert","9","212434","0.0-9.0","SS1678233255084","5e6bdd2a3ea572199bb7f6b6","6406d7f26dd5b7fc1e3377bd","6407ce76b33cc00d42b44d93","1536","722","","5875","","{""Q0"":2}","[0]","complexity","media/stimuli/animate_009_left.png","animate","single","left","","","","","","","","","","","","","",""
"","","","","","survey-likert","10","216630","0.0-10.0","SS1678233255084","5e6bdd2a3ea572199bb7f6b6","6406d7f26dd5b7fc1e3377bd","6407ce76b33cc00d42b44d93","1536","722","","4190","","{""Q0"":1}","[0]","complexity","media/stimuli/animate_007_right.png","animate","pair","right","","","","","","","","","","","","","",""
"","","","","","survey-likert","11","223012","0.0-11.0","SS1678233255084","5e6bdd2a3ea572199bb7f6b6","6406d7f26dd5b7fc1e3377bd","6407ce76b33cc00d42b44d93","1536","722","","6377","","{""Q0"":2}","[0]","complexity","media/stimuli/animate_008_left.png","animate","pair","left","","","","","","","","","","","","","",""
"","","","","","survey-likert","12","228427","0.0-12.0","SS1678233255084","5e6bdd2a3ea572199bb7f6b6","6406d7f26dd5b7fc1e3377bd","6407ce76b33cc00d42b44d93","1536","722","","5410","","{""Q0"":1}","[0]","complexity","media/stimuli/animate_007_left.png","animate","single","left","","","","","","","","","","","","","",""
"","","","","","survey-likert","13","238925","0.0-13.0","SS1678233255084","5e6bdd2a3ea572199bb7f6b6","6406d7f26dd5b7fc1e3377bd","6407ce76b33cc00d42b44d93","1536","722","","10494","","{""Q0"":2}","[0]","complexity","media/stimuli/inanimate_006_left.png","inanimate","pair","left","","","","","","","","","","","","","",""
"","","","","","survey-likert","14","246714","0.0-14.0","SS1678233255084","5e6bdd2a3ea572199bb7f6b6","6406d7f26dd5b7fc1e3377bd","6407ce76b33cc00d42b44d93","1536","722","","7785","","{""Q0"":1}","[0]","complexity","media/stimuli/inanimate_011_right.png","inanimate","single","right","","","","","","","","","","","","","",""
"","","","","","survey-likert","15","251456","0.0-15.0","SS1678233255084","5e6bdd2a3ea572199bb7f6b6","6406d7f26dd5b7fc1e3377bd","6407ce76b33cc00d42b44d93","1536","722","","4736","","{""Q0"":1}","[0]","complexity","media/stimuli/inanimate_012_left.png","inanimate","single","left","","","","","","","","","","","","","",""
"","","","","","survey-likert","16","256198","0.0-16.0","SS1678233255084","5e6bdd2a3ea572199bb7f6b6","6406d7f26dd5b7fc1e3377bd","6407ce76b33cc00d42b44d93","1536","722","","4738","","{""Q0"":2}","[0]","complexity","media/stimuli/animate_012_left.png","animate","pair","left","","","","","","","","","","","","","",""
"","","","","","survey-likert","17","261082","0.0-17.0","SS1678233255084","5e6bdd2a3ea572199bb7f6b6","6406d7f26dd5b7fc1e3377bd","6407ce76b33cc00d42b44d93","1536","722","","4878","","{""Q0"":2}","[0]","complexity","media/stimuli/animate_006_left.png","animate","single","left","","","","","","","","","","","","","",""
"","","","","","survey-likert","18","265808","0.0-18.0","SS1678233255084","5e6bdd2a3ea572199bb7f6b6","6406d7f26dd5b7fc1e3377bd","6407ce76b33cc00d42b44d93","1536","722","","4722","","{""Q0"":2}","[0]","complexity","media/stimuli/animate_004_left.png","animate","single","left","","","","","","","","","","","","","",""
"","","","","","survey-likert","19","272696","0.0-19.0","SS1678233255084","5e6bdd2a3ea572199bb7f6b6","6406d7f26dd5b7fc1e3377bd","6407ce76b33cc00d42b44d93","1536","722","","6881","","{""Q0"":1}","[0]","complexity","media/stimuli/inanimate_001_right.png","inanimate","pair","right","","","","","","","","","","","","","",""
"","","","","","html-keyboard-response","20","276229","0.0-20.0","SS1678233255084","5e6bdd2a3ea572199bb7f6b6","6406d7f26dd5b7fc1e3377bd","6407ce76b33cc00d42b44d93","1536","722","","3527","","r","","","","","","","","","","","","","","","","","","","",""
"","","","","","html-keyboard-response","21","291095","0.0-21.0","SS1678233255084","5e6bdd2a3ea572199bb7f6b6","6406d7f26dd5b7fc1e3377bd","6407ce76b33cc00d42b44d93","1536","722","","14864","","j","","","","","","","<img src=""media/stimuli/animate_007_left.png"" class=""coveredImage test"" style = ""width:100px; height:100px; position:fixed; top:10%;    transform: translate(-50%, -50%);left:44.5%""></img><img src=""media/stimuli/animate_007_left.png"" class=""coveredImage test"" style = ""width:100px; height:100px; position:fixed; top:10%;    transform: translate(-50%, -50%);left:51.5%""></img><img src=""media/stimuli/inanimate_009_left.png"" class=""coveredImage test"" style = ""width:100px; height:100px;position:fixed; top:25%;        transform: translate(-50%, -50%);left:34.5%""></img><img src=""media/stimuli/inanimate_009_left.png"" class=""coveredImage test"" style = ""width:100px; height:100px;position:fixed; top:25%;        transform: translate(-50%, -50%);left:41.5%""></img><img src=""media/stimuli/animate_008_left.png"" class=""coveredImage test"" style = ""width:100px; height:100px;position:fixed; top:25%;        transform: translate(-50%, -50%);left:54.5%""></img><img src=""media/stimuli/animate_008_left.png"" class=""coveredImage test"" style = ""width:100px; height:100px;position:fixed; top:25%;        transform: translate(-50%, -50%);left:61.5%""></img><img src=""media/f.png""style = ""width:30px x; height:30px;position:fixed; top:43%;    transform: translate(-50%, -50%);left:40%""></img><img src=""media/j.png""style = ""width:30px; height:30px;position:fixed; top:43%;    transform: translate(-50%, -50%);left:60%""></img>","media/stimuli/animate_007_left.png","animate","left","pair","media/stimuli/inanimate_009_left.png","inanimate","left","pair","media/stimuli/animate_008_left.png","animate","left","pair","animacy_identity"
"","","","","","html-keyboard-response","22","300992","0.0-22.0","SS1678233255084","5e6bdd2a3ea572199bb7f6b6","6406d7f26dd5b7fc1e3377bd","6407ce76b33cc00d42b44d93","1536","722","","9894","","j","","","","","","","<img src=""media/stimuli/animate_002_right.png"" class=""coveredImage test"" style = ""width:100px; height:100px; position:fixed; top:10%;    transform: translate(-50%, -50%);left:48%""></img><img src=""media/stimuli/animate_012_right.png"" class=""coveredImage test"" style = ""width:100px; height:100px;position:fixed; top:25%;        transform: translate(-50%, -50%);left:38%""></img><img src=""media/stimuli/animate_002_left.png"" class=""coveredImage test"" style = ""width:100px; height:100px;position:fixed; top:25%;        transform: translate(-50%, -50%);left:58%""></img><img src=""media/f.png""style = ""width:30px x; height:30px;position:fixed; top:43%;    transform: translate(-50%, -50%);left:40%""></img><img src=""media/j.png""style = ""width:30px; height:30px;position:fixed; top:43%;    transform: translate(-50%, -50%);left:60%""></img>","media/stimuli/animate_002_right.png","animate","right","single","media/stimuli/animate_012_right.png","animate","right","single","media/stimuli/animate_002_left.png","animate","left","single","identity_pose"
"","","","","","html-keyboard-response","23","304289","0.0-23.0","SS1678233255084","5e6bdd2a3ea572199bb7f6b6","6406d7f26dd5b7fc1e3377bd","6407ce76b33cc00d42b44d93","1536","722","","3295","","j","","","","","","","<img src=""media/stimuli/animate_005_left.png"" class=""coveredImage test"" style = ""width:100px; height:100px; position:fixed; top:10%;    transform: translate(-50%, -50%);left:48%""></img><img src=""media/stimuli/inanimate_004_left.png"" class=""coveredImage test"" style = ""width:100px; height:100px;position:fixed; top:25%;        transform: translate(-50%, -50%);left:38%""></img><img src=""media/stimuli/animate_011_left.png"" class=""coveredImage test"" style = ""width:100px; height:100px;position:fixed; top:25%;        transform: translate(-50%, -50%);left:58%""></img><img src=""media/f.png""style = ""width:30px x; height:30px;position:fixed; top:43%;    transform: translate(-50%, -50%);left:40%""></img><img src=""media/j.png""style = ""width:30px; height:30px;position:fixed; top:43%;    transform: translate(-50%, -50%);left:60%""></img>","media/stimuli/animate_005_left.png","animate","left","single","media/stimuli/inanimate_004_left.png","inanimate","left","single","media/stimuli/animate_011_left.png","animate","left","single","animacy_identity"
"","","","","","html-keyboard-response","24","308277","0.0-24.0","SS1678233255084","5e6bdd2a3ea572199bb7f6b6","6406d7f26dd5b7fc1e3377bd","6407ce76b33cc00d42b44d93","1536","722","","3986","","j","","","","","","","<img src=""media/stimuli/inanimate_010_right.png"" class=""coveredImage test"" style = ""width:100px; height:100px; position:fixed; top:10%;    transform: translate(-50%, -50%);left:48%""></img><img src=""media/stimuli/animate_005_right.png"" class=""coveredImage test"" style = ""width:100px; height:100px;position:fixed; top:25%;        transform: translate(-50%, -50%);left:34.5%""></img><img src=""media/stimuli/animate_005_right.png"" class=""coveredImage test"" style = ""width:100px; height:100px;position:fixed; top:25%;        transform: translate(-50%, -50%);left:41.5%""></img><img src=""media/stimuli/inanimate_010_left.png"" class=""coveredImage test"" style = ""width:100px; height:100px;position:fixed; top:25%;        transform: translate(-50%, -50%);left:54.5%""></img><img src=""media/stimuli/inanimate_010_left.png"" class=""coveredImage test"" style = ""width:100px; height:100px;position:fixed; top:25%;        transform: translate(-50%, -50%);left:61.5%""></img><img src=""media/f.png""style = ""width:30px x; height:30px;position:fixed; top:43%;    transform: translate(-50%, -50%);left:40%""></img><img src=""media/j.png""style = ""width:30px; height:30px;position:fixed; top:43%;    transform: translate(-50%, -50%);left:60%""></img>","media/stimuli/inanimate_010_right.png","inanimate","right","single","media/stimuli/animate_005_right.png","animate","right","pair","media/stimuli/inanimate_010_left.png","inanimate","left","pair","animacy_pose"
"","","","","","html-keyboard-response","25","310723","0.0-25.0","SS1678233255084","5e6bdd2a3ea572199bb7f6b6","6406d7f26dd5b7fc1e3377bd","6407ce76b33cc00d42b44d93","1536","722","","2444","","f","","","","","","","<img src=""media/stimuli/inanimate_008_left.png"" class=""coveredImage test"" style = ""width:100px; height:100px; position:fixed; top:10%;    transform: translate(-50%, -50%);left:44.5%""></img><img src=""media/stimuli/inanimate_008_left.png"" class=""coveredImage test"" style = ""width:100px; height:100px; position:fixed; top:10%;    transform: translate(-50%, -50%);left:51.5%""></img><img src=""media/stimuli/inanimate_008_left.png"" class=""coveredImage test"" style = ""width:100px; height:100px;position:fixed; top:25%;        transform: translate(-50%, -50%);left:38%""></img><img src=""media/stimuli/inanimate_011_left.png"" class=""coveredImage test"" style = ""width:100px; height:100px;position:fixed; top:25%;        transform: translate(-50%, -50%);left:54.5%""></img><img src=""media/stimuli/inanimate_011_left.png"" class=""coveredImage test"" style = ""width:100px; height:100px;position:fixed; top:25%;        transform: translate(-50%, -50%);left:61.5%""></img><img src=""media/f.png""style = ""width:30px x; height:30px;position:fixed; top:43%;    transform: translate(-50%, -50%);left:40%""></img><img src=""media/j.png""style = ""width:30px; height:30px;position:fixed; top:43%;    transform: translate(-50%, -50%);left:60%""></img>","media/stimuli/inanimate_008_left.png","inanimate","left","pair","media/stimuli/inanimate_008_left.png","inanimate","left","single","media/stimuli/inanimate_011_left.png","inanimate","left","pair","number_identity"
"","","","","","html-keyboard-response","26","312601","0.0-26.0","SS1678233255084","5e6bdd2a3ea572199bb7f6b6","6406d7f26dd5b7fc1e3377bd","6407ce76b33cc00d42b44d93","1536","722","","1874","","f","","","","","","","<img src=""media/stimuli/inanimate_007_right.png"" class=""coveredImage test"" style = ""width:100px; height:100px; position:fixed; top:10%;    transform: translate(-50%, -50%);left:48%""></img><img src=""media/stimuli/inanimate_007_right.png"" class=""coveredImage test"" style = ""width:100px; height:100px;position:fixed; top:25%;        transform: translate(-50%, -50%);left:34.5%""></img><img src=""media/stimuli/inanimate_007_right.png"" class=""coveredImage test"" style = ""width:100px; height:100px;position:fixed; top:25%;        transform: translate(-50%, -50%);left:41.5%""></img><img src=""media/stimuli/animate_002_right.png"" class=""coveredImage test"" style = ""width:100px; height:100px;position:fixed; top:25%;        transform: translate(-50%, -50%);left:58%""></img><img src=""media/f.png""style = ""width:30px x; height:30px;position:fixed; top:43%;    transform: translate(-50%, -50%);left:40%""></img><img src=""media/j.png""style = ""width:30px; height:30px;position:fixed; top:43%;    transform: translate(-50%, -50%);left:60%""></img>","media/stimuli/inanimate_007_right.png","inanimate","right","single","media/stimuli/inanimate_007_right.png","inanimate","right","pair","media/stimuli/animate_002_right.png","animate","right","single","number_animacy"
"","","","","","html-keyboard-response","27","315060","0.0-27.0","SS1678233255084","5e6bdd2a3ea572199bb7f6b6","6406d7f26dd5b7fc1e3377bd","6407ce76b33cc00d42b44d93","1536","722","","2456","","j","","","","","","","<img src=""media/stimuli/inanimate_001_right.png"" class=""coveredImage test"" style = ""width:100px; height:100px; position:fixed; top:10%;    transform: translate(-50%, -50%);left:44.5%""></img><img src=""media/stimuli/inanimate_001_right.png"" class=""coveredImage test"" style = ""width:100px; height:100px; position:fixed; top:10%;    transform: translate(-50%, -50%);left:51.5%""></img><img src=""media/stimuli/animate_008_left.png"" class=""coveredImage test"" style = ""width:100px; height:100px;position:fixed; top:25%;        transform: translate(-50%, -50%);left:34.5%""></img><img src=""media/stimuli/animate_008_left.png"" class=""coveredImage test"" style = ""width:100px; height:100px;position:fixed; top:25%;        transform: translate(-50%, -50%);left:41.5%""></img><img src=""media/stimuli/inanimate_001_right.png"" class=""coveredImage test"" style = ""width:100px; height:100px;position:fixed; top:25%;        transform: translate(-50%, -50%);left:54.5%""></img><img src=""media/stimuli/inanimate_001_right.png"" class=""coveredImage test"" style = ""width:100px; height:100px;position:fixed; top:25%;        transform: translate(-50%, -50%);left:61.5%""></img><img src=""media/f.png""style = ""width:30px x; height:30px;position:fixed; top:43%;    transform: translate(-50%, -50%);left:40%""></img><img src=""media/j.png""style = ""width:30px; height:30px;position:fixed; top:43%;    transform: translate(-50%, -50%);left:60%""></img>","media/stimuli/inanimate_001_right.png","inanimate","right","pair","media/stimuli/animate_008_left.png","animate","left","pair","media/stimuli/inanimate_001_right.png","inanimate","right","pair","animacy_pose"
"","","","","","html-keyboard-response","28","319585","0.0-28.0","SS1678233255084","5e6bdd2a3ea572199bb7f6b6","6406d7f26dd5b7fc1e3377bd","6407ce76b33cc00d42b44d93","1536","722","","4521","","j","","","","","","","<img src=""media/stimuli/animate_007_left.png"" class=""coveredImage test"" style = ""width:100px; height:100px; position:fixed; top:10%;    transform: translate(-50%, -50%);left:44.5%""></img><img src=""media/stimuli/animate_007_left.png"" class=""coveredImage test"" style = ""width:100px; height:100px; position:fixed; top:10%;    transform: translate(-50%, -50%);left:51.5%""></img><img src=""media/stimuli/inanimate_004_left.png"" class=""coveredImage test"" style = ""width:100px; height:100px;position:fixed; top:25%;        transform: translate(-50%, -50%);left:34.5%""></img><img src=""media/stimuli/inanimate_004_left.png"" class=""coveredImage test"" style = ""width:100px; height:100px;position:fixed; top:25%;        transform: translate(-50%, -50%);left:41.5%""></img><img src=""media/stimuli/animate_009_left.png"" class=""coveredImage test"" style = ""width:100px; height:100px;position:fixed; top:25%;        transform: translate(-50%, -50%);left:54.5%""></img><img src=""media/stimuli/animate_009_left.png"" class=""coveredImage test"" style = ""width:100px; height:100px;position:fixed; top:25%;        transform: translate(-50%, -50%);left:61.5%""></img><img src=""media/f.png""style = ""width:30px x; height:30px;position:fixed; top:43%;    transform: translate(-50%, -50%);left:40%""></img><img src=""media/j.png""style = ""width:30px; height:30px;position:fixed; top:43%;    transform: translate(-50%, -50%);left:60%""></img>","media/stimuli/animate_007_left.png","animate","left","pair","media/stimuli/inanimate_004_left.png","inanimate","left","pair","media/stimuli/animate_009_left.png","animate","left","pair","animacy_identity"
"","","","","","html-keyboard-response","29","322108","0.0-29.0","SS1678233255084","5e6bdd2a3ea572199bb7f6b6","6406d7f26dd5b7fc1e3377bd","6407ce76b33cc00d42b44d93","1536","722","","2520","","j","","","","","","","<img src=""media/stimuli/inanimate_012_right.png"" class=""coveredImage test"" style = ""width:100px; height:100px; position:fixed; top:10%;    transform: translate(-50%, -50%);left:44.5%""></img><img src=""media/stimuli/inanimate_012_right.png"" class=""coveredImage test"" style = ""width:100px; height:100px; position:fixed; top:10%;    transform: translate(-50%, -50%);left:51.5%""></img><img src=""media/stimuli/inanimate_007_right.png"" class=""coveredImage test"" style = ""width:100px; height:100px;position:fixed; top:25%;        transform: translate(-50%, -50%);left:34.5%""></img><img src=""media/stimuli/inanimate_007_right.png"" class=""coveredImage test"" style = ""width:100px; height:100px;position:fixed; top:25%;        transform: translate(-50%, -50%);left:41.5%""></img><img src=""media/stimuli/inanimate_012_left.png"" class=""coveredImage test"" style = ""width:100px; height:100px;position:fixed; top:25%;        transform: translate(-50%, -50%);left:54.5%""></img><img src=""media/stimuli/inanimate_012_left.png"" class=""coveredImage test"" style = ""width:100px; height:100px;position:fixed; top:25%;        transform: translate(-50%, -50%);left:61.5%""></img><img src=""media/f.png""style = ""width:30px x; height:30px;position:fixed; top:43%;    transform: translate(-50%, -50%);left:40%""></img><img src=""media/j.png""style = ""width:30px; height:30px;position:fixed; top:43%;    transform: translate(-50%, -50%);left:60%""></img>","media/stimuli/inanimate_012_right.png","inanimate","right","pair","media/stimuli/inanimate_007_right.png","inanimate","right","pair","media/stimuli/inanimate_012_left.png","inanimate","left","pair","identity_pose"
"","","","","","html-keyboard-response","30","324682","0.0-30.0","SS1678233255084","5e6bdd2a3ea572199bb7f6b6","6406d7f26dd5b7fc1e3377bd","6407ce76b33cc00d42b44d93","1536","722","","2570","","j","","","","","","","<img src=""media/stimuli/inanimate_002_left.png"" class=""coveredImage test"" style = ""width:100px; height:100px; position:fixed; top:10%;    transform: translate(-50%, -50%);left:44.5%""></img><img src=""media/stimuli/inanimate_002_left.png"" class=""coveredImage test"" style = ""width:100px; height:100px; position:fixed; top:10%;    transform: translate(-50%, -50%);left:51.5%""></img><img src=""media/stimuli/animate_005_left.png"" class=""coveredImage test"" style = ""width:100px; height:100px;position:fixed; top:25%;        transform: translate(-50%, -50%);left:34.5%""></img><img src=""media/stimuli/animate_005_left.png"" class=""coveredImage test"" style = ""width:100px; height:100px;position:fixed; top:25%;        transform: translate(-50%, -50%);left:41.5%""></img><img src=""media/stimuli/inanimate_002_left.png"" class=""coveredImage test"" style = ""width:100px; height:100px;position:fixed; top:25%;        transform: translate(-50%, -50%);left:58%""></img><img src=""media/f.png""style = ""width:30px x; height:30px;position:fixed; top:43%;    transform: translate(-50%, -50%);left:40%""></img><img src=""media/j.png""style = ""width:30px; height:30px;position:fixed; top:43%;    transform: translate(-50%, -50%);left:60%""></img>","media/stimuli/inanimate_002_left.png","inanimate","left","pair","media/stimuli/animate_005_left.png","animate","left","pair","media/stimuli/inanimate_002_left.png","inanimate","left","single","animacy_number"
"","","","","","html-keyboard-response","31","329954","0.0-31.0","SS1678233255084","5e6bdd2a3ea572199bb7f6b6","6406d7f26dd5b7fc1e3377bd","6407ce76b33cc00d42b44d93","1536","722","","5269","","f","","","","","","","<img src=""media/stimuli/animate_005_right.png"" class=""coveredImage test"" style = ""width:100px; height:100px; position:fixed; top:10%;    transform: translate(-50%, -50%);left:48%""></img><img src=""media/stimuli/animate_005_left.png"" class=""coveredImage test"" style = ""width:100px; height:100px;position:fixed; top:25%;        transform: translate(-50%, -50%);left:38%""></img><img src=""media/stimuli/animate_009_right.png"" class=""coveredImage test"" style = ""width:100px; height:100px;position:fixed; top:25%;        transform: translate(-50%, -50%);left:58%""></img><img src=""media/f.png""style = ""width:30px x; height:30px;position:fixed; top:43%;    transform: translate(-50%, -50%);left:40%""></img><img src=""media/j.png""style = ""width:30px; height:30px;position:fixed; top:43%;    transform: translate(-50%, -50%);left:60%""></img>","media/stimuli/animate_005_right.png","animate","right","single","media/stimuli/animate_005_left.png","animate","left","single","media/stimuli/animate_009_right.png","animate","right","single","pose_identity"
"","","","","","html-keyboard-response","32","334655","0.0-32.0","SS1678233255084","5e6bdd2a3ea572199bb7f6b6","6406d7f26dd5b7fc1e3377bd","6407ce76b33cc00d42b44d93","1536","722","","4697","","f","","","","","","","<img src=""media/stimuli/inanimate_004_left.png"" class=""coveredImage test"" style = ""width:100px; height:100px; position:fixed; top:10%;    transform: translate(-50%, -50%);left:48%""></img><img src=""media/stimuli/inanimate_004_left.png"" class=""coveredImage test"" style = ""width:100px; height:100px;position:fixed; top:25%;        transform: translate(-50%, -50%);left:34.5%""></img><img src=""media/stimuli/inanimate_004_left.png"" class=""coveredImage test"" style = ""width:100px; height:100px;position:fixed; top:25%;        transform: translate(-50%, -50%);left:41.5%""></img><img src=""media/stimuli/inanimate_007_left.png"" class=""coveredImage test"" style = ""width:100px; height:100px;position:fixed; top:25%;        transform: translate(-50%, -50%);left:58%""></img><img src=""media/f.png""style = ""width:30px x; height:30px;position:fixed; top:43%;    transform: translate(-50%, -50%);left:40%""></img><img src=""media/j.png""style = ""width:30px; height:30px;position:fixed; top:43%;    transform: translate(-50%, -50%);left:60%""></img>","media/stimuli/inanimate_004_left.png","inanimate","left","single","media/stimuli/inanimate_004_left.png","inanimate","left","pair","media/stimuli/inanimate_007_left.png","inanimate","left","single","number_identity"
"","","","","","html-keyboard-response","33","336794","0.0-33.0","SS1678233255084","5e6bdd2a3ea572199bb7f6b6","6406d7f26dd5b7fc1e3377bd","6407ce76b33cc00d42b44d93","1536","722","","2136","","f","","","","","","","","","","","","","","","","","","","",""
"","","","","","html-keyboard-response","34","338872","0.0-34.0","SS1678233255084","5e6bdd2a3ea572199bb7f6b6","6406d7f26dd5b7fc1e3377bd","6407ce76b33cc00d42b44d93","1536","722","","2076","","f","","","","","","","<img src=""media/stimuli/inanimate_004_left.png"" class=""coveredImage test"" style = ""width:100px; height:100px; position:fixed; top:10%;    transform: translate(-50%, -50%);left:48%""></img><img src=""media/stimuli/inanimate_004_left.png"" class=""coveredImage test"" style = ""width:100px; height:100px;position:fixed; top:25%;        transform: translate(-50%, -50%);left:34.5%""></img><img src=""media/stimuli/inanimate_004_left.png"" class=""coveredImage test"" style = ""width:100px; height:100px;position:fixed; top:25%;        transform: translate(-50%, -50%);left:41.5%""></img><img src=""media/stimuli/inanimate_008_left.png"" class=""coveredImage test"" style = ""width:100px; height:100px;position:fixed; top:25%;        transform: translate(-50%, -50%);left:58%""></img><img src=""media/f.png""style = ""width:30px x; height:30px;position:fixed; top:43%;    transform: translate(-50%, -50%);left:40%""></img><img src=""media/j.png""style = ""width:30px; height:30px;position:fixed; top:43%;    transform: translate(-50%, -50%);left:60%""></img>","media/stimuli/inanimate_004_left.png","inanimate","left","single","media/stimuli/inanimate_004_left.png","inanimate","left","pair","media/stimuli/inanimate_008_left.png","inanimate","left","single","number_identity"
"","","","","","html-keyboard-response","35","341745","0.0-35.0","SS1678233255084","5e6bdd2a3ea572199bb7f6b6","6406d7f26dd5b7fc1e3377bd","6407ce76b33cc00d42b44d93","1536","722","","2869","","j","","","","","","","<img src=""media/stimuli/animate_003_left.png"" class=""coveredImage test"" style = ""width:100px; height:100px; position:fixed; top:10%;    transform: translate(-50%, -50%);left:44.5%""></img><img src=""media/stimuli/animate_003_left.png"" class=""coveredImage test"" style = ""width:100px; height:100px; position:fixed; top:10%;    transform: translate(-50%, -50%);left:51.5%""></img><img src=""media/stimuli/inanimate_002_left.png"" class=""coveredImage test"" style = ""width:100px; height:100px;position:fixed; top:25%;        transform: translate(-50%, -50%);left:34.5%""></img><img src=""media/stimuli/inanimate_002_left.png"" class=""coveredImage test"" style = ""width:100px; height:100px;position:fixed; top:25%;        transform: translate(-50%, -50%);left:41.5%""></img><img src=""media/stimuli/animate_003_left.png"" class=""coveredImage test"" style = ""width:100px; height:100px;position:fixed; top:25%;        transform: translate(-50%, -50%);left:58%""></img><img src=""media/f.png""style = ""width:30px x; height:30px;position:fixed; top:43%;    transform: translate(-50%, -50%);left:40%""></img><img src=""media/j.png""style = ""width:30px; height:30px;position:fixed; top:43%;    transform: translate(-50%, -50%);left:60%""></img>","media/stimuli/animate_003_left.png","animate","left","pair","media/stimuli/inanimate_002_left.png","inanimate","left","pair","media/stimuli/animate_003_left.png","animate","left","single","animacy_number"
"","","","","","html-keyboard-response","36","344042","0.0-36.0","SS1678233255084","5e6bdd2a3ea572199bb7f6b6","6406d7f26dd5b7fc1e3377bd","6407ce76b33cc00d42b44d93","1536","722","","2294","","f","","","","","","","<img src=""media/stimuli/inanimate_010_right.png"" class=""coveredImage test"" style = ""width:100px; height:100px; position:fixed; top:10%;    transform: translate(-50%, -50%);left:44.5%""></img><img src=""media/stimuli/inanimate_010_right.png"" class=""coveredImage test"" style = ""width:100px; height:100px; position:fixed; top:10%;    transform: translate(-50%, -50%);left:51.5%""></img><img src=""media/stimuli/inanimate_010_right.png"" class=""coveredImage test"" style = ""width:100px; height:100px;position:fixed; top:25%;        transform: translate(-50%, -50%);left:38%""></img><img src=""media/stimuli/animate_011_right.png"" class=""coveredImage test"" style = ""width:100px; height:100px;position:fixed; top:25%;        transform: translate(-50%, -50%);left:54.5%""></img><img src=""media/stimuli/animate_011_right.png"" class=""coveredImage test"" style = ""width:100px; height:100px;position:fixed; top:25%;        transform: translate(-50%, -50%);left:61.5%""></img><img src=""media/f.png""style = ""width:30px x; height:30px;position:fixed; top:43%;    transform: translate(-50%, -50%);left:40%""></img><img src=""media/j.png""style = ""width:30px; height:30px;position:fixed; top:43%;    transform: translate(-50%, -50%);left:60%""></img>","media/stimuli/inanimate_010_right.png","inanimate","right","pair","media/stimuli/inanimate_010_right.png","inanimate","right","single","media/stimuli/animate_011_right.png","animate","right","pair","number_animacy"
"","","","","","html-keyboard-response","37","345516","0.0-37.0","SS1678233255084","5e6bdd2a3ea572199bb7f6b6","6406d7f26dd5b7fc1e3377bd","6407ce76b33cc00d42b44d93","1536","722","","1471","","f","","","","","","","<img src=""media/stimuli/animate_002_left.png"" class=""coveredImage test"" style = ""width:100px; height:100px; position:fixed; top:10%;    transform: translate(-50%, -50%);left:48%""></img><img src=""media/stimuli/animate_002_left.png"" class=""coveredImage test"" style = ""width:100px; height:100px;position:fixed; top:25%;        transform: translate(-50%, -50%);left:34.5%""></img><img src=""media/stimuli/animate_002_left.png"" class=""coveredImage test"" style = ""width:100px; height:100px;position:fixed; top:25%;        transform: translate(-50%, -50%);left:41.5%""></img><img src=""media/stimuli/animate_002_right.png"" class=""coveredImage test"" style = ""width:100px; height:100px;position:fixed; top:25%;        transform: translate(-50%, -50%);left:58%""></img><img src=""media/f.png""style = ""width:30px x; height:30px;position:fixed; top:43%;    transform: translate(-50%, -50%);left:40%""></img><img src=""media/j.png""style = ""width:30px; height:30px;position:fixed; top:43%;    transform: translate(-50%, -50%);left:60%""></img>","media/stimuli/animate_002_left.png","animate","left","single","media/stimuli/animate_002_left.png","animate","left","pair","media/stimuli/animate_002_right.png","animate","right","single","number_pose"
"","","","","","html-keyboard-response","38","347645","0.0-38.0","SS1678233255084","5e6bdd2a3ea572199bb7f6b6","6406d7f26dd5b7fc1e3377bd","6407ce76b33cc00d42b44d93","1536","722","","2124","","j","","","","","","","<img src=""media/stimuli/animate_012_right.png"" class=""coveredImage test"" style = ""width:100px; height:100px; position:fixed; top:10%;    transform: translate(-50%, -50%);left:48%""></img><img src=""media/stimuli/inanimate_012_right.png"" class=""coveredImage test"" style = ""width:100px; height:100px;position:fixed; top:25%;        transform: translate(-50%, -50%);left:34.5%""></img><img src=""media/stimuli/inanimate_012_right.png"" class=""coveredImage test"" style = ""width:100px; height:100px;position:fixed; top:25%;        transform: translate(-50%, -50%);left:41.5%""></img><img src=""media/stimuli/animate_012_left.png"" class=""coveredImage test"" style = ""width:100px; height:100px;position:fixed; top:25%;        transform: translate(-50%, -50%);left:54.5%""></img><img src=""media/stimuli/animate_012_left.png"" class=""coveredImage test"" style = ""width:100px; height:100px;position:fixed; top:25%;        transform: translate(-50%, -50%);left:61.5%""></img><img src=""media/f.png""style = ""width:30px x; height:30px;position:fixed; top:43%;    transform: translate(-50%, -50%);left:40%""></img><img src=""media/j.png""style = ""width:30px; height:30px;position:fixed; top:43%;    transform: translate(-50%, -50%);left:60%""></img>","media/stimuli/animate_012_right.png","animate","right","single","media/stimuli/inanimate_012_right.png","inanimate","right","pair","media/stimuli/animate_012_left.png","animate","left","pair","animacy_pose"
"","","","","","html-keyboard-response","39","352825","0.0-39.0","SS1678233255084","5e6bdd2a3ea572199bb7f6b6","6406d7f26dd5b7fc1e3377bd","6407ce76b33cc00d42b44d93","1536","722","","5177","","j","","","","","","","<img src=""media/stimuli/animate_006_right.png"" class=""coveredImage test"" style = ""width:100px; height:100px; position:fixed; top:10%;    transform: translate(-50%, -50%);left:48%""></img><img src=""media/stimuli/animate_006_right.png"" class=""coveredImage test"" style = ""width:100px; height:100px;position:fixed; top:25%;        transform: translate(-50%, -50%);left:34.5%""></img><img src=""media/stimuli/animate_006_right.png"" class=""coveredImage test"" style = ""width:100px; height:100px;position:fixed; top:25%;        transform: translate(-50%, -50%);left:41.5%""></img><img src=""media/stimuli/animate_006_left.png"" class=""coveredImage test"" style = ""width:100px; height:100px;position:fixed; top:25%;        transform: translate(-50%, -50%);left:58%""></img><img src=""media/f.png""style = ""width:30px x; height:30px;position:fixed; top:43%;    transform: translate(-50%, -50%);left:40%""></img><img src=""media/j.png""style = ""width:30px; height:30px;position:fixed; top:43%;    transform: translate(-50%, -50%);left:60%""></img>","media/stimuli/animate_006_right.png","animate","right","single","media/stimuli/animate_006_right.png","animate","right","pair","media/stimuli/animate_006_left.png","animate","left","single","number_pose"
"","","","","","html-keyboard-response","40","354379","0.0-40.0","SS1678233255084","5e6bdd2a3ea572199bb7f6b6","6406d7f26dd5b7fc1e3377bd","6407ce76b33cc00d42b44d93","1536","722","","1552","","j","","","","","","","<img src=""media/stimuli/animate_004_right.png"" class=""coveredImage test"" style = ""width:100px; height:100px; position:fixed; top:10%;    transform: translate(-50%, -50%);left:44.5%""></img><img src=""media/stimuli/animate_004_right.png"" class=""coveredImage test"" style = ""width:100px; height:100px; position:fixed; top:10%;    transform: translate(-50%, -50%);left:51.5%""></img><img src=""media/stimuli/inanimate_009_left.png"" class=""coveredImage test"" style = ""width:100px; height:100px;position:fixed; top:25%;        transform: translate(-50%, -50%);left:34.5%""></img><img src=""media/stimuli/inanimate_009_left.png"" class=""coveredImage test"" style = ""width:100px; height:100px;position:fixed; top:25%;        transform: translate(-50%, -50%);left:41.5%""></img><img src=""media/stimuli/animate_004_right.png"" class=""coveredImage test"" style = ""width:100px; height:100px;position:fixed; top:25%;        transform: translate(-50%, -50%);left:54.5%""></img><img src=""media/stimuli/animate_004_right.png"" class=""coveredImage test"" style = ""width:100px; height:100px;position:fixed; top:25%;        transform: translate(-50%, -50%);left:61.5%""></img><img src=""media/f.png""style = ""width:30px x; height:30px;position:fixed; top:43%;    transform: translate(-50%, -50%);left:40%""></img><img src=""media/j.png""style = ""width:30px; height:30px;position:fixed; top:43%;    transform: translate(-50%, -50%);left:60%""></img>","media/stimuli/animate_004_right.png","animate","right","pair","media/stimuli/inanimate_009_left.png","inanimate","left","pair","media/stimuli/animate_004_right.png","animate","right","pair","animacy_pose"
"","","","","","html-keyboard-response","41","358753","0.0-41.0","SS1678233255084","5e6bdd2a3ea572199bb7f6b6","6406d7f26dd5b7fc1e3377bd","6407ce76b33cc00d42b44d93","1536","722","","4369","","j","","","","","","","<img src=""media/stimuli/inanimate_008_left.png"" class=""coveredImage test"" style = ""width:100px; height:100px; position:fixed; top:10%;    transform: translate(-50%, -50%);left:44.5%""></img><img src=""media/stimuli/inanimate_008_left.png"" class=""coveredImage test"" style = ""width:100px; height:100px; position:fixed; top:10%;    transform: translate(-50%, -50%);left:51.5%""></img><img src=""media/stimuli/inanimate_009_left.png"" class=""coveredImage test"" style = ""width:100px; height:100px;position:fixed; top:25%;        transform: translate(-50%, -50%);left:34.5%""></img><img src=""media/stimuli/inanimate_009_left.png"" class=""coveredImage test"" style = ""width:100px; height:100px;position:fixed; top:25%;        transform: translate(-50%, -50%);left:41.5%""></img><img src=""media/stimuli/inanimate_008_right.png"" class=""coveredImage test"" style = ""width:100px; height:100px;position:fixed; top:25%;        transform: translate(-50%, -50%);left:54.5%""></img><img src=""media/stimuli/inanimate_008_right.png"" class=""coveredImage test"" style = ""width:100px; height:100px;position:fixed; top:25%;        transform: translate(-50%, -50%);left:61.5%""></img><img src=""media/f.png""style = ""width:30px x; height:30px;position:fixed; top:43%;    transform: translate(-50%, -50%);left:40%""></img><img src=""media/j.png""style = ""width:30px; height:30px;position:fixed; top:43%;    transform: translate(-50%, -50%);left:60%""></img>","media/stimuli/inanimate_008_left.png","inanimate","left","pair","media/stimuli/inanimate_009_left.png","inanimate","left","pair","media/stimuli/inanimate_008_right.png","inanimate","right","pair","identity_pose"
"","","","","","html-keyboard-response","42","362166","0.0-42.0","SS1678233255084","5e6bdd2a3ea572199bb7f6b6","6406d7f26dd5b7fc1e3377bd","6407ce76b33cc00d42b44d93","1536","722","","3409","","f","","","","","","","<img src=""media/stimuli/animate_010_left.png"" class=""coveredImage test"" style = ""width:100px; height:100px; position:fixed; top:10%;    transform: translate(-50%, -50%);left:48%""></img><img src=""media/stimuli/animate_010_left.png"" class=""coveredImage test"" style = ""width:100px; height:100px;position:fixed; top:25%;        transform: translate(-50%, -50%);left:34.5%""></img><img src=""media/stimuli/animate_010_left.png"" class=""coveredImage test"" style = ""width:100px; height:100px;position:fixed; top:25%;        transform: translate(-50%, -50%);left:41.5%""></img><img src=""media/stimuli/animate_003_left.png"" class=""coveredImage test"" style = ""width:100px; height:100px;position:fixed; top:25%;        transform: translate(-50%, -50%);left:58%""></img><img src=""media/f.png""style = ""width:30px x; height:30px;position:fixed; top:43%;    transform: translate(-50%, -50%);left:40%""></img><img src=""media/j.png""style = ""width:30px; height:30px;position:fixed; top:43%;    transform: translate(-50%, -50%);left:60%""></img>","media/stimuli/animate_010_left.png","animate","left","single","media/stimuli/animate_010_left.png","animate","left","pair","media/stimuli/animate_003_left.png","animate","left","single","number_identity"
"","","","","","html-keyboard-response","43","364481","0.0-43.0","SS1678233255084","5e6bdd2a3ea572199bb7f6b6","6406d7f26dd5b7fc1e3377bd","6407ce76b33cc00d42b44d93","1536","722","","2312","","j","","","","","","","<img src=""media/stimuli/animate_002_right.png"" class=""coveredImage test"" style = ""width:100px; height:100px; position:fixed; top:10%;    transform: translate(-50%, -50%);left:48%""></img><img src=""media/stimuli/animate_008_right.png"" class=""coveredImage test"" style = ""width:100px; height:100px;position:fixed; top:25%;        transform: translate(-50%, -50%);left:38%""></img><img src=""media/stimuli/animate_002_left.png"" class=""coveredImage test"" style = ""width:100px; height:100px;position:fixed; top:25%;        transform: translate(-50%, -50%);left:58%""></img><img src=""media/f.png""style = ""width:30px x; height:30px;position:fixed; top:43%;    transform: translate(-50%, -50%);left:40%""></img><img src=""media/j.png""style = ""width:30px; height:30px;position:fixed; top:43%;    transform: translate(-50%, -50%);left:60%""></img>","media/stimuli/animate_002_right.png","animate","right","single","media/stimuli/animate_008_right.png","animate","right","single","media/stimuli/animate_002_left.png","animate","left","single","identity_pose"
"","","","","","html-keyboard-response","44","369053","0.0-44.0","SS1678233255084","5e6bdd2a3ea572199bb7f6b6","6406d7f26dd5b7fc1e3377bd","6407ce76b33cc00d42b44d93","1536","722","","4567","","f","","","","","","","<img src=""media/stimuli/animate_009_left.png"" class=""coveredImage test"" style = ""width:100px; height:100px; position:fixed; top:10%;    transform: translate(-50%, -50%);left:44.5%""></img><img src=""media/stimuli/animate_009_left.png"" class=""coveredImage test"" style = ""width:100px; height:100px; position:fixed; top:10%;    transform: translate(-50%, -50%);left:51.5%""></img><img src=""media/stimuli/animate_009_right.png"" class=""coveredImage test"" style = ""width:100px; height:100px;position:fixed; top:25%;        transform: translate(-50%, -50%);left:34.5%""></img><img src=""media/stimuli/animate_009_right.png"" class=""coveredImage test"" style = ""width:100px; height:100px;position:fixed; top:25%;        transform: translate(-50%, -50%);left:41.5%""></img><img src=""media/stimuli/animate_005_left.png"" class=""coveredImage test"" style = ""width:100px; height:100px;position:fixed; top:25%;        transform: translate(-50%, -50%);left:54.5%""></img><img src=""media/stimuli/animate_005_left.png"" class=""coveredImage test"" style = ""width:100px; height:100px;position:fixed; top:25%;        transform: translate(-50%, -50%);left:61.5%""></img><img src=""media/f.png""style = ""width:30px x; height:30px;position:fixed; top:43%;    transform: translate(-50%, -50%);left:40%""></img><img src=""media/j.png""style = ""width:30px; height:30px;position:fixed; top:43%;    transform: translate(-50%, -50%);left:60%""></img>","media/stimuli/animate_009_left.png","animate","left","pair","media/stimuli/animate_009_right.png","animate","right","pair","media/stimuli/animate_005_left.png","animate","left","pair","pose_identity"
"","","","","","html-keyboard-response","45","371233","0.0-45.0","SS1678233255084","5e6bdd2a3ea572199bb7f6b6","6406d7f26dd5b7fc1e3377bd","6407ce76b33cc00d42b44d93","1536","722","","2177","","j","","","","","","","<img src=""media/stimuli/inanimate_006_left.png"" class=""coveredImage test"" style = ""width:100px; height:100px; position:fixed; top:10%;    transform: translate(-50%, -50%);left:48%""></img><img src=""media/stimuli/inanimate_002_left.png"" class=""coveredImage test"" style = ""width:100px; height:100px;position:fixed; top:25%;        transform: translate(-50%, -50%);left:38%""></img><img src=""media/stimuli/inanimate_006_right.png"" class=""coveredImage test"" style = ""width:100px; height:100px;position:fixed; top:25%;        transform: translate(-50%, -50%);left:58%""></img><img src=""media/f.png""style = ""width:30px x; height:30px;position:fixed; top:43%;    transform: translate(-50%, -50%);left:40%""></img><img src=""media/j.png""style = ""width:30px; height:30px;position:fixed; top:43%;    transform: translate(-50%, -50%);left:60%""></img>","media/stimuli/inanimate_006_left.png","inanimate","left","single","media/stimuli/inanimate_002_left.png","inanimate","left","single","media/stimuli/inanimate_006_right.png","inanimate","right","single","identity_pose"
"","","","","","html-keyboard-response","46","378900","0.0-46.0","SS1678233255084","5e6bdd2a3ea572199bb7f6b6","6406d7f26dd5b7fc1e3377bd","6407ce76b33cc00d42b44d93","1536","722","","7663","","j","","","","","","","<img src=""media/stimuli/animate_003_left.png"" class=""coveredImage test"" style = ""width:100px; height:100px; position:fixed; top:10%;    transform: translate(-50%, -50%);left:48%""></img><img src=""media/stimuli/animate_003_right.png"" class=""coveredImage test"" style = ""width:100px; height:100px;position:fixed; top:25%;        transform: translate(-50%, -50%);left:38%""></img><img src=""media/stimuli/animate_003_left.png"" class=""coveredImage test"" style = ""width:100px; height:100px;position:fixed; top:25%;        transform: translate(-50%, -50%);left:54.5%""></img><img src=""media/stimuli/animate_003_left.png"" class=""coveredImage test"" style = ""width:100px; height:100px;position:fixed; top:25%;        transform: translate(-50%, -50%);left:61.5%""></img><img src=""media/f.png""style = ""width:30px x; height:30px;position:fixed; top:43%;    transform: translate(-50%, -50%);left:40%""></img><img src=""media/j.png""style = ""width:30px; height:30px;position:fixed; top:43%;    transform: translate(-50%, -50%);left:60%""></img>","media/stimuli/animate_003_left.png","animate","left","single","media/stimuli/animate_003_right.png","animate","right","single","media/stimuli/animate_003_left.png","animate","left","pair","pose_number"
"","","","","","html-keyboard-response","47","382178","0.0-47.0","SS1678233255084","5e6bdd2a3ea572199bb7f6b6","6406d7f26dd5b7fc1e3377bd","6407ce76b33cc00d42b44d93","1536","722","","3276","","j","","","","","","","<img src=""media/stimuli/inanimate_012_right.png"" class=""coveredImage test"" style = ""width:100px; height:100px; position:fixed; top:10%;    transform: translate(-50%, -50%);left:48%""></img><img src=""media/stimuli/inanimate_001_right.png"" class=""coveredImage test"" style = ""width:100px; height:100px;position:fixed; top:25%;        transform: translate(-50%, -50%);left:38%""></img><img src=""media/stimuli/inanimate_012_right.png"" class=""coveredImage test"" style = ""width:100px; height:100px;position:fixed; top:25%;        transform: translate(-50%, -50%);left:54.5%""></img><img src=""media/stimuli/inanimate_012_right.png"" class=""coveredImage test"" style = ""width:100px; height:100px;position:fixed; top:25%;        transform: translate(-50%, -50%);left:61.5%""></img><img src=""media/f.png""style = ""width:30px x; height:30px;position:fixed; top:43%;    transform: translate(-50%, -50%);left:40%""></img><img src=""media/j.png""style = ""width:30px; height:30px;position:fixed; top:43%;    transform: translate(-50%, -50%);left:60%""></img>","media/stimuli/inanimate_012_right.png","inanimate","right","single","media/stimuli/inanimate_001_right.png","inanimate","right","single","media/stimuli/inanimate_012_right.png","inanimate","right","pair","identity_number"
"","","","","","html-keyboard-response","48","389012","0.0-48.0","SS1678233255084","5e6bdd2a3ea572199bb7f6b6","6406d7f26dd5b7fc1e3377bd","6407ce76b33cc00d42b44d93","1536","722","","6830","","j","","","","","","","<img src=""media/stimuli/animate_007_right.png"" class=""coveredImage test"" style = ""width:100px; height:100px; position:fixed; top:10%;    transform: translate(-50%, -50%);left:44.5%""></img><img src=""media/stimuli/animate_007_right.png"" class=""coveredImage test"" style = ""width:100px; height:100px; position:fixed; top:10%;    transform: translate(-50%, -50%);left:51.5%""></img><img src=""media/stimuli/animate_007_left.png"" class=""coveredImage test"" style = ""width:100px; height:100px;position:fixed; top:25%;        transform: translate(-50%, -50%);left:34.5%""></img><img src=""media/stimuli/animate_007_left.png"" class=""coveredImage test"" style = ""width:100px; height:100px;position:fixed; top:25%;        transform: translate(-50%, -50%);left:41.5%""></img><img src=""media/stimuli/animate_007_right.png"" class=""coveredImage test"" style = ""width:100px; height:100px;position:fixed; top:25%;        transform: translate(-50%, -50%);left:58%""></img><img src=""media/f.png""style = ""width:30px x; height:30px;position:fixed; top:43%;    transform: translate(-50%, -50%);left:40%""></img><img src=""media/j.png""style = ""width:30px; height:30px;position:fixed; top:43%;    transform: translate(-50%, -50%);left:60%""></img>","media/stimuli/animate_007_right.png","animate","right","pair","media/stimuli/animate_007_left.png","animate","left","pair","media/stimuli/animate_007_right.png","animate","right","single","pose_number"
"","","","","","html-keyboard-response","49","392394","0.0-49.0","SS1678233255084","5e6bdd2a3ea572199bb7f6b6","6406d7f26dd5b7fc1e3377bd","6407ce76b33cc00d42b44d93","1536","722","","3379","","j","","","","","","","<img src=""media/stimuli/animate_007_right.png"" class=""coveredImage test"" style = ""width:100px; height:100px; position:fixed; top:10%;    transform: translate(-50%, -50%);left:48%""></img><img src=""media/stimuli/animate_006_right.png"" class=""coveredImage test"" style = ""width:100px; height:100px;position:fixed; top:25%;        transform: translate(-50%, -50%);left:38%""></img><img src=""media/stimuli/animate_007_right.png"" class=""coveredImage test"" style = ""width:100px; height:100px;position:fixed; top:25%;        transform: translate(-50%, -50%);left:54.5%""></img><img src=""media/stimuli/animate_007_right.png"" class=""coveredImage test"" style = ""width:100px; height:100px;position:fixed; top:25%;        transform: translate(-50%, -50%);left:61.5%""></img><img src=""media/f.png""style = ""width:30px x; height:30px;position:fixed; top:43%;    transform: translate(-50%, -50%);left:40%""></img><img src=""media/j.png""style = ""width:30px; height:30px;position:fixed; top:43%;    transform: translate(-50%, -50%);left:60%""></img>","media/stimuli/animate_007_right.png","animate","right","single","media/stimuli/animate_006_right.png","animate","right","single","media/stimuli/animate_007_right.png","animate","right","pair","identity_number"
"","","","","","html-keyboard-response","50","394351","0.0-50.0","SS1678233255084","5e6bdd2a3ea572199bb7f6b6","6406d7f26dd5b7fc1e3377bd","6407ce76b33cc00d42b44d93","1536","722","","1954","","j","","","","","","","","","","","","","","","","","","","",""
"","","","","","survey-likert","51","401828","0.0-51.0","SS1678233255084","5e6bdd2a3ea572199bb7f6b6","6406d7f26dd5b7fc1e3377bd","6407ce76b33cc00d42b44d93","1536","722","","7472","","{""Q0"":1}","[0]","complexity","media/stimuli/inanimate_003_left.png","inanimate","single","left","","","","","","","","","","","","","",""
"","","","","","survey-likert","52","405844","0.0-52.0","SS1678233255084","5e6bdd2a3ea572199bb7f6b6","6406d7f26dd5b7fc1e3377bd","6407ce76b33cc00d42b44d93","1536","722","","4009","","{""Q0"":2}","[0]","complexity","media/stimuli/inanimate_011_right.png","inanimate","pair","right","","","","","","","","","","","","","",""
"","","","","","survey-likert","53","410462","0.0-53.0","SS1678233255084","5e6bdd2a3ea572199bb7f6b6","6406d7f26dd5b7fc1e3377bd","6407ce76b33cc00d42b44d93","1536","722","","4607","","{""Q0"":1}","[0]","complexity","media/stimuli/inanimate_002_right.png","inanimate","single","right","","","","","","","","","","","","","",""
"","","","","","survey-likert","54","416890","0.0-54.0","SS1678233255084","5e6bdd2a3ea572199bb7f6b6","6406d7f26dd5b7fc1e3377bd","6407ce76b33cc00d42b44d93","1536","722","","6417","","{""Q0"":1}","[0]","complexity","media/stimuli/inanimate_012_right.png","inanimate","single","right","","","","","","","","","","","","","",""
"","","","","","survey-likert","55","422708","0.0-55.0","SS1678233255084","5e6bdd2a3ea572199bb7f6b6","6406d7f26dd5b7fc1e3377bd","6407ce76b33cc00d42b44d93","1536","722","","5811","","{""Q0"":2}","[0]","complexity","media/stimuli/inanimate_012_right.png","inanimate","pair","right","","","","","","","","","","","","","",""
"","","","","","survey-likert","56","426336","0.0-56.0","SS1678233255084","5e6bdd2a3ea572199bb7f6b6","6406d7f26dd5b7fc1e3377bd","6407ce76b33cc00d42b44d93","1536","722","","3619","","{""Q0"":2}","[0]","complexity","media/stimuli/animate_006_right.png","animate","pair","right","","","","","","","","","","","","","",""
"","","","","","survey-likert","57","431294","0.0-57.0","SS1678233255084","5e6bdd2a3ea572199bb7f6b6","6406d7f26dd5b7fc1e3377bd","6407ce76b33cc00d42b44d93","1536","722","","4949","","{""Q0"":2}","[0]","complexity","media/stimuli/animate_001_right.png","animate","pair","right","","","","","","","","","","","","","",""
"","","","","","survey-likert","58","435920","0.0-58.0","SS1678233255084","5e6bdd2a3ea572199bb7f6b6","6406d7f26dd5b7fc1e3377bd","6407ce76b33cc00d42b44d93","1536","722","","4620","","{""Q0"":1}","[0]","complexity","media/stimuli/inanimate_008_right.png","inanimate","pair","right","","","","","","","","","","","","","",""
"","","","","","survey-likert","59","439294","0.0-59.0","SS1678233255084","5e6bdd2a3ea572199bb7f6b6","6406d7f26dd5b7fc1e3377bd","6407ce76b33cc00d42b44d93","1536","722","","3365","","{""Q0"":2}","[0]","complexity","media/stimuli/animate_007_left.png","animate","pair","left","","","","","","","","","","","","","",""
"","","","","","survey-likert","60","442505","0.0-60.0","SS1678233255084","5e6bdd2a3ea572199bb7f6b6","6406d7f26dd5b7fc1e3377bd","6407ce76b33cc00d42b44d93","1536","722","","3199","","{""Q0"":2}","[0]","complexity","media/stimuli/animate_002_left.png","animate","pair","left","","","","","","","","","","","","","",""
"","","","","","survey-likert","61","445746","0.0-61.0","SS1678233255084","5e6bdd2a3ea572199bb7f6b6","6406d7f26dd5b7fc1e3377bd","6407ce76b33cc00d42b44d93","1536","722","","3235","","{""Q0"":2}","[0]","complexity","media/stimuli/animate_003_right.png","animate","pair","right","","","","","","","","","","","","","",""
"","","","","","survey-likert","62","452584","0.0-62.0","SS1678233255084","5e6bdd2a3ea572199bb7f6b6","6406d7f26dd5b7fc1e3377bd","6407ce76b33cc00d42b44d93","1536","722","","6832","","{""Q0"":2}","[0]","complexity","media/stimuli/animate_002_right.png","animate","single","right","","","","","","","","","","","","","",""
"","","","","","html-keyboard-response","63","454803","0.0-63.0","SS1678233255084","5e6bdd2a3ea572199bb7f6b6","6406d7f26dd5b7fc1e3377bd","6407ce76b33cc00d42b44d93","1536","722","","2213","","d","","","","","","","","","","","","","","","","","","","",""
"","","","","","html-keyboard-response","64","460205","0.0-64.0","SS1678233255084","5e6bdd2a3ea572199bb7f6b6","6406d7f26dd5b7fc1e3377bd","6407ce76b33cc00d42b44d93","1536","722","","5394","","j","","","","","","","<img src=""media/stimuli/animate_011_right.png"" class=""coveredImage test"" style = ""width:100px; height:100px; position:fixed; top:10%;    transform: translate(-50%, -50%);left:44.5%""></img><img src=""media/stimuli/animate_011_right.png"" class=""coveredImage test"" style = ""width:100px; height:100px; position:fixed; top:10%;    transform: translate(-50%, -50%);left:51.5%""></img><img src=""media/stimuli/inanimate_010_right.png"" class=""coveredImage test"" style = ""width:100px; height:100px;position:fixed; top:25%;        transform: translate(-50%, -50%);left:38%""></img><img src=""media/stimuli/animate_011_left.png"" class=""coveredImage test"" style = ""width:100px; height:100px;position:fixed; top:25%;        transform: translate(-50%, -50%);left:58%""></img><img src=""media/f.png""style = ""width:30px x; height:30px;position:fixed; top:43%;    transform: translate(-50%, -50%);left:40%""></img><img src=""media/j.png""style = ""width:30px; height:30px;position:fixed; top:43%;    transform: translate(-50%, -50%);left:60%""></img>","media/stimuli/animate_011_right.png","animate","right","pair","media/stimuli/inanimate_010_right.png","inanimate","right","single","media/stimuli/animate_011_left.png","animate","left","single","animacy_pose"
"","","","","","html-keyboard-response","65","466781","0.0-65.0","SS1678233255084","5e6bdd2a3ea572199bb7f6b6","6406d7f26dd5b7fc1e3377bd","6407ce76b33cc00d42b44d93","1536","722","","6571","","j","","","","","","","<img src=""media/stimuli/animate_001_left.png"" class=""coveredImage test"" style = ""width:100px; height:100px; position:fixed; top:10%;    transform: translate(-50%, -50%);left:48%""></img><img src=""media/stimuli/inanimate_011_left.png"" class=""coveredImage test"" style = ""width:100px; height:100px;position:fixed; top:25%;        transform: translate(-50%, -50%);left:38%""></img><img src=""media/stimuli/animate_002_left.png"" class=""coveredImage test"" style = ""width:100px; height:100px;position:fixed; top:25%;        transform: translate(-50%, -50%);left:58%""></img><img src=""media/f.png""style = ""width:30px x; height:30px;position:fixed; top:43%;    transform: translate(-50%, -50%);left:40%""></img><img src=""media/j.png""style = ""width:30px; height:30px;position:fixed; top:43%;    transform: translate(-50%, -50%);left:60%""></img>","media/stimuli/animate_001_left.png","animate","left","single","media/stimuli/inanimate_011_left.png","inanimate","left","single","media/stimuli/animate_002_left.png","animate","left","single","animacy_identity"
"","","","","","html-keyboard-response","66","472051","0.0-66.0","SS1678233255084","5e6bdd2a3ea572199bb7f6b6","6406d7f26dd5b7fc1e3377bd","6407ce76b33cc00d42b44d93","1536","722","","5265","","f","","","","","","","<img src=""media/stimuli/inanimate_009_left.png"" class=""coveredImage test"" style = ""width:100px; height:100px; position:fixed; top:10%;    transform: translate(-50%, -50%);left:48%""></img><img src=""media/stimuli/inanimate_009_left.png"" class=""coveredImage test"" style = ""width:100px; height:100px;position:fixed; top:25%;        transform: translate(-50%, -50%);left:34.5%""></img><img src=""media/stimuli/inanimate_009_left.png"" class=""coveredImage test"" style = ""width:100px; height:100px;position:fixed; top:25%;        transform: translate(-50%, -50%);left:41.5%""></img><img src=""media/stimuli/inanimate_009_right.png"" class=""coveredImage test"" style = ""width:100px; height:100px;position:fixed; top:25%;        transform: translate(-50%, -50%);left:58%""></img><img src=""media/f.png""style = ""width:30px x; height:30px;position:fixed; top:43%;    transform: translate(-50%, -50%);left:40%""></img><img src=""media/j.png""style = ""width:30px; height:30px;position:fixed; top:43%;    transform: translate(-50%, -50%);left:60%""></img>","media/stimuli/inanimate_009_left.png","inanimate","left","single","media/stimuli/inanimate_009_left.png","inanimate","left","pair","media/stimuli/inanimate_009_right.png","inanimate","right","single","number_pose"
"","","","","","html-keyboard-response","67","474822","0.0-67.0","SS1678233255084","5e6bdd2a3ea572199bb7f6b6","6406d7f26dd5b7fc1e3377bd","6407ce76b33cc00d42b44d93","1536","722","","2768","","j","","","","","","","<img src=""media/stimuli/inanimate_011_right.png"" class=""coveredImage test"" style = ""width:100px; height:100px; position:fixed; top:10%;    transform: translate(-50%, -50%);left:44.5%""></img><img src=""media/stimuli/inanimate_011_right.png"" class=""coveredImage test"" style = ""width:100px; height:100px; position:fixed; top:10%;    transform: translate(-50%, -50%);left:51.5%""></img><img src=""media/stimuli/animate_003_right.png"" class=""coveredImage test"" style = ""width:100px; height:100px;position:fixed; top:25%;        transform: translate(-50%, -50%);left:34.5%""></img><img src=""media/stimuli/animate_003_right.png"" class=""coveredImage test"" style = ""width:100px; height:100px;position:fixed; top:25%;        transform: translate(-50%, -50%);left:41.5%""></img><img src=""media/stimuli/inanimate_011_right.png"" class=""coveredImage test"" style = ""width:100px; height:100px;position:fixed; top:25%;        transform: translate(-50%, -50%);left:58%""></img><img src=""media/f.png""style = ""width:30px x; height:30px;position:fixed; top:43%;    transform: translate(-50%, -50%);left:40%""></img><img src=""media/j.png""style = ""width:30px; height:30px;position:fixed; top:43%;    transform: translate(-50%, -50%);left:60%""></img>","media/stimuli/inanimate_011_right.png","inanimate","right","pair","media/stimuli/animate_003_right.png","animate","right","pair","media/stimuli/inanimate_011_right.png","inanimate","right","single","animacy_number"
"","","","","","html-keyboard-response","68","476768","0.0-68.0","SS1678233255084","5e6bdd2a3ea572199bb7f6b6","6406d7f26dd5b7fc1e3377bd","6407ce76b33cc00d42b44d93","1536","722","","1940","","j","","","","","","","<img src=""media/stimuli/animate_002_left.png"" class=""coveredImage test"" style = ""width:100px; height:100px; position:fixed; top:10%;    transform: translate(-50%, -50%);left:44.5%""></img><img src=""media/stimuli/animate_002_left.png"" class=""coveredImage test"" style = ""width:100px; height:100px; position:fixed; top:10%;    transform: translate(-50%, -50%);left:51.5%""></img><img src=""media/stimuli/inanimate_002_left.png"" class=""coveredImage test"" style = ""width:100px; height:100px;position:fixed; top:25%;        transform: translate(-50%, -50%);left:34.5%""></img><img src=""media/stimuli/inanimate_002_left.png"" class=""coveredImage test"" style = ""width:100px; height:100px;position:fixed; top:25%;        transform: translate(-50%, -50%);left:41.5%""></img><img src=""media/stimuli/animate_002_right.png"" class=""coveredImage test"" style = ""width:100px; height:100px;position:fixed; top:25%;        transform: translate(-50%, -50%);left:54.5%""></img><img src=""media/stimuli/animate_002_right.png"" class=""coveredImage test"" style = ""width:100px; height:100px;position:fixed; top:25%;        transform: translate(-50%, -50%);left:61.5%""></img><img src=""media/f.png""style = ""width:30px x; height:30px;position:fixed; top:43%;    transform: translate(-50%, -50%);left:40%""></img><img src=""media/j.png""style = ""width:30px; height:30px;position:fixed; top:43%;    transform: translate(-50%, -50%);left:60%""></img>","media/stimuli/animate_002_left.png","animate","left","pair","media/stimuli/inanimate_002_left.png","inanimate","left","pair","media/stimuli/animate_002_right.png","animate","right","pair","animacy_pose"
"","","","","","html-keyboard-response","69","480567","0.0-69.0","SS1678233255084","5e6bdd2a3ea572199bb7f6b6","6406d7f26dd5b7fc1e3377bd","6407ce76b33cc00d42b44d93","1536","722","","3795","","f","","","","","","","<img src=""media/stimuli/animate_010_left.png"" class=""coveredImage test"" style = ""width:100px; height:100px; position:fixed; top:10%;    transform: translate(-50%, -50%);left:48%""></img><img src=""media/stimuli/animate_010_left.png"" class=""coveredImage test"" style = ""width:100px; height:100px;position:fixed; top:25%;        transform: translate(-50%, -50%);left:34.5%""></img><img src=""media/stimuli/animate_010_left.png"" class=""coveredImage test"" style = ""width:100px; height:100px;position:fixed; top:25%;        transform: translate(-50%, -50%);left:41.5%""></img><img src=""media/stimuli/animate_005_left.png"" class=""coveredImage test"" style = ""width:100px; height:100px;position:fixed; top:25%;        transform: translate(-50%, -50%);left:58%""></img><img src=""media/f.png""style = ""width:30px x; height:30px;position:fixed; top:43%;    transform: translate(-50%, -50%);left:40%""></img><img src=""media/j.png""style = ""width:30px; height:30px;position:fixed; top:43%;    transform: translate(-50%, -50%);left:60%""></img>","media/stimuli/animate_010_left.png","animate","left","single","media/stimuli/animate_010_left.png","animate","left","pair","media/stimuli/animate_005_left.png","animate","left","single","number_identity"
"","","","","","html-keyboard-response","70","482701","0.0-70.0","SS1678233255084","5e6bdd2a3ea572199bb7f6b6","6406d7f26dd5b7fc1e3377bd","6407ce76b33cc00d42b44d93","1536","722","","2130","","j","","","","","","","<img src=""media/stimuli/animate_010_left.png"" class=""coveredImage test"" style = ""width:100px; height:100px; position:fixed; top:10%;    transform: translate(-50%, -50%);left:48%""></img><img src=""media/stimuli/animate_007_left.png"" class=""coveredImage test"" style = ""width:100px; height:100px;position:fixed; top:25%;        transform: translate(-50%, -50%);left:38%""></img><img src=""media/stimuli/animate_010_left.png"" class=""coveredImage test"" style = ""width:100px; height:100px;position:fixed; top:25%;        transform: translate(-50%, -50%);left:54.5%""></img><img src=""media/stimuli/animate_010_left.png"" class=""coveredImage test"" style = ""width:100px; height:100px;position:fixed; top:25%;        transform: translate(-50%, -50%);left:61.5%""></img><img src=""media/f.png""style = ""width:30px x; height:30px;position:fixed; top:43%;    transform: translate(-50%, -50%);left:40%""></img><img src=""media/j.png""style = ""width:30px; height:30px;position:fixed; top:43%;    transform: translate(-50%, -50%);left:60%""></img>","media/stimuli/animate_010_left.png","animate","left","single","media/stimuli/animate_007_left.png","animate","left","single","media/stimuli/animate_010_left.png","animate","left","pair","identity_number"
"","","","","","html-keyboard-response","71","486682","0.0-71.0","SS1678233255084","5e6bdd2a3ea572199bb7f6b6","6406d7f26dd5b7fc1e3377bd","6407ce76b33cc00d42b44d93","1536","722","","3977","","f","","","","","","","<img src=""media/stimuli/animate_007_left.png"" class=""coveredImage test"" style = ""width:100px; height:100px; position:fixed; top:10%;    transform: translate(-50%, -50%);left:44.5%""></img><img src=""media/stimuli/animate_007_left.png"" class=""coveredImage test"" style = ""width:100px; height:100px; position:fixed; top:10%;    transform: translate(-50%, -50%);left:51.5%""></img><img src=""media/stimuli/animate_012_left.png"" class=""coveredImage test"" style = ""width:100px; height:100px;position:fixed; top:25%;        transform: translate(-50%, -50%);left:34.5%""></img><img src=""media/stimuli/animate_012_left.png"" class=""coveredImage test"" style = ""width:100px; height:100px;position:fixed; top:25%;        transform: translate(-50%, -50%);left:41.5%""></img><img src=""media/stimuli/inanimate_009_left.png"" class=""coveredImage test"" style = ""width:100px; height:100px;position:fixed; top:25%;        transform: translate(-50%, -50%);left:54.5%""></img><img src=""media/stimuli/inanimate_009_left.png"" class=""coveredImage test"" style = ""width:100px; height:100px;position:fixed; top:25%;        transform: translate(-50%, -50%);left:61.5%""></img><img src=""media/f.png""style = ""width:30px x; height:30px;position:fixed; top:43%;    transform: translate(-50%, -50%);left:40%""></img><img src=""media/j.png""style = ""width:30px; height:30px;position:fixed; top:43%;    transform: translate(-50%, -50%);left:60%""></img>","media/stimuli/animate_007_left.png","animate","left","pair","media/stimuli/animate_012_left.png","animate","left","pair","media/stimuli/inanimate_009_left.png","inanimate","left","pair","identity_animacy"
"","","","","","html-keyboard-response","72","491174","0.0-72.0","SS1678233255084","5e6bdd2a3ea572199bb7f6b6","6406d7f26dd5b7fc1e3377bd","6407ce76b33cc00d42b44d93","1536","722","","4488","","f","","","","","","","<img src=""media/stimuli/animate_001_left.png"" class=""coveredImage test"" style = ""width:100px; height:100px; position:fixed; top:10%;    transform: translate(-50%, -50%);left:48%""></img><img src=""media/stimuli/animate_010_left.png"" class=""coveredImage test"" style = ""width:100px; height:100px;position:fixed; top:25%;        transform: translate(-50%, -50%);left:38%""></img><img src=""media/stimuli/inanimate_009_left.png"" class=""coveredImage test"" style = ""width:100px; height:100px;position:fixed; top:25%;        transform: translate(-50%, -50%);left:58%""></img><img src=""media/f.png""style = ""width:30px x; height:30px;position:fixed; top:43%;    transform: translate(-50%, -50%);left:40%""></img><img src=""media/j.png""style = ""width:30px; height:30px;position:fixed; top:43%;    transform: translate(-50%, -50%);left:60%""></img>","media/stimuli/animate_001_left.png","animate","left","single","media/stimuli/animate_010_left.png","animate","left","single","media/stimuli/inanimate_009_left.png","inanimate","left","single","identity_animacy"
"","","","","","html-keyboard-response","73","494675","0.0-73.0","SS1678233255084","5e6bdd2a3ea572199bb7f6b6","6406d7f26dd5b7fc1e3377bd","6407ce76b33cc00d42b44d93","1536","722","","3496","","f","","","","","","","<img src=""media/stimuli/inanimate_004_left.png"" class=""coveredImage test"" style = ""width:100px; height:100px; position:fixed; top:10%;    transform: translate(-50%, -50%);left:44.5%""></img><img src=""media/stimuli/inanimate_004_left.png"" class=""coveredImage test"" style = ""width:100px; height:100px; position:fixed; top:10%;    transform: translate(-50%, -50%);left:51.5%""></img><img src=""media/stimuli/inanimate_004_left.png"" class=""coveredImage test"" style = ""width:100px; height:100px;position:fixed; top:25%;        transform: translate(-50%, -50%);left:38%""></img><img src=""media/stimuli/animate_011_left.png"" class=""coveredImage test"" style = ""width:100px; height:100px;position:fixed; top:25%;        transform: translate(-50%, -50%);left:54.5%""></img><img src=""media/stimuli/animate_011_left.png"" class=""coveredImage test"" style = ""width:100px; height:100px;position:fixed; top:25%;        transform: translate(-50%, -50%);left:61.5%""></img><img src=""media/f.png""style = ""width:30px x; height:30px;position:fixed; top:43%;    transform: translate(-50%, -50%);left:40%""></img><img src=""media/j.png""style = ""width:30px; height:30px;position:fixed; top:43%;    transform: translate(-50%, -50%);left:60%""></img>","media/stimuli/inanimate_004_left.png","inanimate","left","pair","media/stimuli/inanimate_004_left.png","inanimate","left","single","media/stimuli/animate_011_left.png","animate","left","pair","number_animacy"
"","","","","","html-keyboard-response","74","501128","0.0-74.0","SS1678233255084","5e6bdd2a3ea572199bb7f6b6","6406d7f26dd5b7fc1e3377bd","6407ce76b33cc00d42b44d93","1536","722","","6449","","j","","","","","","","<img src=""media/stimuli/inanimate_012_left.png"" class=""coveredImage test"" style = ""width:100px; height:100px; position:fixed; top:10%;    transform: translate(-50%, -50%);left:48%""></img><img src=""media/stimuli/inanimate_012_left.png"" class=""coveredImage test"" style = ""width:100px; height:100px;position:fixed; top:25%;        transform: translate(-50%, -50%);left:34.5%""></img><img src=""media/stimuli/inanimate_012_left.png"" class=""coveredImage test"" style = ""width:100px; height:100px;position:fixed; top:25%;        transform: translate(-50%, -50%);left:41.5%""></img><img src=""media/stimuli/inanimate_012_right.png"" class=""coveredImage test"" style = ""width:100px; height:100px;position:fixed; top:25%;        transform: translate(-50%, -50%);left:58%""></img><img src=""media/f.png""style = ""width:30px x; height:30px;position:fixed; top:43%;    transform: translate(-50%, -50%);left:40%""></img><img src=""media/j.png""style = ""width:30px; height:30px;position:fixed; top:43%;    transform: translate(-50%, -50%);left:60%""></img>","media/stimuli/inanimate_012_left.png","inanimate","left","single","media/stimuli/inanimate_012_left.png","inanimate","left","pair","media/stimuli/inanimate_012_right.png","inanimate","right","single","number_pose"
"","","","","","html-keyboard-response","75","505531","0.0-75.0","SS1678233255084","5e6bdd2a3ea572199bb7f6b6","6406d7f26dd5b7fc1e3377bd","6407ce76b33cc00d42b44d93","1536","722","","4399","","f","","","","","","","<img src=""media/stimuli/inanimate_012_right.png"" class=""coveredImage test"" style = ""width:100px; height:100px; position:fixed; top:10%;    transform: translate(-50%, -50%);left:44.5%""></img><img src=""media/stimuli/inanimate_012_right.png"" class=""coveredImage test"" style = ""width:100px; height:100px; position:fixed; top:10%;    transform: translate(-50%, -50%);left:51.5%""></img><img src=""media/stimuli/inanimate_012_left.png"" class=""coveredImage test"" style = ""width:100px; height:100px;position:fixed; top:25%;        transform: translate(-50%, -50%);left:34.5%""></img><img src=""media/stimuli/inanimate_012_left.png"" class=""coveredImage test"" style = ""width:100px; height:100px;position:fixed; top:25%;        transform: translate(-50%, -50%);left:41.5%""></img><img src=""media/stimuli/inanimate_010_right.png"" class=""coveredImage test"" style = ""width:100px; height:100px;position:fixed; top:25%;        transform: translate(-50%, -50%);left:54.5%""></img><img src=""media/stimuli/inanimate_010_right.png"" class=""coveredImage test"" style = ""width:100px; height:100px;position:fixed; top:25%;        transform: translate(-50%, -50%);left:61.5%""></img><img src=""media/f.png""style = ""width:30px x; height:30px;position:fixed; top:43%;    transform: translate(-50%, -50%);left:40%""></img><img src=""media/j.png""style = ""width:30px; height:30px;position:fixed; top:43%;    transform: translate(-50%, -50%);left:60%""></img>","media/stimuli/inanimate_012_right.png","inanimate","right","pair","media/stimuli/inanimate_012_left.png","inanimate","left","pair","media/stimuli/inanimate_010_right.png","inanimate","right","pair","pose_identity"
"","","","","","html-keyboard-response","76","506940","0.0-76.0","SS1678233255084","5e6bdd2a3ea572199bb7f6b6","6406d7f26dd5b7fc1e3377bd","6407ce76b33cc00d42b44d93","1536","722","","1403","","f","","","","","","","","","","","","","","","","","","","",""
"","","","","","html-keyboard-response","77","510836","0.0-77.0","SS1678233255084","5e6bdd2a3ea572199bb7f6b6","6406d7f26dd5b7fc1e3377bd","6407ce76b33cc00d42b44d93","1536","722","","3892","","j","","","","","","","<img src=""media/stimuli/inanimate_008_right.png"" class=""coveredImage test"" style = ""width:100px; height:100px; position:fixed; top:10%;    transform: translate(-50%, -50%);left:48%""></img><img src=""media/stimuli/animate_007_right.png"" class=""coveredImage test"" style = ""width:100px; height:100px;position:fixed; top:25%;        transform: translate(-50%, -50%);left:38%""></img><img src=""media/stimuli/inanimate_003_right.png"" class=""coveredImage test"" style = ""width:100px; height:100px;position:fixed; top:25%;        transform: translate(-50%, -50%);left:58%""></img><img src=""media/f.png""style = ""width:30px x; height:30px;position:fixed; top:43%;    transform: translate(-50%, -50%);left:40%""></img><img src=""media/j.png""style = ""width:30px; height:30px;position:fixed; top:43%;    transform: translate(-50%, -50%);left:60%""></img>","media/stimuli/inanimate_008_right.png","inanimate","right","single","media/stimuli/animate_007_right.png","animate","right","single","media/stimuli/inanimate_003_right.png","inanimate","right","single","animacy_identity"
"","","","","","html-keyboard-response","78","515781","0.0-78.0","SS1678233255084","5e6bdd2a3ea572199bb7f6b6","6406d7f26dd5b7fc1e3377bd","6407ce76b33cc00d42b44d93","1536","722","","4941","","f","","","","","","","<img src=""media/stimuli/inanimate_003_left.png"" class=""coveredImage test"" style = ""width:100px; height:100px; position:fixed; top:10%;    transform: translate(-50%, -50%);left:48%""></img><img src=""media/stimuli/inanimate_003_left.png"" class=""coveredImage test"" style = ""width:100px; height:100px;position:fixed; top:25%;        transform: translate(-50%, -50%);left:34.5%""></img><img src=""media/stimuli/inanimate_003_left.png"" class=""coveredImage test"" style = ""width:100px; height:100px;position:fixed; top:25%;        transform: translate(-50%, -50%);left:41.5%""></img><img src=""media/stimuli/inanimate_003_right.png"" class=""coveredImage test"" style = ""width:100px; height:100px;position:fixed; top:25%;        transform: translate(-50%, -50%);left:58%""></img><img src=""media/f.png""style = ""width:30px x; height:30px;position:fixed; top:43%;    transform: translate(-50%, -50%);left:40%""></img><img src=""media/j.png""style = ""width:30px; height:30px;position:fixed; top:43%;    transform: translate(-50%, -50%);left:60%""></img>","media/stimuli/inanimate_003_left.png","inanimate","left","single","media/stimuli/inanimate_003_left.png","inanimate","left","pair","media/stimuli/inanimate_003_right.png","inanimate","right","single","number_pose"
"","","","","","html-keyboard-response","79","518093","0.0-79.0","SS1678233255084","5e6bdd2a3ea572199bb7f6b6","6406d7f26dd5b7fc1e3377bd","6407ce76b33cc00d42b44d93","1536","722","","2308","","j","","","","","","","<img src=""media/stimuli/animate_002_left.png"" class=""coveredImage test"" style = ""width:100px; height:100px; position:fixed; top:10%;    transform: translate(-50%, -50%);left:44.5%""></img><img src=""media/stimuli/animate_002_left.png"" class=""coveredImage test"" style = ""width:100px; height:100px; position:fixed; top:10%;    transform: translate(-50%, -50%);left:51.5%""></img><img src=""media/stimuli/inanimate_004_left.png"" class=""coveredImage test"" style = ""width:100px; height:100px;position:fixed; top:25%;        transform: translate(-50%, -50%);left:34.5%""></img><img src=""media/stimuli/inanimate_004_left.png"" class=""coveredImage test"" style = ""width:100px; height:100px;position:fixed; top:25%;        transform: translate(-50%, -50%);left:41.5%""></img><img src=""media/stimuli/animate_002_left.png"" class=""coveredImage test"" style = ""width:100px; height:100px;position:fixed; top:25%;        transform: translate(-50%, -50%);left:58%""></img><img src=""media/f.png""style = ""width:30px x; height:30px;position:fixed; top:43%;    transform: translate(-50%, -50%);left:40%""></img><img src=""media/j.png""style = ""width:30px; height:30px;position:fixed; top:43%;    transform: translate(-50%, -50%);left:60%""></img>","media/stimuli/animate_002_left.png","animate","left","pair","media/stimuli/inanimate_004_left.png","inanimate","left","pair","media/stimuli/animate_002_left.png","animate","left","single","animacy_number"
"","","","","","html-keyboard-response","80","524257","0.0-80.0","SS1678233255084","5e6bdd2a3ea572199bb7f6b6","6406d7f26dd5b7fc1e3377bd","6407ce76b33cc00d42b44d93","1536","722","","6160","","f","","","","","","","<img src=""media/stimuli/animate_003_right.png"" class=""coveredImage test"" style = ""width:100px; height:100px; position:fixed; top:10%;    transform: translate(-50%, -50%);left:48%""></img><img src=""media/stimuli/animate_003_left.png"" class=""coveredImage test"" style = ""width:100px; height:100px;position:fixed; top:25%;        transform: translate(-50%, -50%);left:38%""></img><img src=""media/stimuli/animate_001_right.png"" class=""coveredImage test"" style = ""width:100px; height:100px;position:fixed; top:25%;        transform: translate(-50%, -50%);left:58%""></img><img src=""media/f.png""style = ""width:30px x; height:30px;position:fixed; top:43%;    transform: translate(-50%, -50%);left:40%""></img><img src=""media/j.png""style = ""width:30px; height:30px;position:fixed; top:43%;    transform: translate(-50%, -50%);left:60%""></img>","media/stimuli/animate_003_right.png","animate","right","single","media/stimuli/animate_003_left.png","animate","left","single","media/stimuli/animate_001_right.png","animate","right","single","pose_identity"
"","","","","","html-keyboard-response","81","527349","0.0-81.0","SS1678233255084","5e6bdd2a3ea572199bb7f6b6","6406d7f26dd5b7fc1e3377bd","6407ce76b33cc00d42b44d93","1536","722","","3086","","f","","","","","","","<img src=""media/stimuli/animate_002_left.png"" class=""coveredImage test"" style = ""width:100px; height:100px; position:fixed; top:10%;    transform: translate(-50%, -50%);left:44.5%""></img><img src=""media/stimuli/animate_002_left.png"" class=""coveredImage test"" style = ""width:100px; height:100px; position:fixed; top:10%;    transform: translate(-50%, -50%);left:51.5%""></img><img src=""media/stimuli/animate_005_left.png"" class=""coveredImage test"" style = ""width:100px; height:100px;position:fixed; top:25%;        transform: translate(-50%, -50%);left:34.5%""></img><img src=""media/stimuli/animate_005_left.png"" class=""coveredImage test"" style = ""width:100px; height:100px;position:fixed; top:25%;        transform: translate(-50%, -50%);left:41.5%""></img><img src=""media/stimuli/inanimate_006_left.png"" class=""coveredImage test"" style = ""width:100px; height:100px;position:fixed; top:25%;        transform: translate(-50%, -50%);left:54.5%""></img><img src=""media/stimuli/inanimate_006_left.png"" class=""coveredImage test"" style = ""width:100px; height:100px;position:fixed; top:25%;        transform: translate(-50%, -50%);left:61.5%""></img><img src=""media/f.png""style = ""width:30px x; height:30px;position:fixed; top:43%;    transform: translate(-50%, -50%);left:40%""></img><img src=""media/j.png""style = ""width:30px; height:30px;position:fixed; top:43%;    transform: translate(-50%, -50%);left:60%""></img>","media/stimuli/animate_002_left.png","animate","left","pair","media/stimuli/animate_005_left.png","animate","left","pair","media/stimuli/inanimate_006_left.png","inanimate","left","pair","identity_animacy"
"","","","","","html-keyboard-response","82","530031","0.0-82.0","SS1678233255084","5e6bdd2a3ea572199bb7f6b6","6406d7f26dd5b7fc1e3377bd","6407ce76b33cc00d42b44d93","1536","722","","2678","","f","","","","","","","<img src=""media/stimuli/inanimate_008_right.png"" class=""coveredImage test"" style = ""width:100px; height:100px; position:fixed; top:10%;    transform: translate(-50%, -50%);left:44.5%""></img><img src=""media/stimuli/inanimate_008_right.png"" class=""coveredImage test"" style = ""width:100px; height:100px; position:fixed; top:10%;    transform: translate(-50%, -50%);left:51.5%""></img><img src=""media/stimuli/inanimate_008_right.png"" class=""coveredImage test"" style = ""width:100px; height:100px;position:fixed; top:25%;        transform: translate(-50%, -50%);left:34.5%""></img><img src=""media/stimuli/inanimate_008_right.png"" class=""coveredImage test"" style = ""width:100px; height:100px;position:fixed; top:25%;        transform: translate(-50%, -50%);left:41.5%""></img><img src=""media/stimuli/inanimate_008_left.png"" class=""coveredImage test"" style = ""width:100px; height:100px;position:fixed; top:25%;        transform: translate(-50%, -50%);left:54.5%""></img><img src=""media/stimuli/inanimate_008_left.png"" class=""coveredImage test"" style = ""width:100px; height:100px;position:fixed; top:25%;        transform: translate(-50%, -50%);left:61.5%""></img><img src=""media/f.png""style = ""width:30px x; height:30px;position:fixed; top:43%;    transform: translate(-50%, -50%);left:40%""></img><img src=""media/j.png""style = ""width:30px; height:30px;position:fixed; top:43%;    transform: translate(-50%, -50%);left:60%""></img>","media/stimuli/inanimate_008_right.png","inanimate","right","pair","media/stimuli/inanimate_008_right.png","inanimate","right","pair","media/stimuli/inanimate_008_left.png","inanimate","left","pair","filler_pose"
"","","","","","html-keyboard-response","83","532305","0.0-83.0","SS1678233255084","5e6bdd2a3ea572199bb7f6b6","6406d7f26dd5b7fc1e3377bd","6407ce76b33cc00d42b44d93","1536","722","","2271","","j","","","","","","","<img src=""media/stimuli/inanimate_011_right.png"" class=""coveredImage test"" style = ""width:100px; height:100px; position:fixed; top:10%;    transform: translate(-50%, -50%);left:48%""></img><img src=""media/stimuli/inanimate_004_right.png"" class=""coveredImage test"" style = ""width:100px; height:100px;position:fixed; top:25%;        transform: translate(-50%, -50%);left:38%""></img><img src=""media/stimuli/inanimate_011_right.png"" class=""coveredImage test"" style = ""width:100px; height:100px;position:fixed; top:25%;        transform: translate(-50%, -50%);left:54.5%""></img><img src=""media/stimuli/inanimate_011_right.png"" class=""coveredImage test"" style = ""width:100px; height:100px;position:fixed; top:25%;        transform: translate(-50%, -50%);left:61.5%""></img><img src=""media/f.png""style = ""width:30px x; height:30px;position:fixed; top:43%;    transform: translate(-50%, -50%);left:40%""></img><img src=""media/j.png""style = ""width:30px; height:30px;position:fixed; top:43%;    transform: translate(-50%, -50%);left:60%""></img>","media/stimuli/inanimate_011_right.png","inanimate","right","single","media/stimuli/inanimate_004_right.png","inanimate","right","single","media/stimuli/inanimate_011_right.png","inanimate","right","pair","identity_number"
"","","","","","html-keyboard-response","84","536020","0.0-84.0","SS1678233255084","5e6bdd2a3ea572199bb7f6b6","6406d7f26dd5b7fc1e3377bd","6407ce76b33cc00d42b44d93","1536","722","","3709","","j","","","","","","","<img src=""media/stimuli/animate_012_right.png"" class=""coveredImage test"" style = ""width:100px; height:100px; position:fixed; top:10%;    transform: translate(-50%, -50%);left:48%""></img><img src=""media/stimuli/inanimate_011_right.png"" class=""coveredImage test"" style = ""width:100px; height:100px;position:fixed; top:25%;        transform: translate(-50%, -50%);left:34.5%""></img><img src=""media/stimuli/inanimate_011_right.png"" class=""coveredImage test"" style = ""width:100px; height:100px;position:fixed; top:25%;        transform: translate(-50%, -50%);left:41.5%""></img><img src=""media/stimuli/animate_012_left.png"" class=""coveredImage test"" style = ""width:100px; height:100px;position:fixed; top:25%;        transform: translate(-50%, -50%);left:54.5%""></img><img src=""media/stimuli/animate_012_left.png"" class=""coveredImage test"" style = ""width:100px; height:100px;position:fixed; top:25%;        transform: translate(-50%, -50%);left:61.5%""></img><img src=""media/f.png""style = ""width:30px x; height:30px;position:fixed; top:43%;    transform: translate(-50%, -50%);left:40%""></img><img src=""media/j.png""style = ""width:30px; height:30px;position:fixed; top:43%;    transform: translate(-50%, -50%);left:60%""></img>","media/stimuli/animate_012_right.png","animate","right","single","media/stimuli/inanimate_011_right.png","inanimate","right","pair","media/stimuli/animate_012_left.png","animate","left","pair","animacy_pose"
"","","","","","html-keyboard-response","85","541513","0.0-85.0","SS1678233255084","5e6bdd2a3ea572199bb7f6b6","6406d7f26dd5b7fc1e3377bd","6407ce76b33cc00d42b44d93","1536","722","","5484","","f","","","","","","","<img src=""media/stimuli/inanimate_001_right.png"" class=""coveredImage test"" style = ""width:100px; height:100px; position:fixed; top:10%;    transform: translate(-50%, -50%);left:48%""></img><img src=""media/stimuli/inanimate_001_right.png"" class=""coveredImage test"" style = ""width:100px; height:100px;position:fixed; top:25%;        transform: translate(-50%, -50%);left:34.5%""></img><img src=""media/stimuli/inanimate_001_right.png"" class=""coveredImage test"" style = ""width:100px; height:100px;position:fixed; top:25%;        transform: translate(-50%, -50%);left:41.5%""></img><img src=""media/stimuli/inanimate_001_left.png"" class=""coveredImage test"" style = ""width:100px; height:100px;position:fixed; top:25%;        transform: translate(-50%, -50%);left:58%""></img><img src=""media/f.png""style = ""width:30px x; height:30px;position:fixed; top:43%;    transform: translate(-50%, -50%);left:40%""></img><img src=""media/j.png""style = ""width:30px; height:30px;position:fixed; top:43%;    transform: translate(-50%, -50%);left:60%""></img>","media/stimuli/inanimate_001_right.png","inanimate","right","single","media/stimuli/inanimate_001_right.png","inanimate","right","pair","media/stimuli/inanimate_001_left.png","inanimate","left","single","number_pose"
"","","","","","html-keyboard-response","86","545121","0.0-86.0","SS1678233255084","5e6bdd2a3ea572199bb7f6b6","6406d7f26dd5b7fc1e3377bd","6407ce76b33cc00d42b44d93","1536","722","","3603","","j","","","","","","","<img src=""media/stimuli/animate_005_left.png"" class=""coveredImage test"" style = ""width:100px; height:100px; position:fixed; top:10%;    transform: translate(-50%, -50%);left:48%""></img><img src=""media/stimuli/animate_005_right.png"" class=""coveredImage test"" style = ""width:100px; height:100px;position:fixed; top:25%;        transform: translate(-50%, -50%);left:38%""></img><img src=""media/stimuli/animate_005_left.png"" class=""coveredImage test"" style = ""width:100px; height:100px;position:fixed; top:25%;        transform: translate(-50%, -50%);left:54.5%""></img><img src=""media/stimuli/animate_005_left.png"" class=""coveredImage test"" style = ""width:100px; height:100px;position:fixed; top:25%;        transform: translate(-50%, -50%);left:61.5%""></img><img src=""media/f.png""style = ""width:30px x; height:30px;position:fixed; top:43%;    transform: translate(-50%, -50%);left:40%""></img><img src=""media/j.png""style = ""width:30px; height:30px;position:fixed; top:43%;    transform: translate(-50%, -50%);left:60%""></img>","media/stimuli/animate_005_left.png","animate","left","single","media/stimuli/animate_005_right.png","animate","right","single","media/stimuli/animate_005_left.png","animate","left","pair","pose_number"
"","","","","","html-keyboard-response","87","548699","0.0-87.0","SS1678233255084","5e6bdd2a3ea572199bb7f6b6","6406d7f26dd5b7fc1e3377bd","6407ce76b33cc00d42b44d93","1536","722","","3574","","f","","","","","","","<img src=""media/stimuli/inanimate_007_right.png"" class=""coveredImage test"" style = ""width:100px; height:100px; position:fixed; top:10%;    transform: translate(-50%, -50%);left:44.5%""></img><img src=""media/stimuli/inanimate_007_right.png"" class=""coveredImage test"" style = ""width:100px; height:100px; position:fixed; top:10%;    transform: translate(-50%, -50%);left:51.5%""></img><img src=""media/stimuli/inanimate_002_right.png"" class=""coveredImage test"" style = ""width:100px; height:100px;position:fixed; top:25%;        transform: translate(-50%, -50%);left:34.5%""></img><img src=""media/stimuli/inanimate_002_right.png"" class=""coveredImage test"" style = ""width:100px; height:100px;position:fixed; top:25%;        transform: translate(-50%, -50%);left:41.5%""></img><img src=""media/stimuli/animate_009_right.png"" class=""coveredImage test"" style = ""width:100px; height:100px;position:fixed; top:25%;        transform: translate(-50%, -50%);left:54.5%""></img><img src=""media/stimuli/animate_009_right.png"" class=""coveredImage test"" style = ""width:100px; height:100px;position:fixed; top:25%;        transform: translate(-50%, -50%);left:61.5%""></img><img src=""media/f.png""style = ""width:30px x; height:30px;position:fixed; top:43%;    transform: translate(-50%, -50%);left:40%""></img><img src=""media/j.png""style = ""width:30px; height:30px;position:fixed; top:43%;    transform: translate(-50%, -50%);left:60%""></img>","media/stimuli/inanimate_007_right.png","inanimate","right","pair","media/stimuli/inanimate_002_right.png","inanimate","right","pair","media/stimuli/animate_009_right.png","animate","right","pair","identity_animacy"
"","","","","","html-keyboard-response","88","555513","0.0-88.0","SS1678233255084","5e6bdd2a3ea572199bb7f6b6","6406d7f26dd5b7fc1e3377bd","6407ce76b33cc00d42b44d93","1536","722","","6808","","j","","","","","","","<img src=""media/stimuli/inanimate_005_left.png"" class=""coveredImage test"" style = ""width:100px; height:100px; position:fixed; top:10%;    transform: translate(-50%, -50%);left:48%""></img><img src=""media/stimuli/inanimate_005_right.png"" class=""coveredImage test"" style = ""width:100px; height:100px;position:fixed; top:25%;        transform: translate(-50%, -50%);left:38%""></img><img src=""media/stimuli/inanimate_005_left.png"" class=""coveredImage test"" style = ""width:100px; height:100px;position:fixed; top:25%;        transform: translate(-50%, -50%);left:54.5%""></img><img src=""media/stimuli/inanimate_005_left.png"" class=""coveredImage test"" style = ""width:100px; height:100px;position:fixed; top:25%;        transform: translate(-50%, -50%);left:61.5%""></img><img src=""media/f.png""style = ""width:30px x; height:30px;position:fixed; top:43%;    transform: translate(-50%, -50%);left:40%""></img><img src=""media/j.png""style = ""width:30px; height:30px;position:fixed; top:43%;    transform: translate(-50%, -50%);left:60%""></img>","media/stimuli/inanimate_005_left.png","inanimate","left","single","media/stimuli/inanimate_005_right.png","inanimate","right","single","media/stimuli/inanimate_005_left.png","inanimate","left","pair","pose_number"
"","","","","","html-keyboard-response","89","556829","0.0-89.0","SS1678233255084","5e6bdd2a3ea572199bb7f6b6","6406d7f26dd5b7fc1e3377bd","6407ce76b33cc00d42b44d93","1536","722","","1311","","j","","","","","","","","","","","","","","","","","","","",""
"","","","","","survey-likert","90","563991","0.0-90.0","SS1678233255084","5e6bdd2a3ea572199bb7f6b6","6406d7f26dd5b7fc1e3377bd","6407ce76b33cc00d42b44d93","1536","722","","7156","","{""Q0"":2}","[0]","complexity","media/stimuli/animate_011_left.png","animate","single","left","","","","","","","","","","","","","",""
"","","","","","survey-likert","91","567905","0.0-91.0","SS1678233255084","5e6bdd2a3ea572199bb7f6b6","6406d7f26dd5b7fc1e3377bd","6407ce76b33cc00d42b44d93","1536","722","","3906","","{""Q0"":2}","[0]","complexity","media/stimuli/animate_007_right.png","animate","single","right","","","","","","","","","","","","","",""
"","","","","","survey-likert","92","573087","0.0-92.0","SS1678233255084","5e6bdd2a3ea572199bb7f6b6","6406d7f26dd5b7fc1e3377bd","6407ce76b33cc00d42b44d93","1536","722","","5169","","{""Q0"":1}","[0]","complexity","media/stimuli/inanimate_001_left.png","inanimate","pair","left","","","","","","","","","","","","","",""
"","","","","","survey-likert","93","577605","0.0-93.0","SS1678233255084","5e6bdd2a3ea572199bb7f6b6","6406d7f26dd5b7fc1e3377bd","6407ce76b33cc00d42b44d93","1536","722","","4507","","{""Q0"":1}","[0]","complexity","media/stimuli/inanimate_004_left.png","inanimate","single","left","","","","","","","","","","","","","",""
"","","","","","survey-likert","94","580863","0.0-94.0","SS1678233255084","5e6bdd2a3ea572199bb7f6b6","6406d7f26dd5b7fc1e3377bd","6407ce76b33cc00d42b44d93","1536","722","","3250","","{""Q0"":1}","[0]","complexity","media/stimuli/inanimate_003_right.png","inanimate","pair","right","","","","","","","","","","","","","",""
"","","","","","survey-likert","95","595013","0.0-95.0","SS1678233255084","5e6bdd2a3ea572199bb7f6b6","6406d7f26dd5b7fc1e3377bd","6407ce76b33cc00d42b44d93","1536","722","","14142","","{""Q0"":2}","[0]","complexity","media/stimuli/animate_008_right.png","animate","pair","right","","","","","","","","","","","","","",""
"","","","","","survey-likert","96","602968","0.0-96.0","SS1678233255084","5e6bdd2a3ea572199bb7f6b6","6406d7f26dd5b7fc1e3377bd","6407ce76b33cc00d42b44d93","1536","722","","7946","","{""Q0"":1}","[0]","complexity","media/stimuli/inanimate_009_left.png","inanimate","single","left","","","","","","","","","","","","","",""
"","","","","","survey-likert","97","605705","0.0-97.0","SS1678233255084","5e6bdd2a3ea572199bb7f6b6","6406d7f26dd5b7fc1e3377bd","6407ce76b33cc00d42b44d93","1536","722","","2725","","{""Q0"":2}","[0]","complexity","media/stimuli/animate_012_right.png","animate","single","right","","","","","","","","","","","","","",""
"","","","","","survey-likert","98","609209","0.0-98.0","SS1678233255084","5e6bdd2a3ea572199bb7f6b6","6406d7f26dd5b7fc1e3377bd","6407ce76b33cc00d42b44d93","1536","722","","3491","","{""Q0"":1}","[0]","complexity","media/stimuli/inanimate_009_right.png","inanimate","single","right","","","","","","","","","","","","","",""
"","","","","","survey-likert","99","614431","0.0-99.0","SS1678233255084","5e6bdd2a3ea572199bb7f6b6","6406d7f26dd5b7fc1e3377bd","6407ce76b33cc00d42b44d93","1536","722","","5214","","{""Q0"":2}","[0]","complexity","media/stimuli/animate_012_left.png","animate","single","left","","","","","","","","","","","","","",""
"","","","","","survey-likert","100","617881","0.0-100.0","SS1678233255084","5e6bdd2a3ea572199bb7f6b6","6406d7f26dd5b7fc1e3377bd","6407ce76b33cc00d42b44d93","1536","722","","3440","","{""Q0"":1}","[0]","complexity","media/stimuli/inanimate_010_left.png","inanimate","single","left","","","","","","","","","","","","","",""
"","","","","","survey-likert","101","621896","0.0-101.0","SS1678233255084","5e6bdd2a3ea572199bb7f6b6","6406d7f26dd5b7fc1e3377bd","6407ce76b33cc00d42b44d93","1536","722","","4006","","{""Q0"":2}","[0]","complexity","media/stimuli/animate_004_left.png","animate","pair","left","","","","","","","","","","","","","",""
"","","","","","html-keyboard-response","102","624012","0.0-102.0","SS1678233255084","5e6bdd2a3ea572199bb7f6b6","6406d7f26dd5b7fc1e3377bd","6407ce76b33cc00d42b44d93","1536","722","","2109","","f","","","","","","","","","","","","","","","","","","","",""
