"success","timeout","failed_images","failed_audio","failed_video","trial_type","trial_index","time_elapsed","internal_node_id","subject","prolific_id","study","session","window_width","window_height","view_history","rt","stimulus_type","response","question_order","rating_type","stimulus","target","target_animacy","target_pose","target_number","left","left_animacy","left_pose","left_number","right","right_animacy","right_pose","right_number","comparison_type","rating_stimulus","rating_animacy","rating_number","rating_pose"
"true","false","[]","[]","[]","preload","0","14993","0.0-0.0","SS1678170761970","5f084a7987a3fe028ff65b8a","6406d7f26dd5b7fc1e3377bd","6406d8bff04d06a81259662a","1024","487","","","","","","","","","","","","","","","","","","","","","","","",""
"","","","","","instructions","1","21390","0.0-1.0","SS1678170761970","5f084a7987a3fe028ff65b8a","6406d7f26dd5b7fc1e3377bd","6406d8bff04d06a81259662a","1024","487","[{""page_index"":0,""viewing_time"":6389}]","6391","","","","","","","","","","","","","","","","","","","","","",""
"","","","","","instructions","2","32451","0.0-2.0","SS1678170761970","5f084a7987a3fe028ff65b8a","6406d7f26dd5b7fc1e3377bd","6406d8bff04d06a81259662a","1024","487","[{""page_index"":0,""viewing_time"":9033}]","9034","instructions","","","","","","","","","","","","","","","","","","","","",""
"","","","","","instructions","3","37093","0.0-3.0","SS1678170761970","5f084a7987a3fe028ff65b8a","6406d7f26dd5b7fc1e3377bd","6406d8bff04d06a81259662a","1024","487","[{""page_index"":0,""viewing_time"":4635}]","4635","instructions","","","","","","","","","","","","","","","","","","","","",""
"","","","","","survey-likert","4","66931","0.0-4.0","SS1678170761970","5f084a7987a3fe028ff65b8a","6406d7f26dd5b7fc1e3377bd","6406d8bff04d06a81259662a","1024","487","","29794","","{""Q0"":5}","[0]","anchoring","","","","","","","","","","","","","","","","","",""
"","","","","","survey-likert","5","77189","0.0-5.0","SS1678170761970","5f084a7987a3fe028ff65b8a","6406d7f26dd5b7fc1e3377bd","6406d8bff04d06a81259662a","1024","487","","10209","","{""Q0"":1}","[0]","anchoring","","","","","","","","","","","","","","","","","",""
"","","","","","instructions","6","80289","0.0-6.0","SS1678170761970","5f084a7987a3fe028ff65b8a","6406d7f26dd5b7fc1e3377bd","6406d8bff04d06a81259662a","1024","487","[{""page_index"":0,""viewing_time"":3076}]","3078","instructions","","","","","","","","","","","","","","","","","","","","",""
"true","","","","","fullscreen","7","83727","0.0-7.0","SS1678170761970","5f084a7987a3fe028ff65b8a","6406d7f26dd5b7fc1e3377bd","6406d8bff04d06a81259662a","1024","487","","","","","","","","","","","","","","","","","","","","","","","",""
"","","","","","html-keyboard-response","8","103615","0.0-8.0","SS1678170761970","5f084a7987a3fe028ff65b8a","6406d7f26dd5b7fc1e3377bd","6406d8bff04d06a81259662a","1024","487","","19870","","f","","","<img src=""media/stimuli/animate_009_left.png"" class=""coveredImage test"" style = ""width:100px; height:100px; position:fixed; top:10%;    transform: translate(-50%, -50%);left:44.5%""></img><img src=""media/stimuli/animate_009_left.png"" class=""coveredImage test"" style = ""width:100px; height:100px; position:fixed; top:10%;    transform: translate(-50%, -50%);left:51.5%""></img><img src=""media/stimuli/animate_009_left.png"" class=""coveredImage test"" style = ""width:100px; height:100px;position:fixed; top:25%;        transform: translate(-50%, -50%);left:38%""></img><img src=""media/stimuli/animate_003_left.png"" class=""coveredImage test"" style = ""width:100px; height:100px;position:fixed; top:25%;        transform: translate(-50%, -50%);left:54.5%""></img><img src=""media/stimuli/animate_003_left.png"" class=""coveredImage test"" style = ""width:100px; height:100px;position:fixed; top:25%;        transform: translate(-50%, -50%);left:61.5%""></img><img src=""media/f.png""style = ""width:30px x; height:30px;position:fixed; top:43%;    transform: translate(-50%, -50%);left:40%""></img><img src=""media/j.png""style = ""width:30px; height:30px;position:fixed; top:43%;    transform: translate(-50%, -50%);left:60%""></img>","media/stimuli/animate_009_left.png","animate","left","pair","media/stimuli/animate_009_left.png","animate","left","single","media/stimuli/animate_003_left.png","animate","left","pair","number_identity","","","",""
"","","","","","html-keyboard-response","9","107902","0.0-9.0","SS1678170761970","5f084a7987a3fe028ff65b8a","6406d7f26dd5b7fc1e3377bd","6406d8bff04d06a81259662a","1024","487","","4276","","f","","","<img src=""media/stimuli/inanimate_001_left.png"" class=""coveredImage test"" style = ""width:100px; height:100px; position:fixed; top:10%;    transform: translate(-50%, -50%);left:48%""></img><img src=""media/stimuli/inanimate_001_right.png"" class=""coveredImage test"" style = ""width:100px; height:100px;position:fixed; top:25%;        transform: translate(-50%, -50%);left:38%""></img><img src=""media/stimuli/inanimate_001_left.png"" class=""coveredImage test"" style = ""width:100px; height:100px;position:fixed; top:25%;        transform: translate(-50%, -50%);left:54.5%""></img><img src=""media/stimuli/inanimate_001_left.png"" class=""coveredImage test"" style = ""width:100px; height:100px;position:fixed; top:25%;        transform: translate(-50%, -50%);left:61.5%""></img><img src=""media/f.png""style = ""width:30px x; height:30px;position:fixed; top:43%;    transform: translate(-50%, -50%);left:40%""></img><img src=""media/j.png""style = ""width:30px; height:30px;position:fixed; top:43%;    transform: translate(-50%, -50%);left:60%""></img>","media/stimuli/inanimate_001_left.png","inanimate","left","single","media/stimuli/inanimate_001_right.png","inanimate","right","single","media/stimuli/inanimate_001_left.png","inanimate","left","pair","pose_number","","","",""
"","","","","","html-keyboard-response","10","111864","0.0-10.0","SS1678170761970","5f084a7987a3fe028ff65b8a","6406d7f26dd5b7fc1e3377bd","6406d8bff04d06a81259662a","1024","487","","3951","","f","","","<img src=""media/stimuli/inanimate_005_right.png"" class=""coveredImage test"" style = ""width:100px; height:100px; position:fixed; top:10%;    transform: translate(-50%, -50%);left:48%""></img><img src=""media/stimuli/inanimate_005_right.png"" class=""coveredImage test"" style = ""width:100px; height:100px;position:fixed; top:25%;        transform: translate(-50%, -50%);left:34.5%""></img><img src=""media/stimuli/inanimate_005_right.png"" class=""coveredImage test"" style = ""width:100px; height:100px;position:fixed; top:25%;        transform: translate(-50%, -50%);left:41.5%""></img><img src=""media/stimuli/inanimate_005_left.png"" class=""coveredImage test"" style = ""width:100px; height:100px;position:fixed; top:25%;        transform: translate(-50%, -50%);left:58%""></img><img src=""media/f.png""style = ""width:30px x; height:30px;position:fixed; top:43%;    transform: translate(-50%, -50%);left:40%""></img><img src=""media/j.png""style = ""width:30px; height:30px;position:fixed; top:43%;    transform: translate(-50%, -50%);left:60%""></img>","media/stimuli/inanimate_005_right.png","inanimate","right","single","media/stimuli/inanimate_005_right.png","inanimate","right","pair","media/stimuli/inanimate_005_left.png","inanimate","left","single","number_pose","","","",""
"","","","","","html-keyboard-response","11","118354","0.0-11.0","SS1678170761970","5f084a7987a3fe028ff65b8a","6406d7f26dd5b7fc1e3377bd","6406d8bff04d06a81259662a","1024","487","","6475","","j","","","<img src=""media/stimuli/animate_006_left.png"" class=""coveredImage test"" style = ""width:100px; height:100px; position:fixed; top:10%;    transform: translate(-50%, -50%);left:44.5%""></img><img src=""media/stimuli/animate_006_left.png"" class=""coveredImage test"" style = ""width:100px; height:100px; position:fixed; top:10%;    transform: translate(-50%, -50%);left:51.5%""></img><img src=""media/stimuli/animate_002_left.png"" class=""coveredImage test"" style = ""width:100px; height:100px;position:fixed; top:25%;        transform: translate(-50%, -50%);left:34.5%""></img><img src=""media/stimuli/animate_002_left.png"" class=""coveredImage test"" style = ""width:100px; height:100px;position:fixed; top:25%;        transform: translate(-50%, -50%);left:41.5%""></img><img src=""media/stimuli/animate_006_left.png"" class=""coveredImage test"" style = ""width:100px; height:100px;position:fixed; top:25%;        transform: translate(-50%, -50%);left:58%""></img><img src=""media/f.png""style = ""width:30px x; height:30px;position:fixed; top:43%;    transform: translate(-50%, -50%);left:40%""></img><img src=""media/j.png""style = ""width:30px; height:30px;position:fixed; top:43%;    transform: translate(-50%, -50%);left:60%""></img>","media/stimuli/animate_006_left.png","animate","left","pair","media/stimuli/animate_002_left.png","animate","left","pair","media/stimuli/animate_006_left.png","animate","left","single","identity_number","","","",""
"","","","","","html-keyboard-response","12","120851","0.0-12.0","SS1678170761970","5f084a7987a3fe028ff65b8a","6406d7f26dd5b7fc1e3377bd","6406d8bff04d06a81259662a","1024","487","","2480","","j","","","<img src=""media/stimuli/inanimate_005_right.png"" class=""coveredImage test"" style = ""width:100px; height:100px; position:fixed; top:10%;    transform: translate(-50%, -50%);left:44.5%""></img><img src=""media/stimuli/inanimate_005_right.png"" class=""coveredImage test"" style = ""width:100px; height:100px; position:fixed; top:10%;    transform: translate(-50%, -50%);left:51.5%""></img><img src=""media/stimuli/inanimate_001_right.png"" class=""coveredImage test"" style = ""width:100px; height:100px;position:fixed; top:25%;        transform: translate(-50%, -50%);left:34.5%""></img><img src=""media/stimuli/inanimate_001_right.png"" class=""coveredImage test"" style = ""width:100px; height:100px;position:fixed; top:25%;        transform: translate(-50%, -50%);left:41.5%""></img><img src=""media/stimuli/inanimate_005_right.png"" class=""coveredImage test"" style = ""width:100px; height:100px;position:fixed; top:25%;        transform: translate(-50%, -50%);left:58%""></img><img src=""media/f.png""style = ""width:30px x; height:30px;position:fixed; top:43%;    transform: translate(-50%, -50%);left:40%""></img><img src=""media/j.png""style = ""width:30px; height:30px;position:fixed; top:43%;    transform: translate(-50%, -50%);left:60%""></img>","media/stimuli/inanimate_005_right.png","inanimate","right","pair","media/stimuli/inanimate_001_right.png","inanimate","right","pair","media/stimuli/inanimate_005_right.png","inanimate","right","single","identity_number","","","",""
"","","","","","html-keyboard-response","13","125445","0.0-13.0","SS1678170761970","5f084a7987a3fe028ff65b8a","6406d7f26dd5b7fc1e3377bd","6406d8bff04d06a81259662a","1024","487","","4575","","f","","","<img src=""media/stimuli/animate_012_right.png"" class=""coveredImage test"" style = ""width:100px; height:100px; position:fixed; top:10%;    transform: translate(-50%, -50%);left:44.5%""></img><img src=""media/stimuli/animate_012_right.png"" class=""coveredImage test"" style = ""width:100px; height:100px; position:fixed; top:10%;    transform: translate(-50%, -50%);left:51.5%""></img><img src=""media/stimuli/animate_012_left.png"" class=""coveredImage test"" style = ""width:100px; height:100px;position:fixed; top:25%;        transform: translate(-50%, -50%);left:38%""></img><img src=""media/stimuli/inanimate_002_right.png"" class=""coveredImage test"" style = ""width:100px; height:100px;position:fixed; top:25%;        transform: translate(-50%, -50%);left:58%""></img><img src=""media/f.png""style = ""width:30px x; height:30px;position:fixed; top:43%;    transform: translate(-50%, -50%);left:40%""></img><img src=""media/j.png""style = ""width:30px; height:30px;position:fixed; top:43%;    transform: translate(-50%, -50%);left:60%""></img>","media/stimuli/animate_012_right.png","animate","right","pair","media/stimuli/animate_012_left.png","animate","left","single","media/stimuli/inanimate_002_right.png","inanimate","right","single","pose_animacy","","","",""
"","","","","","html-keyboard-response","14","128392","0.0-14.0","SS1678170761970","5f084a7987a3fe028ff65b8a","6406d7f26dd5b7fc1e3377bd","6406d8bff04d06a81259662a","1024","487","","2937","","j","","","<img src=""media/stimuli/animate_005_right.png"" class=""coveredImage test"" style = ""width:100px; height:100px; position:fixed; top:10%;    transform: translate(-50%, -50%);left:48%""></img><img src=""media/stimuli/animate_005_left.png"" class=""coveredImage test"" style = ""width:100px; height:100px;position:fixed; top:25%;        transform: translate(-50%, -50%);left:38%""></img><img src=""media/stimuli/animate_005_right.png"" class=""coveredImage test"" style = ""width:100px; height:100px;position:fixed; top:25%;        transform: translate(-50%, -50%);left:54.5%""></img><img src=""media/stimuli/animate_005_right.png"" class=""coveredImage test"" style = ""width:100px; height:100px;position:fixed; top:25%;        transform: translate(-50%, -50%);left:61.5%""></img><img src=""media/f.png""style = ""width:30px x; height:30px;position:fixed; top:43%;    transform: translate(-50%, -50%);left:40%""></img><img src=""media/j.png""style = ""width:30px; height:30px;position:fixed; top:43%;    transform: translate(-50%, -50%);left:60%""></img>","media/stimuli/animate_005_right.png","animate","right","single","media/stimuli/animate_005_left.png","animate","left","single","media/stimuli/animate_005_right.png","animate","right","pair","pose_number","","","",""
"","","","","","html-keyboard-response","15","131764","0.0-15.0","SS1678170761970","5f084a7987a3fe028ff65b8a","6406d7f26dd5b7fc1e3377bd","6406d8bff04d06a81259662a","1024","487","","3338","","j","","","<img src=""media/stimuli/inanimate_008_right.png"" class=""coveredImage test"" style = ""width:100px; height:100px; position:fixed; top:10%;    transform: translate(-50%, -50%);left:48%""></img><img src=""media/stimuli/inanimate_011_right.png"" class=""coveredImage test"" style = ""width:100px; height:100px;position:fixed; top:25%;        transform: translate(-50%, -50%);left:38%""></img><img src=""media/stimuli/inanimate_008_left.png"" class=""coveredImage test"" style = ""width:100px; height:100px;position:fixed; top:25%;        transform: translate(-50%, -50%);left:58%""></img><img src=""media/f.png""style = ""width:30px x; height:30px;position:fixed; top:43%;    transform: translate(-50%, -50%);left:40%""></img><img src=""media/j.png""style = ""width:30px; height:30px;position:fixed; top:43%;    transform: translate(-50%, -50%);left:60%""></img>","media/stimuli/inanimate_008_right.png","inanimate","right","single","media/stimuli/inanimate_011_right.png","inanimate","right","single","media/stimuli/inanimate_008_left.png","inanimate","left","single","identity_pose","","","",""
"","","","","","html-keyboard-response","16","139488","0.0-16.0","SS1678170761970","5f084a7987a3fe028ff65b8a","6406d7f26dd5b7fc1e3377bd","6406d8bff04d06a81259662a","1024","487","","7713","","f","","","<img src=""media/stimuli/inanimate_006_right.png"" class=""coveredImage test"" style = ""width:100px; height:100px; position:fixed; top:10%;    transform: translate(-50%, -50%);left:48%""></img><img src=""media/stimuli/inanimate_006_right.png"" class=""coveredImage test"" style = ""width:100px; height:100px;position:fixed; top:25%;        transform: translate(-50%, -50%);left:38%""></img><img src=""media/stimuli/inanimate_006_left.png"" class=""coveredImage test"" style = ""width:100px; height:100px;position:fixed; top:25%;        transform: translate(-50%, -50%);left:58%""></img><img src=""media/f.png""style = ""width:30px x; height:30px;position:fixed; top:43%;    transform: translate(-50%, -50%);left:40%""></img><img src=""media/j.png""style = ""width:30px; height:30px;position:fixed; top:43%;    transform: translate(-50%, -50%);left:60%""></img>","media/stimuli/inanimate_006_right.png","inanimate","right","single","media/stimuli/inanimate_006_right.png","inanimate","right","single","media/stimuli/inanimate_006_left.png","inanimate","left","single","filler_pose","","","",""
"","","","","","html-keyboard-response","17","141560","0.0-17.0","SS1678170761970","5f084a7987a3fe028ff65b8a","6406d7f26dd5b7fc1e3377bd","6406d8bff04d06a81259662a","1024","487","","2059","","f","","","<img src=""media/stimuli/animate_006_right.png"" class=""coveredImage test"" style = ""width:100px; height:100px; position:fixed; top:10%;    transform: translate(-50%, -50%);left:44.5%""></img><img src=""media/stimuli/animate_006_right.png"" class=""coveredImage test"" style = ""width:100px; height:100px; position:fixed; top:10%;    transform: translate(-50%, -50%);left:51.5%""></img><img src=""media/stimuli/animate_006_right.png"" class=""coveredImage test"" style = ""width:100px; height:100px;position:fixed; top:25%;        transform: translate(-50%, -50%);left:38%""></img><img src=""media/stimuli/inanimate_001_right.png"" class=""coveredImage test"" style = ""width:100px; height:100px;position:fixed; top:25%;        transform: translate(-50%, -50%);left:54.5%""></img><img src=""media/stimuli/inanimate_001_right.png"" class=""coveredImage test"" style = ""width:100px; height:100px;position:fixed; top:25%;        transform: translate(-50%, -50%);left:61.5%""></img><img src=""media/f.png""style = ""width:30px x; height:30px;position:fixed; top:43%;    transform: translate(-50%, -50%);left:40%""></img><img src=""media/j.png""style = ""width:30px; height:30px;position:fixed; top:43%;    transform: translate(-50%, -50%);left:60%""></img>","media/stimuli/animate_006_right.png","animate","right","pair","media/stimuli/animate_006_right.png","animate","right","single","media/stimuli/inanimate_001_right.png","inanimate","right","pair","number_animacy","","","",""
"","","","","","html-keyboard-response","18","143489","0.0-18.0","SS1678170761970","5f084a7987a3fe028ff65b8a","6406d7f26dd5b7fc1e3377bd","6406d8bff04d06a81259662a","1024","487","","1921","","j","","","<img src=""media/stimuli/inanimate_008_right.png"" class=""coveredImage test"" style = ""width:100px; height:100px; position:fixed; top:10%;    transform: translate(-50%, -50%);left:48%""></img><img src=""media/stimuli/inanimate_007_right.png"" class=""coveredImage test"" style = ""width:100px; height:100px;position:fixed; top:25%;        transform: translate(-50%, -50%);left:38%""></img><img src=""media/stimuli/inanimate_008_right.png"" class=""coveredImage test"" style = ""width:100px; height:100px;position:fixed; top:25%;        transform: translate(-50%, -50%);left:54.5%""></img><img src=""media/stimuli/inanimate_008_right.png"" class=""coveredImage test"" style = ""width:100px; height:100px;position:fixed; top:25%;        transform: translate(-50%, -50%);left:61.5%""></img><img src=""media/f.png""style = ""width:30px x; height:30px;position:fixed; top:43%;    transform: translate(-50%, -50%);left:40%""></img><img src=""media/j.png""style = ""width:30px; height:30px;position:fixed; top:43%;    transform: translate(-50%, -50%);left:60%""></img>","media/stimuli/inanimate_008_right.png","inanimate","right","single","media/stimuli/inanimate_007_right.png","inanimate","right","single","media/stimuli/inanimate_008_right.png","inanimate","right","pair","identity_number","","","",""
"","","","","","html-keyboard-response","19","147341","0.0-19.0","SS1678170761970","5f084a7987a3fe028ff65b8a","6406d7f26dd5b7fc1e3377bd","6406d8bff04d06a81259662a","1024","487","","3833","","f","","","<img src=""media/stimuli/animate_006_left.png"" class=""coveredImage test"" style = ""width:100px; height:100px; position:fixed; top:10%;    transform: translate(-50%, -50%);left:48%""></img><img src=""media/stimuli/animate_006_left.png"" class=""coveredImage test"" style = ""width:100px; height:100px;position:fixed; top:25%;        transform: translate(-50%, -50%);left:34.5%""></img><img src=""media/stimuli/animate_006_left.png"" class=""coveredImage test"" style = ""width:100px; height:100px;position:fixed; top:25%;        transform: translate(-50%, -50%);left:41.5%""></img><img src=""media/stimuli/animate_006_right.png"" class=""coveredImage test"" style = ""width:100px; height:100px;position:fixed; top:25%;        transform: translate(-50%, -50%);left:58%""></img><img src=""media/f.png""style = ""width:30px x; height:30px;position:fixed; top:43%;    transform: translate(-50%, -50%);left:40%""></img><img src=""media/j.png""style = ""width:30px; height:30px;position:fixed; top:43%;    transform: translate(-50%, -50%);left:60%""></img>","media/stimuli/animate_006_left.png","animate","left","single","media/stimuli/animate_006_left.png","animate","left","pair","media/stimuli/animate_006_right.png","animate","right","single","number_pose","","","",""
"","","","","","html-keyboard-response","20","153854","0.0-20.0","SS1678170761970","5f084a7987a3fe028ff65b8a","6406d7f26dd5b7fc1e3377bd","6406d8bff04d06a81259662a","1024","487","","6498",""," ","","","","","","","","","","","","","","","","","","","",""
"","","","","","html-keyboard-response","21","155517","0.0-21.0","SS1678170761970","5f084a7987a3fe028ff65b8a","6406d7f26dd5b7fc1e3377bd","6406d8bff04d06a81259662a","1024","487","","1651","","f","","","<img src=""media/stimuli/inanimate_009_right.png"" class=""coveredImage test"" style = ""width:100px; height:100px; position:fixed; top:10%;    transform: translate(-50%, -50%);left:48%""></img><img src=""media/stimuli/inanimate_009_right.png"" class=""coveredImage test"" style = ""width:100px; height:100px;position:fixed; top:25%;        transform: translate(-50%, -50%);left:34.5%""></img><img src=""media/stimuli/inanimate_009_right.png"" class=""coveredImage test"" style = ""width:100px; height:100px;position:fixed; top:25%;        transform: translate(-50%, -50%);left:41.5%""></img><img src=""media/stimuli/animate_011_left.png"" class=""coveredImage test"" style = ""width:100px; height:100px;position:fixed; top:25%;        transform: translate(-50%, -50%);left:54.5%""></img><img src=""media/stimuli/animate_011_left.png"" class=""coveredImage test"" style = ""width:100px; height:100px;position:fixed; top:25%;        transform: translate(-50%, -50%);left:61.5%""></img><img src=""media/f.png""style = ""width:30px x; height:30px;position:fixed; top:43%;    transform: translate(-50%, -50%);left:40%""></img><img src=""media/j.png""style = ""width:30px; height:30px;position:fixed; top:43%;    transform: translate(-50%, -50%);left:60%""></img>","media/stimuli/inanimate_009_right.png","inanimate","right","single","media/stimuli/inanimate_009_right.png","inanimate","right","pair","media/stimuli/animate_011_left.png","animate","left","pair","pose_animacy","","","",""
"","","","","","html-keyboard-response","22","158056","0.0-22.0","SS1678170761970","5f084a7987a3fe028ff65b8a","6406d7f26dd5b7fc1e3377bd","6406d8bff04d06a81259662a","1024","487","","2524","","f","","","<img src=""media/stimuli/inanimate_007_right.png"" class=""coveredImage test"" style = ""width:100px; height:100px; position:fixed; top:10%;    transform: translate(-50%, -50%);left:48%""></img><img src=""media/stimuli/inanimate_007_right.png"" class=""coveredImage test"" style = ""width:100px; height:100px;position:fixed; top:25%;        transform: translate(-50%, -50%);left:34.5%""></img><img src=""media/stimuli/inanimate_007_right.png"" class=""coveredImage test"" style = ""width:100px; height:100px;position:fixed; top:25%;        transform: translate(-50%, -50%);left:41.5%""></img><img src=""media/stimuli/inanimate_005_right.png"" class=""coveredImage test"" style = ""width:100px; height:100px;position:fixed; top:25%;        transform: translate(-50%, -50%);left:58%""></img><img src=""media/f.png""style = ""width:30px x; height:30px;position:fixed; top:43%;    transform: translate(-50%, -50%);left:40%""></img><img src=""media/j.png""style = ""width:30px; height:30px;position:fixed; top:43%;    transform: translate(-50%, -50%);left:60%""></img>","media/stimuli/inanimate_007_right.png","inanimate","right","single","media/stimuli/inanimate_007_right.png","inanimate","right","pair","media/stimuli/inanimate_005_right.png","inanimate","right","single","number_identity","","","",""
"","","","","","html-keyboard-response","23","165364","0.0-23.0","SS1678170761970","5f084a7987a3fe028ff65b8a","6406d7f26dd5b7fc1e3377bd","6406d8bff04d06a81259662a","1024","487","","7293","","j","","","<img src=""media/stimuli/animate_007_left.png"" class=""coveredImage test"" style = ""width:100px; height:100px; position:fixed; top:10%;    transform: translate(-50%, -50%);left:44.5%""></img><img src=""media/stimuli/animate_007_left.png"" class=""coveredImage test"" style = ""width:100px; height:100px; position:fixed; top:10%;    transform: translate(-50%, -50%);left:51.5%""></img><img src=""media/stimuli/animate_003_left.png"" class=""coveredImage test"" style = ""width:100px; height:100px;position:fixed; top:25%;        transform: translate(-50%, -50%);left:34.5%""></img><img src=""media/stimuli/animate_003_left.png"" class=""coveredImage test"" style = ""width:100px; height:100px;position:fixed; top:25%;        transform: translate(-50%, -50%);left:41.5%""></img><img src=""media/stimuli/animate_007_right.png"" class=""coveredImage test"" style = ""width:100px; height:100px;position:fixed; top:25%;        transform: translate(-50%, -50%);left:54.5%""></img><img src=""media/stimuli/animate_007_right.png"" class=""coveredImage test"" style = ""width:100px; height:100px;position:fixed; top:25%;        transform: translate(-50%, -50%);left:61.5%""></img><img src=""media/f.png""style = ""width:30px x; height:30px;position:fixed; top:43%;    transform: translate(-50%, -50%);left:40%""></img><img src=""media/j.png""style = ""width:30px; height:30px;position:fixed; top:43%;    transform: translate(-50%, -50%);left:60%""></img>","media/stimuli/animate_007_left.png","animate","left","pair","media/stimuli/animate_003_left.png","animate","left","pair","media/stimuli/animate_007_right.png","animate","right","pair","identity_pose","","","",""
"","","","","","html-keyboard-response","24","169551","0.0-24.0","SS1678170761970","5f084a7987a3fe028ff65b8a","6406d7f26dd5b7fc1e3377bd","6406d8bff04d06a81259662a","1024","487","","4176","","j","","","<img src=""media/stimuli/animate_012_right.png"" class=""coveredImage test"" style = ""width:100px; height:100px; position:fixed; top:10%;    transform: translate(-50%, -50%);left:44.5%""></img><img src=""media/stimuli/animate_012_right.png"" class=""coveredImage test"" style = ""width:100px; height:100px; position:fixed; top:10%;    transform: translate(-50%, -50%);left:51.5%""></img><img src=""media/stimuli/inanimate_004_right.png"" class=""coveredImage test"" style = ""width:100px; height:100px;position:fixed; top:25%;        transform: translate(-50%, -50%);left:38%""></img><img src=""media/stimuli/animate_012_left.png"" class=""coveredImage test"" style = ""width:100px; height:100px;position:fixed; top:25%;        transform: translate(-50%, -50%);left:58%""></img><img src=""media/f.png""style = ""width:30px x; height:30px;position:fixed; top:43%;    transform: translate(-50%, -50%);left:40%""></img><img src=""media/j.png""style = ""width:30px; height:30px;position:fixed; top:43%;    transform: translate(-50%, -50%);left:60%""></img>","media/stimuli/animate_012_right.png","animate","right","pair","media/stimuli/inanimate_004_right.png","inanimate","right","single","media/stimuli/animate_012_left.png","animate","left","single","animacy_pose","","","",""
"","","","","","html-keyboard-response","25","175211","0.0-25.0","SS1678170761970","5f084a7987a3fe028ff65b8a","6406d7f26dd5b7fc1e3377bd","6406d8bff04d06a81259662a","1024","487","","5653","","f","","","<img src=""media/stimuli/animate_003_left.png"" class=""coveredImage test"" style = ""width:100px; height:100px; position:fixed; top:10%;    transform: translate(-50%, -50%);left:48%""></img><img src=""media/stimuli/animate_003_left.png"" class=""coveredImage test"" style = ""width:100px; height:100px;position:fixed; top:25%;        transform: translate(-50%, -50%);left:34.5%""></img><img src=""media/stimuli/animate_003_left.png"" class=""coveredImage test"" style = ""width:100px; height:100px;position:fixed; top:25%;        transform: translate(-50%, -50%);left:41.5%""></img><img src=""media/stimuli/animate_002_left.png"" class=""coveredImage test"" style = ""width:100px; height:100px;position:fixed; top:25%;        transform: translate(-50%, -50%);left:58%""></img><img src=""media/f.png""style = ""width:30px x; height:30px;position:fixed; top:43%;    transform: translate(-50%, -50%);left:40%""></img><img src=""media/j.png""style = ""width:30px; height:30px;position:fixed; top:43%;    transform: translate(-50%, -50%);left:60%""></img>","media/stimuli/animate_003_left.png","animate","left","single","media/stimuli/animate_003_left.png","animate","left","pair","media/stimuli/animate_002_left.png","animate","left","single","number_identity","","","",""
"","","","","","html-keyboard-response","26","178507","0.0-26.0","SS1678170761970","5f084a7987a3fe028ff65b8a","6406d7f26dd5b7fc1e3377bd","6406d8bff04d06a81259662a","1024","487","","3281","","f","","","<img src=""media/stimuli/inanimate_008_right.png"" class=""coveredImage test"" style = ""width:100px; height:100px; position:fixed; top:10%;    transform: translate(-50%, -50%);left:44.5%""></img><img src=""media/stimuli/inanimate_008_right.png"" class=""coveredImage test"" style = ""width:100px; height:100px; position:fixed; top:10%;    transform: translate(-50%, -50%);left:51.5%""></img><img src=""media/stimuli/inanimate_008_right.png"" class=""coveredImage test"" style = ""width:100px; height:100px;position:fixed; top:25%;        transform: translate(-50%, -50%);left:38%""></img><img src=""media/stimuli/animate_004_right.png"" class=""coveredImage test"" style = ""width:100px; height:100px;position:fixed; top:25%;        transform: translate(-50%, -50%);left:54.5%""></img><img src=""media/stimuli/animate_004_right.png"" class=""coveredImage test"" style = ""width:100px; height:100px;position:fixed; top:25%;        transform: translate(-50%, -50%);left:61.5%""></img><img src=""media/f.png""style = ""width:30px x; height:30px;position:fixed; top:43%;    transform: translate(-50%, -50%);left:40%""></img><img src=""media/j.png""style = ""width:30px; height:30px;position:fixed; top:43%;    transform: translate(-50%, -50%);left:60%""></img>","media/stimuli/inanimate_008_right.png","inanimate","right","pair","media/stimuli/inanimate_008_right.png","inanimate","right","single","media/stimuli/animate_004_right.png","animate","right","pair","number_animacy","","","",""
"","","","","","html-keyboard-response","27","183863","0.0-27.0","SS1678170761970","5f084a7987a3fe028ff65b8a","6406d7f26dd5b7fc1e3377bd","6406d8bff04d06a81259662a","1024","487","","5347","","f","","","<img src=""media/stimuli/animate_002_right.png"" class=""coveredImage test"" style = ""width:100px; height:100px; position:fixed; top:10%;    transform: translate(-50%, -50%);left:44.5%""></img><img src=""media/stimuli/animate_002_right.png"" class=""coveredImage test"" style = ""width:100px; height:100px; position:fixed; top:10%;    transform: translate(-50%, -50%);left:51.5%""></img><img src=""media/stimuli/animate_009_right.png"" class=""coveredImage test"" style = ""width:100px; height:100px;position:fixed; top:25%;        transform: translate(-50%, -50%);left:34.5%""></img><img src=""media/stimuli/animate_009_right.png"" class=""coveredImage test"" style = ""width:100px; height:100px;position:fixed; top:25%;        transform: translate(-50%, -50%);left:41.5%""></img><img src=""media/stimuli/inanimate_009_right.png"" class=""coveredImage test"" style = ""width:100px; height:100px;position:fixed; top:25%;        transform: translate(-50%, -50%);left:54.5%""></img><img src=""media/stimuli/inanimate_009_right.png"" class=""coveredImage test"" style = ""width:100px; height:100px;position:fixed; top:25%;        transform: translate(-50%, -50%);left:61.5%""></img><img src=""media/f.png""style = ""width:30px x; height:30px;position:fixed; top:43%;    transform: translate(-50%, -50%);left:40%""></img><img src=""media/j.png""style = ""width:30px; height:30px;position:fixed; top:43%;    transform: translate(-50%, -50%);left:60%""></img>","media/stimuli/animate_002_right.png","animate","right","pair","media/stimuli/animate_009_right.png","animate","right","pair","media/stimuli/inanimate_009_right.png","inanimate","right","pair","identity_animacy","","","",""
"","","","","","html-keyboard-response","28","187606","0.0-28.0","SS1678170761970","5f084a7987a3fe028ff65b8a","6406d7f26dd5b7fc1e3377bd","6406d8bff04d06a81259662a","1024","487","","3729","","f","","","<img src=""media/stimuli/inanimate_011_right.png"" class=""coveredImage test"" style = ""width:100px; height:100px; position:fixed; top:10%;    transform: translate(-50%, -50%);left:44.5%""></img><img src=""media/stimuli/inanimate_011_right.png"" class=""coveredImage test"" style = ""width:100px; height:100px; position:fixed; top:10%;    transform: translate(-50%, -50%);left:51.5%""></img><img src=""media/stimuli/inanimate_007_right.png"" class=""coveredImage test"" style = ""width:100px; height:100px;position:fixed; top:25%;        transform: translate(-50%, -50%);left:34.5%""></img><img src=""media/stimuli/inanimate_007_right.png"" class=""coveredImage test"" style = ""width:100px; height:100px;position:fixed; top:25%;        transform: translate(-50%, -50%);left:41.5%""></img><img src=""media/stimuli/animate_007_right.png"" class=""coveredImage test"" style = ""width:100px; height:100px;position:fixed; top:25%;        transform: translate(-50%, -50%);left:54.5%""></img><img src=""media/stimuli/animate_007_right.png"" class=""coveredImage test"" style = ""width:100px; height:100px;position:fixed; top:25%;        transform: translate(-50%, -50%);left:61.5%""></img><img src=""media/f.png""style = ""width:30px x; height:30px;position:fixed; top:43%;    transform: translate(-50%, -50%);left:40%""></img><img src=""media/j.png""style = ""width:30px; height:30px;position:fixed; top:43%;    transform: translate(-50%, -50%);left:60%""></img>","media/stimuli/inanimate_011_right.png","inanimate","right","pair","media/stimuli/inanimate_007_right.png","inanimate","right","pair","media/stimuli/animate_007_right.png","animate","right","pair","identity_animacy","","","",""
"","","","","","html-keyboard-response","29","190610","0.0-29.0","SS1678170761970","5f084a7987a3fe028ff65b8a","6406d7f26dd5b7fc1e3377bd","6406d8bff04d06a81259662a","1024","487","","2992","","j","","","<img src=""media/stimuli/animate_008_right.png"" class=""coveredImage test"" style = ""width:100px; height:100px; position:fixed; top:10%;    transform: translate(-50%, -50%);left:48%""></img><img src=""media/stimuli/inanimate_005_right.png"" class=""coveredImage test"" style = ""width:100px; height:100px;position:fixed; top:25%;        transform: translate(-50%, -50%);left:38%""></img><img src=""media/stimuli/animate_010_right.png"" class=""coveredImage test"" style = ""width:100px; height:100px;position:fixed; top:25%;        transform: translate(-50%, -50%);left:58%""></img><img src=""media/f.png""style = ""width:30px x; height:30px;position:fixed; top:43%;    transform: translate(-50%, -50%);left:40%""></img><img src=""media/j.png""style = ""width:30px; height:30px;position:fixed; top:43%;    transform: translate(-50%, -50%);left:60%""></img>","media/stimuli/animate_008_right.png","animate","right","single","media/stimuli/inanimate_005_right.png","inanimate","right","single","media/stimuli/animate_010_right.png","animate","right","single","animacy_identity","","","",""
"","","","","","html-keyboard-response","30","196309","0.0-30.0","SS1678170761970","5f084a7987a3fe028ff65b8a","6406d7f26dd5b7fc1e3377bd","6406d8bff04d06a81259662a","1024","487","","5682","","j","","","<img src=""media/stimuli/animate_004_left.png"" class=""coveredImage test"" style = ""width:100px; height:100px; position:fixed; top:10%;    transform: translate(-50%, -50%);left:48%""></img><img src=""media/stimuli/animate_004_right.png"" class=""coveredImage test"" style = ""width:100px; height:100px;position:fixed; top:25%;        transform: translate(-50%, -50%);left:38%""></img><img src=""media/stimuli/animate_004_left.png"" class=""coveredImage test"" style = ""width:100px; height:100px;position:fixed; top:25%;        transform: translate(-50%, -50%);left:54.5%""></img><img src=""media/stimuli/animate_004_left.png"" class=""coveredImage test"" style = ""width:100px; height:100px;position:fixed; top:25%;        transform: translate(-50%, -50%);left:61.5%""></img><img src=""media/f.png""style = ""width:30px x; height:30px;position:fixed; top:43%;    transform: translate(-50%, -50%);left:40%""></img><img src=""media/j.png""style = ""width:30px; height:30px;position:fixed; top:43%;    transform: translate(-50%, -50%);left:60%""></img>","media/stimuli/animate_004_left.png","animate","left","single","media/stimuli/animate_004_right.png","animate","right","single","media/stimuli/animate_004_left.png","animate","left","pair","pose_number","","","",""
"","","","","","html-keyboard-response","31","201761","0.0-31.0","SS1678170761970","5f084a7987a3fe028ff65b8a","6406d7f26dd5b7fc1e3377bd","6406d8bff04d06a81259662a","1024","487","","5440","","j","","","<img src=""media/stimuli/inanimate_004_right.png"" class=""coveredImage test"" style = ""width:100px; height:100px; position:fixed; top:10%;    transform: translate(-50%, -50%);left:44.5%""></img><img src=""media/stimuli/inanimate_004_right.png"" class=""coveredImage test"" style = ""width:100px; height:100px; position:fixed; top:10%;    transform: translate(-50%, -50%);left:51.5%""></img><img src=""media/stimuli/inanimate_004_left.png"" class=""coveredImage test"" style = ""width:100px; height:100px;position:fixed; top:25%;        transform: translate(-50%, -50%);left:34.5%""></img><img src=""media/stimuli/inanimate_004_left.png"" class=""coveredImage test"" style = ""width:100px; height:100px;position:fixed; top:25%;        transform: translate(-50%, -50%);left:41.5%""></img><img src=""media/stimuli/inanimate_004_right.png"" class=""coveredImage test"" style = ""width:100px; height:100px;position:fixed; top:25%;        transform: translate(-50%, -50%);left:58%""></img><img src=""media/f.png""style = ""width:30px x; height:30px;position:fixed; top:43%;    transform: translate(-50%, -50%);left:40%""></img><img src=""media/j.png""style = ""width:30px; height:30px;position:fixed; top:43%;    transform: translate(-50%, -50%);left:60%""></img>","media/stimuli/inanimate_004_right.png","inanimate","right","pair","media/stimuli/inanimate_004_left.png","inanimate","left","pair","media/stimuli/inanimate_004_right.png","inanimate","right","single","pose_number","","","",""
"","","","","","html-keyboard-response","32","211633","0.0-32.0","SS1678170761970","5f084a7987a3fe028ff65b8a","6406d7f26dd5b7fc1e3377bd","6406d8bff04d06a81259662a","1024","487","","9853","","j","","","<img src=""media/stimuli/animate_001_right.png"" class=""coveredImage test"" style = ""width:100px; height:100px; position:fixed; top:10%;    transform: translate(-50%, -50%);left:48%""></img><img src=""media/stimuli/animate_001_right.png"" class=""coveredImage test"" style = ""width:100px; height:100px;position:fixed; top:25%;        transform: translate(-50%, -50%);left:34.5%""></img><img src=""media/stimuli/animate_001_right.png"" class=""coveredImage test"" style = ""width:100px; height:100px;position:fixed; top:25%;        transform: translate(-50%, -50%);left:41.5%""></img><img src=""media/stimuli/animate_001_right.png"" class=""coveredImage test"" style = ""width:100px; height:100px;position:fixed; top:25%;        transform: translate(-50%, -50%);left:58%""></img><img src=""media/f.png""style = ""width:30px x; height:30px;position:fixed; top:43%;    transform: translate(-50%, -50%);left:40%""></img><img src=""media/j.png""style = ""width:30px; height:30px;position:fixed; top:43%;    transform: translate(-50%, -50%);left:60%""></img>","media/stimuli/animate_001_right.png","animate","right","single","media/stimuli/animate_001_right.png","animate","right","pair","media/stimuli/animate_001_right.png","animate","right","single","number_filler","","","",""
"","","","","","html-keyboard-response","33","215520","0.0-33.0","SS1678170761970","5f084a7987a3fe028ff65b8a","6406d7f26dd5b7fc1e3377bd","6406d8bff04d06a81259662a","1024","487","","3872",""," ","","","","","","","","","","","","","","","","","","","",""
"","","","","","survey-likert","34","224456","0.0-34.0","SS1678170761970","5f084a7987a3fe028ff65b8a","6406d7f26dd5b7fc1e3377bd","6406d8bff04d06a81259662a","1024","487","","8923","","{""Q0"":2}","[0]","complexity","","","","","","","","","","","","","","","media/stimuli/inanimate_004_right.png","inanimate","pair","right"
"","","","","","survey-likert","35","229725","0.0-35.0","SS1678170761970","5f084a7987a3fe028ff65b8a","6406d7f26dd5b7fc1e3377bd","6406d8bff04d06a81259662a","1024","487","","5238","","{""Q0"":2}","[0]","complexity","","","","","","","","","","","","","","","media/stimuli/inanimate_012_left.png","inanimate","pair","left"
"","","","","","survey-likert","36","234198","0.0-36.0","SS1678170761970","5f084a7987a3fe028ff65b8a","6406d7f26dd5b7fc1e3377bd","6406d8bff04d06a81259662a","1024","487","","4449","","{""Q0"":2}","[0]","complexity","","","","","","","","","","","","","","","media/stimuli/animate_002_left.png","animate","pair","left"
"","","","","","survey-likert","37","238874","0.0-37.0","SS1678170761970","5f084a7987a3fe028ff65b8a","6406d7f26dd5b7fc1e3377bd","6406d8bff04d06a81259662a","1024","487","","4661","","{""Q0"":2}","[0]","complexity","","","","","","","","","","","","","","","media/stimuli/animate_003_right.png","animate","pair","right"
"","","","","","survey-likert","38","242481","0.0-38.0","SS1678170761970","5f084a7987a3fe028ff65b8a","6406d7f26dd5b7fc1e3377bd","6406d8bff04d06a81259662a","1024","487","","3587","","{""Q0"":1}","[0]","complexity","","","","","","","","","","","","","","","media/stimuli/animate_002_left.png","animate","single","left"
"","","","","","survey-likert","39","246252","0.0-39.0","SS1678170761970","5f084a7987a3fe028ff65b8a","6406d7f26dd5b7fc1e3377bd","6406d8bff04d06a81259662a","1024","487","","3743","","{""Q0"":2}","[0]","complexity","","","","","","","","","","","","","","","media/stimuli/animate_003_left.png","animate","pair","left"
"","","","","","survey-likert","40","249360","0.0-40.0","SS1678170761970","5f084a7987a3fe028ff65b8a","6406d7f26dd5b7fc1e3377bd","6406d8bff04d06a81259662a","1024","487","","3095","","{""Q0"":1}","[0]","complexity","","","","","","","","","","","","","","","media/stimuli/animate_005_right.png","animate","single","right"
"","","","","","survey-likert","41","253123","0.0-41.0","SS1678170761970","5f084a7987a3fe028ff65b8a","6406d7f26dd5b7fc1e3377bd","6406d8bff04d06a81259662a","1024","487","","3738","","{""Q0"":2}","[0]","complexity","","","","","","","","","","","","","","","media/stimuli/animate_012_right.png","animate","pair","right"
"","","","","","survey-likert","42","256165","0.0-42.0","SS1678170761970","5f084a7987a3fe028ff65b8a","6406d7f26dd5b7fc1e3377bd","6406d8bff04d06a81259662a","1024","487","","3013","","{""Q0"":2}","[0]","complexity","","","","","","","","","","","","","","","media/stimuli/animate_011_left.png","animate","pair","left"
"","","","","","survey-likert","43","258948","0.0-43.0","SS1678170761970","5f084a7987a3fe028ff65b8a","6406d7f26dd5b7fc1e3377bd","6406d8bff04d06a81259662a","1024","487","","2776","","{""Q0"":2}","[0]","complexity","","","","","","","","","","","","","","","media/stimuli/animate_011_right.png","animate","pair","right"
"","","","","","survey-likert","44","262279","0.0-44.0","SS1678170761970","5f084a7987a3fe028ff65b8a","6406d7f26dd5b7fc1e3377bd","6406d8bff04d06a81259662a","1024","487","","3302","","{""Q0"":2}","[0]","complexity","","","","","","","","","","","","","","","media/stimuli/inanimate_007_right.png","inanimate","pair","right"
"","","","","","survey-likert","45","264874","0.0-45.0","SS1678170761970","5f084a7987a3fe028ff65b8a","6406d7f26dd5b7fc1e3377bd","6406d8bff04d06a81259662a","1024","487","","2561","","{""Q0"":2}","[0]","complexity","","","","","","","","","","","","","","","media/stimuli/animate_009_right.png","animate","single","right"
"","","","","","html-keyboard-response","46","268610","0.0-46.0","SS1678170761970","5f084a7987a3fe028ff65b8a","6406d7f26dd5b7fc1e3377bd","6406d8bff04d06a81259662a","1024","487","","3717",""," ","","","","","","","","","","","","","","","","","","","",""
"","","","","","survey-likert","47","272998","0.0-47.0","SS1678170761970","5f084a7987a3fe028ff65b8a","6406d7f26dd5b7fc1e3377bd","6406d8bff04d06a81259662a","1024","487","","4376","","{""Q0"":1}","[0]","complexity","","","","","","","","","","","","","","","media/stimuli/animate_010_right.png","animate","single","right"
"","","","","","survey-likert","48","275744","0.0-48.0","SS1678170761970","5f084a7987a3fe028ff65b8a","6406d7f26dd5b7fc1e3377bd","6406d8bff04d06a81259662a","1024","487","","2726","","{""Q0"":1}","[0]","complexity","","","","","","","","","","","","","","","media/stimuli/animate_007_left.png","animate","single","left"
"","","","","","survey-likert","49","278508","0.0-49.0","SS1678170761970","5f084a7987a3fe028ff65b8a","6406d7f26dd5b7fc1e3377bd","6406d8bff04d06a81259662a","1024","487","","2733","","{""Q0"":1}","[0]","complexity","","","","","","","","","","","","","","","media/stimuli/inanimate_007_left.png","inanimate","single","left"
"","","","","","survey-likert","50","281798","0.0-50.0","SS1678170761970","5f084a7987a3fe028ff65b8a","6406d7f26dd5b7fc1e3377bd","6406d8bff04d06a81259662a","1024","487","","3261","","{""Q0"":1}","[0]","complexity","","","","","","","","","","","","","","","media/stimuli/inanimate_004_left.png","inanimate","single","left"
"","","","","","survey-likert","51","284676","0.0-51.0","SS1678170761970","5f084a7987a3fe028ff65b8a","6406d7f26dd5b7fc1e3377bd","6406d8bff04d06a81259662a","1024","487","","2854","","{""Q0"":1}","[0]","complexity","","","","","","","","","","","","","","","media/stimuli/animate_008_right.png","animate","single","right"
"","","","","","survey-likert","52","287463","0.0-52.0","SS1678170761970","5f084a7987a3fe028ff65b8a","6406d7f26dd5b7fc1e3377bd","6406d8bff04d06a81259662a","1024","487","","2713","","{""Q0"":1}","[0]","complexity","","","","","","","","","","","","","","","media/stimuli/animate_003_right.png","animate","single","right"
"","","","","","survey-likert","53","290533","0.0-53.0","SS1678170761970","5f084a7987a3fe028ff65b8a","6406d7f26dd5b7fc1e3377bd","6406d8bff04d06a81259662a","1024","487","","3045","","{""Q0"":2}","[0]","complexity","","","","","","","","","","","","","","","media/stimuli/animate_001_left.png","animate","pair","left"
"","","","","","survey-likert","54","292623","0.0-54.0","SS1678170761970","5f084a7987a3fe028ff65b8a","6406d7f26dd5b7fc1e3377bd","6406d8bff04d06a81259662a","1024","487","","2063","","{""Q0"":2}","[0]","complexity","","","","","","","","","","","","","","","media/stimuli/inanimate_011_left.png","inanimate","pair","left"
"","","","","","survey-likert","55","295699","0.0-55.0","SS1678170761970","5f084a7987a3fe028ff65b8a","6406d7f26dd5b7fc1e3377bd","6406d8bff04d06a81259662a","1024","487","","3055","","{""Q0"":2}","[0]","complexity","","","","","","","","","","","","","","","media/stimuli/animate_011_right.png","animate","single","right"
"","","","","","survey-likert","56","299281","0.0-56.0","SS1678170761970","5f084a7987a3fe028ff65b8a","6406d7f26dd5b7fc1e3377bd","6406d8bff04d06a81259662a","1024","487","","3555","","{""Q0"":2}","[0]","complexity","","","","","","","","","","","","","","","media/stimuli/animate_007_left.png","animate","pair","left"
"","","","","","survey-likert","57","302252","0.0-57.0","SS1678170761970","5f084a7987a3fe028ff65b8a","6406d7f26dd5b7fc1e3377bd","6406d8bff04d06a81259662a","1024","487","","2936","","{""Q0"":2}","[0]","complexity","","","","","","","","","","","","","","","media/stimuli/animate_004_right.png","animate","pair","right"
"","","","","","survey-likert","58","304963","0.0-58.0","SS1678170761970","5f084a7987a3fe028ff65b8a","6406d7f26dd5b7fc1e3377bd","6406d8bff04d06a81259662a","1024","487","","2685","","{""Q0"":2}","[0]","complexity","","","","","","","","","","","","","","","media/stimuli/animate_009_right.png","animate","pair","right"
"","","","","","html-keyboard-response","59","307882","0.0-59.0","SS1678170761970","5f084a7987a3fe028ff65b8a","6406d7f26dd5b7fc1e3377bd","6406d8bff04d06a81259662a","1024","487","","2888",""," ","","","","","","","","","","","","","","","","","","","",""
"","","","","","survey-likert","60","312284","0.0-60.0","SS1678170761970","5f084a7987a3fe028ff65b8a","6406d7f26dd5b7fc1e3377bd","6406d8bff04d06a81259662a","1024","487","","4392","","{""Q0"":1}","[0]","complexity","","","","","","","","","","","","","","","media/stimuli/inanimate_008_right.png","inanimate","single","right"
"","","","","","survey-likert","61","317607","0.0-61.0","SS1678170761970","5f084a7987a3fe028ff65b8a","6406d7f26dd5b7fc1e3377bd","6406d8bff04d06a81259662a","1024","487","","5294","","{""Q0"":4}","[0]","complexity","","","","","","","","","","","","","","","media/stimuli/inanimate_005_right.png","inanimate","single","right"
"","","","","","survey-likert","62","321179","0.0-62.0","SS1678170761970","5f084a7987a3fe028ff65b8a","6406d7f26dd5b7fc1e3377bd","6406d8bff04d06a81259662a","1024","487","","3530","","{""Q0"":4}","[0]","complexity","","","","","","","","","","","","","","","media/stimuli/inanimate_006_right.png","inanimate","pair","right"
"","","","","","survey-likert","63","325551","0.0-63.0","SS1678170761970","5f084a7987a3fe028ff65b8a","6406d7f26dd5b7fc1e3377bd","6406d8bff04d06a81259662a","1024","487","","4353","","{""Q0"":2}","[0]","complexity","","","","","","","","","","","","","","","media/stimuli/inanimate_010_right.png","inanimate","single","right"
"","","","","","survey-likert","64","328261","0.0-64.0","SS1678170761970","5f084a7987a3fe028ff65b8a","6406d7f26dd5b7fc1e3377bd","6406d8bff04d06a81259662a","1024","487","","2698","","{""Q0"":2}","[0]","complexity","","","","","","","","","","","","","","","media/stimuli/animate_006_left.png","animate","single","left"
"","","","","","survey-likert","65","331175","0.0-65.0","SS1678170761970","5f084a7987a3fe028ff65b8a","6406d7f26dd5b7fc1e3377bd","6406d8bff04d06a81259662a","1024","487","","2890","","{""Q0"":2}","[0]","complexity","","","","","","","","","","","","","","","media/stimuli/animate_012_left.png","animate","pair","left"
"","","","","","survey-likert","66","335241","0.0-66.0","SS1678170761970","5f084a7987a3fe028ff65b8a","6406d7f26dd5b7fc1e3377bd","6406d8bff04d06a81259662a","1024","487","","4043","","{""Q0"":4}","[0]","complexity","","","","","","","","","","","","","","","media/stimuli/inanimate_009_right.png","inanimate","pair","right"
"","","","","","survey-likert","67","339310","0.0-67.0","SS1678170761970","5f084a7987a3fe028ff65b8a","6406d7f26dd5b7fc1e3377bd","6406d8bff04d06a81259662a","1024","487","","4041","","{""Q0"":2}","[0]","complexity","","","","","","","","","","","","","","","media/stimuli/inanimate_001_left.png","inanimate","pair","left"
"","","","","","survey-likert","68","346458","0.0-68.0","SS1678170761970","5f084a7987a3fe028ff65b8a","6406d7f26dd5b7fc1e3377bd","6406d8bff04d06a81259662a","1024","487","","7128","","{""Q0"":1}","[0]","complexity","","","","","","","","","","","","","","","media/stimuli/inanimate_001_left.png","inanimate","single","left"
"","","","","","survey-likert","69","349412","0.0-69.0","SS1678170761970","5f084a7987a3fe028ff65b8a","6406d7f26dd5b7fc1e3377bd","6406d8bff04d06a81259662a","1024","487","","2924","","{""Q0"":2}","[0]","complexity","","","","","","","","","","","","","","","media/stimuli/animate_010_right.png","animate","pair","right"
"","","","","","survey-likert","70","352126","0.0-70.0","SS1678170761970","5f084a7987a3fe028ff65b8a","6406d7f26dd5b7fc1e3377bd","6406d8bff04d06a81259662a","1024","487","","2667","","{""Q0"":1}","[0]","complexity","","","","","","","","","","","","","","","media/stimuli/animate_002_right.png","animate","single","right"
"","","","","","survey-likert","71","355219","0.0-71.0","SS1678170761970","5f084a7987a3fe028ff65b8a","6406d7f26dd5b7fc1e3377bd","6406d8bff04d06a81259662a","1024","487","","3062","","{""Q0"":4}","[0]","complexity","","","","","","","","","","","","","","","media/stimuli/inanimate_006_right.png","inanimate","single","right"
"","","","","","html-keyboard-response","72","357943","0.0-72.0","SS1678170761970","5f084a7987a3fe028ff65b8a","6406d7f26dd5b7fc1e3377bd","6406d8bff04d06a81259662a","1024","487","","2705",""," ","","","","","","","","","","","","","","","","","","","",""
"","","","","","survey-likert","73","362170","0.0-73.0","SS1678170761970","5f084a7987a3fe028ff65b8a","6406d7f26dd5b7fc1e3377bd","6406d8bff04d06a81259662a","1024","487","","4215","","{""Q0"":2}","[0]","complexity","","","","","","","","","","","","","","","media/stimuli/inanimate_012_right.png","inanimate","pair","right"
"","","","","","survey-likert","74","365416","0.0-74.0","SS1678170761970","5f084a7987a3fe028ff65b8a","6406d7f26dd5b7fc1e3377bd","6406d8bff04d06a81259662a","1024","487","","3229","","{""Q0"":2}","[0]","complexity","","","","","","","","","","","","","","","media/stimuli/animate_005_left.png","animate","pair","left"
"","","","","","survey-likert","75","369604","0.0-75.0","SS1678170761970","5f084a7987a3fe028ff65b8a","6406d7f26dd5b7fc1e3377bd","6406d8bff04d06a81259662a","1024","487","","4169","","{""Q0"":1}","[0]","complexity","","","","","","","","","","","","","","","media/stimuli/animate_010_left.png","animate","single","left"
"","","","","","survey-likert","76","375610","0.0-76.0","SS1678170761970","5f084a7987a3fe028ff65b8a","6406d7f26dd5b7fc1e3377bd","6406d8bff04d06a81259662a","1024","487","","5983","","{""Q0"":2}","[0]","complexity","","","","","","","","","","","","","","","media/stimuli/inanimate_011_right.png","inanimate","pair","right"
"","","","","","survey-likert","77","379156","0.0-77.0","SS1678170761970","5f084a7987a3fe028ff65b8a","6406d7f26dd5b7fc1e3377bd","6406d8bff04d06a81259662a","1024","487","","3509","","{""Q0"":2}","[0]","complexity","","","","","","","","","","","","","","","media/stimuli/animate_006_left.png","animate","pair","left"
"","","","","","survey-likert","78","382377","0.0-78.0","SS1678170761970","5f084a7987a3fe028ff65b8a","6406d7f26dd5b7fc1e3377bd","6406d8bff04d06a81259662a","1024","487","","3199","","{""Q0"":1}","[0]","complexity","","","","","","","","","","","","","","","media/stimuli/inanimate_012_right.png","inanimate","single","right"
"","","","","","survey-likert","79","385230","0.0-79.0","SS1678170761970","5f084a7987a3fe028ff65b8a","6406d7f26dd5b7fc1e3377bd","6406d8bff04d06a81259662a","1024","487","","2821","","{""Q0"":1}","[0]","complexity","","","","","","","","","","","","","","","media/stimuli/inanimate_001_right.png","inanimate","single","right"
"","","","","","survey-likert","80","388884","0.0-80.0","SS1678170761970","5f084a7987a3fe028ff65b8a","6406d7f26dd5b7fc1e3377bd","6406d8bff04d06a81259662a","1024","487","","3628","","{""Q0"":4}","[0]","complexity","","","","","","","","","","","","","","","media/stimuli/inanimate_006_left.png","inanimate","single","left"
"","","","","","survey-likert","81","392234","0.0-81.0","SS1678170761970","5f084a7987a3fe028ff65b8a","6406d7f26dd5b7fc1e3377bd","6406d8bff04d06a81259662a","1024","487","","3324","","{""Q0"":2}","[0]","complexity","","","","","","","","","","","","","","","media/stimuli/inanimate_002_left.png","inanimate","pair","left"
"","","","","","survey-likert","82","395403","0.0-82.0","SS1678170761970","5f084a7987a3fe028ff65b8a","6406d7f26dd5b7fc1e3377bd","6406d8bff04d06a81259662a","1024","487","","3150","","{""Q0"":2}","[0]","complexity","","","","","","","","","","","","","","","media/stimuli/inanimate_003_right.png","inanimate","pair","right"
"","","","","","survey-likert","83","399026","0.0-83.0","SS1678170761970","5f084a7987a3fe028ff65b8a","6406d7f26dd5b7fc1e3377bd","6406d8bff04d06a81259662a","1024","487","","3590","","{""Q0"":2}","[0]","complexity","","","","","","","","","","","","","","","media/stimuli/animate_009_left.png","animate","single","left"
"","","","","","survey-likert","84","405348","0.0-84.0","SS1678170761970","5f084a7987a3fe028ff65b8a","6406d7f26dd5b7fc1e3377bd","6406d8bff04d06a81259662a","1024","487","","6290","","{""Q0"":4}","[0]","complexity","","","","","","","","","","","","","","","media/stimuli/inanimate_005_right.png","inanimate","pair","right"
"","","","","","html-keyboard-response","85","407814","0.0-85.0","SS1678170761970","5f084a7987a3fe028ff65b8a","6406d7f26dd5b7fc1e3377bd","6406d8bff04d06a81259662a","1024","487","","2429",""," ","","","","","","","","","","","","","","","","","","","",""
"","","","","","survey-likert","86","410830","0.0-86.0","SS1678170761970","5f084a7987a3fe028ff65b8a","6406d7f26dd5b7fc1e3377bd","6406d8bff04d06a81259662a","1024","487","","3001","","{""Q0"":2}","[0]","complexity","","","","","","","","","","","","","","","media/stimuli/animate_006_right.png","animate","pair","right"
"","","","","","survey-likert","87","413736","0.0-87.0","SS1678170761970","5f084a7987a3fe028ff65b8a","6406d7f26dd5b7fc1e3377bd","6406d8bff04d06a81259662a","1024","487","","2873","","{""Q0"":1}","[0]","complexity","","","","","","","","","","","","","","","media/stimuli/animate_005_left.png","animate","single","left"
"","","","","","survey-likert","88","417056","0.0-88.0","SS1678170761970","5f084a7987a3fe028ff65b8a","6406d7f26dd5b7fc1e3377bd","6406d8bff04d06a81259662a","1024","487","","3291","","{""Q0"":1}","[0]","complexity","","","","","","","","","","","","","","","media/stimuli/animate_003_left.png","animate","single","left"
"","","","","","survey-likert","89","420729","0.0-89.0","SS1678170761970","5f084a7987a3fe028ff65b8a","6406d7f26dd5b7fc1e3377bd","6406d8bff04d06a81259662a","1024","487","","3645","","{""Q0"":1}","[0]","complexity","","","","","","","","","","","","","","","media/stimuli/inanimate_012_left.png","inanimate","single","left"
"","","","","","survey-likert","90","423880","0.0-90.0","SS1678170761970","5f084a7987a3fe028ff65b8a","6406d7f26dd5b7fc1e3377bd","6406d8bff04d06a81259662a","1024","487","","3128","","{""Q0"":2}","[0]","complexity","","","","","","","","","","","","","","","media/stimuli/animate_008_left.png","animate","pair","left"
"","","","","","survey-likert","91","426798","0.0-91.0","SS1678170761970","5f084a7987a3fe028ff65b8a","6406d7f26dd5b7fc1e3377bd","6406d8bff04d06a81259662a","1024","487","","2901","","{""Q0"":1}","[0]","complexity","","","","","","","","","","","","","","","media/stimuli/inanimate_002_right.png","inanimate","single","right"
"","","","","","survey-likert","92","429445","0.0-92.0","SS1678170761970","5f084a7987a3fe028ff65b8a","6406d7f26dd5b7fc1e3377bd","6406d8bff04d06a81259662a","1024","487","","2601","","{""Q0"":1}","[0]","complexity","","","","","","","","","","","","","","","media/stimuli/animate_012_right.png","animate","single","right"
"","","","","","survey-likert","93","432084","0.0-93.0","SS1678170761970","5f084a7987a3fe028ff65b8a","6406d7f26dd5b7fc1e3377bd","6406d8bff04d06a81259662a","1024","487","","2612","","{""Q0"":2}","[0]","complexity","","","","","","","","","","","","","","","media/stimuli/animate_004_left.png","animate","pair","left"
"","","","","","survey-likert","94","435266","0.0-94.0","SS1678170761970","5f084a7987a3fe028ff65b8a","6406d7f26dd5b7fc1e3377bd","6406d8bff04d06a81259662a","1024","487","","3153","","{""Q0"":1}","[0]","complexity","","","","","","","","","","","","","","","media/stimuli/inanimate_004_right.png","inanimate","single","right"
"","","","","","survey-likert","95","439344","0.0-95.0","SS1678170761970","5f084a7987a3fe028ff65b8a","6406d7f26dd5b7fc1e3377bd","6406d8bff04d06a81259662a","1024","487","","4052","","{""Q0"":2}","[0]","complexity","","","","","","","","","","","","","","","media/stimuli/inanimate_007_right.png","inanimate","single","right"
"","","","","","survey-likert","96","442981","0.0-96.0","SS1678170761970","5f084a7987a3fe028ff65b8a","6406d7f26dd5b7fc1e3377bd","6406d8bff04d06a81259662a","1024","487","","3574","","{""Q0"":1}","[0]","complexity","","","","","","","","","","","","","","","media/stimuli/inanimate_003_right.png","inanimate","single","right"
"","","","","","survey-likert","97","446136","0.0-97.0","SS1678170761970","5f084a7987a3fe028ff65b8a","6406d7f26dd5b7fc1e3377bd","6406d8bff04d06a81259662a","1024","487","","3101","","{""Q0"":2}","[0]","complexity","","","","","","","","","","","","","","","media/stimuli/inanimate_004_left.png","inanimate","pair","left"
"","","","","","html-keyboard-response","98","449049","0.0-98.0","SS1678170761970","5f084a7987a3fe028ff65b8a","6406d7f26dd5b7fc1e3377bd","6406d8bff04d06a81259662a","1024","487","","2901",""," ","","","","","","","","","","","","","","","","","","","",""
"","","","","","html-keyboard-response","99","454271","0.0-99.0","SS1678170761970","5f084a7987a3fe028ff65b8a","6406d7f26dd5b7fc1e3377bd","6406d8bff04d06a81259662a","1024","487","","5199","","j","","","<img src=""media/stimuli/inanimate_008_right.png"" class=""coveredImage test"" style = ""width:100px; height:100px; position:fixed; top:10%;    transform: translate(-50%, -50%);left:48%""></img><img src=""media/stimuli/animate_008_left.png"" class=""coveredImage test"" style = ""width:100px; height:100px;position:fixed; top:25%;        transform: translate(-50%, -50%);left:38%""></img><img src=""media/stimuli/inanimate_008_right.png"" class=""coveredImage test"" style = ""width:100px; height:100px;position:fixed; top:25%;        transform: translate(-50%, -50%);left:58%""></img><img src=""media/f.png""style = ""width:30px x; height:30px;position:fixed; top:43%;    transform: translate(-50%, -50%);left:40%""></img><img src=""media/j.png""style = ""width:30px; height:30px;position:fixed; top:43%;    transform: translate(-50%, -50%);left:60%""></img>","media/stimuli/inanimate_008_right.png","inanimate","right","single","media/stimuli/animate_008_left.png","animate","left","single","media/stimuli/inanimate_008_right.png","inanimate","right","single","animacy_pose","","","",""
"","","","","","html-keyboard-response","100","457226","0.0-100.0","SS1678170761970","5f084a7987a3fe028ff65b8a","6406d7f26dd5b7fc1e3377bd","6406d8bff04d06a81259662a","1024","487","","2929","","j","","","<img src=""media/stimuli/animate_012_left.png"" class=""coveredImage test"" style = ""width:100px; height:100px; position:fixed; top:10%;    transform: translate(-50%, -50%);left:48%""></img><img src=""media/stimuli/animate_012_right.png"" class=""coveredImage test"" style = ""width:100px; height:100px;position:fixed; top:25%;        transform: translate(-50%, -50%);left:38%""></img><img src=""media/stimuli/animate_012_left.png"" class=""coveredImage test"" style = ""width:100px; height:100px;position:fixed; top:25%;        transform: translate(-50%, -50%);left:54.5%""></img><img src=""media/stimuli/animate_012_left.png"" class=""coveredImage test"" style = ""width:100px; height:100px;position:fixed; top:25%;        transform: translate(-50%, -50%);left:61.5%""></img><img src=""media/f.png""style = ""width:30px x; height:30px;position:fixed; top:43%;    transform: translate(-50%, -50%);left:40%""></img><img src=""media/j.png""style = ""width:30px; height:30px;position:fixed; top:43%;    transform: translate(-50%, -50%);left:60%""></img>","media/stimuli/animate_012_left.png","animate","left","single","media/stimuli/animate_012_right.png","animate","right","single","media/stimuli/animate_012_left.png","animate","left","pair","pose_number","","","",""
"","","","","","html-keyboard-response","101","459067","0.0-101.0","SS1678170761970","5f084a7987a3fe028ff65b8a","6406d7f26dd5b7fc1e3377bd","6406d8bff04d06a81259662a","1024","487","","1817","","j","","","<img src=""media/stimuli/animate_005_left.png"" class=""coveredImage test"" style = ""width:100px; height:100px; position:fixed; top:10%;    transform: translate(-50%, -50%);left:44.5%""></img><img src=""media/stimuli/animate_005_left.png"" class=""coveredImage test"" style = ""width:100px; height:100px; position:fixed; top:10%;    transform: translate(-50%, -50%);left:51.5%""></img><img src=""media/stimuli/animate_012_left.png"" class=""coveredImage test"" style = ""width:100px; height:100px;position:fixed; top:25%;        transform: translate(-50%, -50%);left:34.5%""></img><img src=""media/stimuli/animate_012_left.png"" class=""coveredImage test"" style = ""width:100px; height:100px;position:fixed; top:25%;        transform: translate(-50%, -50%);left:41.5%""></img><img src=""media/stimuli/animate_005_right.png"" class=""coveredImage test"" style = ""width:100px; height:100px;position:fixed; top:25%;        transform: translate(-50%, -50%);left:54.5%""></img><img src=""media/stimuli/animate_005_right.png"" class=""coveredImage test"" style = ""width:100px; height:100px;position:fixed; top:25%;        transform: translate(-50%, -50%);left:61.5%""></img><img src=""media/f.png""style = ""width:30px x; height:30px;position:fixed; top:43%;    transform: translate(-50%, -50%);left:40%""></img><img src=""media/j.png""style = ""width:30px; height:30px;position:fixed; top:43%;    transform: translate(-50%, -50%);left:60%""></img>","media/stimuli/animate_005_left.png","animate","left","pair","media/stimuli/animate_012_left.png","animate","left","pair","media/stimuli/animate_005_right.png","animate","right","pair","identity_pose","","","",""
"","","","","","html-keyboard-response","102","460438","0.0-102.0","SS1678170761970","5f084a7987a3fe028ff65b8a","6406d7f26dd5b7fc1e3377bd","6406d8bff04d06a81259662a","1024","487","","1349","","j","","","<img src=""media/stimuli/animate_003_right.png"" class=""coveredImage test"" style = ""width:100px; height:100px; position:fixed; top:10%;    transform: translate(-50%, -50%);left:44.5%""></img><img src=""media/stimuli/animate_003_right.png"" class=""coveredImage test"" style = ""width:100px; height:100px; position:fixed; top:10%;    transform: translate(-50%, -50%);left:51.5%""></img><img src=""media/stimuli/animate_011_right.png"" class=""coveredImage test"" style = ""width:100px; height:100px;position:fixed; top:25%;        transform: translate(-50%, -50%);left:34.5%""></img><img src=""media/stimuli/animate_011_right.png"" class=""coveredImage test"" style = ""width:100px; height:100px;position:fixed; top:25%;        transform: translate(-50%, -50%);left:41.5%""></img><img src=""media/stimuli/animate_003_left.png"" class=""coveredImage test"" style = ""width:100px; height:100px;position:fixed; top:25%;        transform: translate(-50%, -50%);left:54.5%""></img><img src=""media/stimuli/animate_003_left.png"" class=""coveredImage test"" style = ""width:100px; height:100px;position:fixed; top:25%;        transform: translate(-50%, -50%);left:61.5%""></img><img src=""media/f.png""style = ""width:30px x; height:30px;position:fixed; top:43%;    transform: translate(-50%, -50%);left:40%""></img><img src=""media/j.png""style = ""width:30px; height:30px;position:fixed; top:43%;    transform: translate(-50%, -50%);left:60%""></img>","media/stimuli/animate_003_right.png","animate","right","pair","media/stimuli/animate_011_right.png","animate","right","pair","media/stimuli/animate_003_left.png","animate","left","pair","identity_pose","","","",""
"","","","","","html-keyboard-response","103","461710","0.0-103.0","SS1678170761970","5f084a7987a3fe028ff65b8a","6406d7f26dd5b7fc1e3377bd","6406d8bff04d06a81259662a","1024","487","","1258","","f","","","<img src=""media/stimuli/inanimate_001_left.png"" class=""coveredImage test"" style = ""width:100px; height:100px; position:fixed; top:10%;    transform: translate(-50%, -50%);left:48%""></img><img src=""media/stimuli/inanimate_001_right.png"" class=""coveredImage test"" style = ""width:100px; height:100px;position:fixed; top:25%;        transform: translate(-50%, -50%);left:38%""></img><img src=""media/stimuli/inanimate_005_left.png"" class=""coveredImage test"" style = ""width:100px; height:100px;position:fixed; top:25%;        transform: translate(-50%, -50%);left:58%""></img><img src=""media/f.png""style = ""width:30px x; height:30px;position:fixed; top:43%;    transform: translate(-50%, -50%);left:40%""></img><img src=""media/j.png""style = ""width:30px; height:30px;position:fixed; top:43%;    transform: translate(-50%, -50%);left:60%""></img>","media/stimuli/inanimate_001_left.png","inanimate","left","single","media/stimuli/inanimate_001_right.png","inanimate","right","single","media/stimuli/inanimate_005_left.png","inanimate","left","single","pose_identity","","","",""
"","","","","","html-keyboard-response","104","463695","0.0-104.0","SS1678170761970","5f084a7987a3fe028ff65b8a","6406d7f26dd5b7fc1e3377bd","6406d8bff04d06a81259662a","1024","487","","1957","","j","","","<img src=""media/stimuli/animate_012_left.png"" class=""coveredImage test"" style = ""width:100px; height:100px; position:fixed; top:10%;    transform: translate(-50%, -50%);left:44.5%""></img><img src=""media/stimuli/animate_012_left.png"" class=""coveredImage test"" style = ""width:100px; height:100px; position:fixed; top:10%;    transform: translate(-50%, -50%);left:51.5%""></img><img src=""media/stimuli/inanimate_006_left.png"" class=""coveredImage test"" style = ""width:100px; height:100px;position:fixed; top:25%;        transform: translate(-50%, -50%);left:34.5%""></img><img src=""media/stimuli/inanimate_006_left.png"" class=""coveredImage test"" style = ""width:100px; height:100px;position:fixed; top:25%;        transform: translate(-50%, -50%);left:41.5%""></img><img src=""media/stimuli/animate_001_left.png"" class=""coveredImage test"" style = ""width:100px; height:100px;position:fixed; top:25%;        transform: translate(-50%, -50%);left:54.5%""></img><img src=""media/stimuli/animate_001_left.png"" class=""coveredImage test"" style = ""width:100px; height:100px;position:fixed; top:25%;        transform: translate(-50%, -50%);left:61.5%""></img><img src=""media/f.png""style = ""width:30px x; height:30px;position:fixed; top:43%;    transform: translate(-50%, -50%);left:40%""></img><img src=""media/j.png""style = ""width:30px; height:30px;position:fixed; top:43%;    transform: translate(-50%, -50%);left:60%""></img>","media/stimuli/animate_012_left.png","animate","left","pair","media/stimuli/inanimate_006_left.png","inanimate","left","pair","media/stimuli/animate_001_left.png","animate","left","pair","animacy_identity","","","",""
"","","","","","html-keyboard-response","105","465928","0.0-105.0","SS1678170761970","5f084a7987a3fe028ff65b8a","6406d7f26dd5b7fc1e3377bd","6406d8bff04d06a81259662a","1024","487","","2220","","j","","","<img src=""media/stimuli/inanimate_003_right.png"" class=""coveredImage test"" style = ""width:100px; height:100px; position:fixed; top:10%;    transform: translate(-50%, -50%);left:48%""></img><img src=""media/stimuli/inanimate_003_left.png"" class=""coveredImage test"" style = ""width:100px; height:100px;position:fixed; top:25%;        transform: translate(-50%, -50%);left:38%""></img><img src=""media/stimuli/inanimate_003_right.png"" class=""coveredImage test"" style = ""width:100px; height:100px;position:fixed; top:25%;        transform: translate(-50%, -50%);left:54.5%""></img><img src=""media/stimuli/inanimate_003_right.png"" class=""coveredImage test"" style = ""width:100px; height:100px;position:fixed; top:25%;        transform: translate(-50%, -50%);left:61.5%""></img><img src=""media/f.png""style = ""width:30px x; height:30px;position:fixed; top:43%;    transform: translate(-50%, -50%);left:40%""></img><img src=""media/j.png""style = ""width:30px; height:30px;position:fixed; top:43%;    transform: translate(-50%, -50%);left:60%""></img>","media/stimuli/inanimate_003_right.png","inanimate","right","single","media/stimuli/inanimate_003_left.png","inanimate","left","single","media/stimuli/inanimate_003_right.png","inanimate","right","pair","pose_number","","","",""
"","","","","","html-keyboard-response","106","468936","0.0-106.0","SS1678170761970","5f084a7987a3fe028ff65b8a","6406d7f26dd5b7fc1e3377bd","6406d8bff04d06a81259662a","1024","487","","2986","","j","","","<img src=""media/stimuli/animate_011_right.png"" class=""coveredImage test"" style = ""width:100px; height:100px; position:fixed; top:10%;    transform: translate(-50%, -50%);left:48%""></img><img src=""media/stimuli/animate_002_right.png"" class=""coveredImage test"" style = ""width:100px; height:100px;position:fixed; top:25%;        transform: translate(-50%, -50%);left:38%""></img><img src=""media/stimuli/animate_011_left.png"" class=""coveredImage test"" style = ""width:100px; height:100px;position:fixed; top:25%;        transform: translate(-50%, -50%);left:58%""></img><img src=""media/f.png""style = ""width:30px x; height:30px;position:fixed; top:43%;    transform: translate(-50%, -50%);left:40%""></img><img src=""media/j.png""style = ""width:30px; height:30px;position:fixed; top:43%;    transform: translate(-50%, -50%);left:60%""></img>","media/stimuli/animate_011_right.png","animate","right","single","media/stimuli/animate_002_right.png","animate","right","single","media/stimuli/animate_011_left.png","animate","left","single","identity_pose","","","",""
"","","","","","html-keyboard-response","107","470203","0.0-107.0","SS1678170761970","5f084a7987a3fe028ff65b8a","6406d7f26dd5b7fc1e3377bd","6406d8bff04d06a81259662a","1024","487","","1248","","j","","","<img src=""media/stimuli/animate_009_left.png"" class=""coveredImage test"" style = ""width:100px; height:100px; position:fixed; top:10%;    transform: translate(-50%, -50%);left:48%""></img><img src=""media/stimuli/inanimate_001_left.png"" class=""coveredImage test"" style = ""width:100px; height:100px;position:fixed; top:25%;        transform: translate(-50%, -50%);left:38%""></img><img src=""media/stimuli/animate_009_right.png"" class=""coveredImage test"" style = ""width:100px; height:100px;position:fixed; top:25%;        transform: translate(-50%, -50%);left:58%""></img><img src=""media/f.png""style = ""width:30px x; height:30px;position:fixed; top:43%;    transform: translate(-50%, -50%);left:40%""></img><img src=""media/j.png""style = ""width:30px; height:30px;position:fixed; top:43%;    transform: translate(-50%, -50%);left:60%""></img>","media/stimuli/animate_009_left.png","animate","left","single","media/stimuli/inanimate_001_left.png","inanimate","left","single","media/stimuli/animate_009_right.png","animate","right","single","animacy_pose","","","",""
"","","","","","html-keyboard-response","108","472755","0.0-108.0","SS1678170761970","5f084a7987a3fe028ff65b8a","6406d7f26dd5b7fc1e3377bd","6406d8bff04d06a81259662a","1024","487","","2537","","j","","","<img src=""media/stimuli/inanimate_003_right.png"" class=""coveredImage test"" style = ""width:100px; height:100px; position:fixed; top:10%;    transform: translate(-50%, -50%);left:44.5%""></img><img src=""media/stimuli/inanimate_003_right.png"" class=""coveredImage test"" style = ""width:100px; height:100px; position:fixed; top:10%;    transform: translate(-50%, -50%);left:51.5%""></img><img src=""media/stimuli/animate_010_right.png"" class=""coveredImage test"" style = ""width:100px; height:100px;position:fixed; top:25%;        transform: translate(-50%, -50%);left:34.5%""></img><img src=""media/stimuli/animate_010_right.png"" class=""coveredImage test"" style = ""width:100px; height:100px;position:fixed; top:25%;        transform: translate(-50%, -50%);left:41.5%""></img><img src=""media/stimuli/inanimate_011_right.png"" class=""coveredImage test"" style = ""width:100px; height:100px;position:fixed; top:25%;        transform: translate(-50%, -50%);left:54.5%""></img><img src=""media/stimuli/inanimate_011_right.png"" class=""coveredImage test"" style = ""width:100px; height:100px;position:fixed; top:25%;        transform: translate(-50%, -50%);left:61.5%""></img><img src=""media/f.png""style = ""width:30px x; height:30px;position:fixed; top:43%;    transform: translate(-50%, -50%);left:40%""></img><img src=""media/j.png""style = ""width:30px; height:30px;position:fixed; top:43%;    transform: translate(-50%, -50%);left:60%""></img>","media/stimuli/inanimate_003_right.png","inanimate","right","pair","media/stimuli/animate_010_right.png","animate","right","pair","media/stimuli/inanimate_011_right.png","inanimate","right","pair","animacy_identity","","","",""
"","","","","","html-keyboard-response","109","474732","0.0-109.0","SS1678170761970","5f084a7987a3fe028ff65b8a","6406d7f26dd5b7fc1e3377bd","6406d8bff04d06a81259662a","1024","487","","1954","","f","","","<img src=""media/stimuli/inanimate_001_left.png"" class=""coveredImage test"" style = ""width:100px; height:100px; position:fixed; top:10%;    transform: translate(-50%, -50%);left:48%""></img><img src=""media/stimuli/inanimate_001_right.png"" class=""coveredImage test"" style = ""width:100px; height:100px;position:fixed; top:25%;        transform: translate(-50%, -50%);left:38%""></img><img src=""media/stimuli/inanimate_002_left.png"" class=""coveredImage test"" style = ""width:100px; height:100px;position:fixed; top:25%;        transform: translate(-50%, -50%);left:58%""></img><img src=""media/f.png""style = ""width:30px x; height:30px;position:fixed; top:43%;    transform: translate(-50%, -50%);left:40%""></img><img src=""media/j.png""style = ""width:30px; height:30px;position:fixed; top:43%;    transform: translate(-50%, -50%);left:60%""></img>","media/stimuli/inanimate_001_left.png","inanimate","left","single","media/stimuli/inanimate_001_right.png","inanimate","right","single","media/stimuli/inanimate_002_left.png","inanimate","left","single","pose_identity","","","",""
"","","","","","html-keyboard-response","110","476566","0.0-110.0","SS1678170761970","5f084a7987a3fe028ff65b8a","6406d7f26dd5b7fc1e3377bd","6406d8bff04d06a81259662a","1024","487","","1819","","f","","","<img src=""media/stimuli/inanimate_005_right.png"" class=""coveredImage test"" style = ""width:100px; height:100px; position:fixed; top:10%;    transform: translate(-50%, -50%);left:44.5%""></img><img src=""media/stimuli/inanimate_005_right.png"" class=""coveredImage test"" style = ""width:100px; height:100px; position:fixed; top:10%;    transform: translate(-50%, -50%);left:51.5%""></img><img src=""media/stimuli/inanimate_005_left.png"" class=""coveredImage test"" style = ""width:100px; height:100px;position:fixed; top:25%;        transform: translate(-50%, -50%);left:34.5%""></img><img src=""media/stimuli/inanimate_005_left.png"" class=""coveredImage test"" style = ""width:100px; height:100px;position:fixed; top:25%;        transform: translate(-50%, -50%);left:41.5%""></img><img src=""media/stimuli/inanimate_012_right.png"" class=""coveredImage test"" style = ""width:100px; height:100px;position:fixed; top:25%;        transform: translate(-50%, -50%);left:54.5%""></img><img src=""media/stimuli/inanimate_012_right.png"" class=""coveredImage test"" style = ""width:100px; height:100px;position:fixed; top:25%;        transform: translate(-50%, -50%);left:61.5%""></img><img src=""media/f.png""style = ""width:30px x; height:30px;position:fixed; top:43%;    transform: translate(-50%, -50%);left:40%""></img><img src=""media/j.png""style = ""width:30px; height:30px;position:fixed; top:43%;    transform: translate(-50%, -50%);left:60%""></img>","media/stimuli/inanimate_005_right.png","inanimate","right","pair","media/stimuli/inanimate_005_left.png","inanimate","left","pair","media/stimuli/inanimate_012_right.png","inanimate","right","pair","pose_identity","","","",""
"","","","","","html-keyboard-response","111","478647","0.0-111.0","SS1678170761970","5f084a7987a3fe028ff65b8a","6406d7f26dd5b7fc1e3377bd","6406d8bff04d06a81259662a","1024","487","","2070",""," ","","","","","","","","","","","","","","","","","","","",""
"","","","","","html-keyboard-response","112","480598","0.0-112.0","SS1678170761970","5f084a7987a3fe028ff65b8a","6406d7f26dd5b7fc1e3377bd","6406d8bff04d06a81259662a","1024","487","","1929","","j","","","<img src=""media/stimuli/inanimate_012_left.png"" class=""coveredImage test"" style = ""width:100px; height:100px; position:fixed; top:10%;    transform: translate(-50%, -50%);left:48%""></img><img src=""media/stimuli/inanimate_012_right.png"" class=""coveredImage test"" style = ""width:100px; height:100px;position:fixed; top:25%;        transform: translate(-50%, -50%);left:38%""></img><img src=""media/stimuli/inanimate_012_left.png"" class=""coveredImage test"" style = ""width:100px; height:100px;position:fixed; top:25%;        transform: translate(-50%, -50%);left:54.5%""></img><img src=""media/stimuli/inanimate_012_left.png"" class=""coveredImage test"" style = ""width:100px; height:100px;position:fixed; top:25%;        transform: translate(-50%, -50%);left:61.5%""></img><img src=""media/f.png""style = ""width:30px x; height:30px;position:fixed; top:43%;    transform: translate(-50%, -50%);left:40%""></img><img src=""media/j.png""style = ""width:30px; height:30px;position:fixed; top:43%;    transform: translate(-50%, -50%);left:60%""></img>","media/stimuli/inanimate_012_left.png","inanimate","left","single","media/stimuli/inanimate_012_right.png","inanimate","right","single","media/stimuli/inanimate_012_left.png","inanimate","left","pair","pose_number","","","",""
"","","","","","html-keyboard-response","113","482483","0.0-113.0","SS1678170761970","5f084a7987a3fe028ff65b8a","6406d7f26dd5b7fc1e3377bd","6406d8bff04d06a81259662a","1024","487","","1842","","j","","","<img src=""media/stimuli/animate_002_right.png"" class=""coveredImage test"" style = ""width:100px; height:100px; position:fixed; top:10%;    transform: translate(-50%, -50%);left:44.5%""></img><img src=""media/stimuli/animate_002_right.png"" class=""coveredImage test"" style = ""width:100px; height:100px; position:fixed; top:10%;    transform: translate(-50%, -50%);left:51.5%""></img><img src=""media/stimuli/animate_003_right.png"" class=""coveredImage test"" style = ""width:100px; height:100px;position:fixed; top:25%;        transform: translate(-50%, -50%);left:34.5%""></img><img src=""media/stimuli/animate_003_right.png"" class=""coveredImage test"" style = ""width:100px; height:100px;position:fixed; top:25%;        transform: translate(-50%, -50%);left:41.5%""></img><img src=""media/stimuli/animate_002_right.png"" class=""coveredImage test"" style = ""width:100px; height:100px;position:fixed; top:25%;        transform: translate(-50%, -50%);left:58%""></img><img src=""media/f.png""style = ""width:30px x; height:30px;position:fixed; top:43%;    transform: translate(-50%, -50%);left:40%""></img><img src=""media/j.png""style = ""width:30px; height:30px;position:fixed; top:43%;    transform: translate(-50%, -50%);left:60%""></img>","media/stimuli/animate_002_right.png","animate","right","pair","media/stimuli/animate_003_right.png","animate","right","pair","media/stimuli/animate_002_right.png","animate","right","single","identity_number","","","",""
"","","","","","html-keyboard-response","114","484103","0.0-114.0","SS1678170761970","5f084a7987a3fe028ff65b8a","6406d7f26dd5b7fc1e3377bd","6406d8bff04d06a81259662a","1024","487","","1590","","j","","","<img src=""media/stimuli/animate_011_left.png"" class=""coveredImage test"" style = ""width:100px; height:100px; position:fixed; top:10%;    transform: translate(-50%, -50%);left:44.5%""></img><img src=""media/stimuli/animate_011_left.png"" class=""coveredImage test"" style = ""width:100px; height:100px; position:fixed; top:10%;    transform: translate(-50%, -50%);left:51.5%""></img><img src=""media/stimuli/inanimate_011_left.png"" class=""coveredImage test"" style = ""width:100px; height:100px;position:fixed; top:25%;        transform: translate(-50%, -50%);left:34.5%""></img><img src=""media/stimuli/inanimate_011_left.png"" class=""coveredImage test"" style = ""width:100px; height:100px;position:fixed; top:25%;        transform: translate(-50%, -50%);left:41.5%""></img><img src=""media/stimuli/animate_011_left.png"" class=""coveredImage test"" style = ""width:100px; height:100px;position:fixed; top:25%;        transform: translate(-50%, -50%);left:58%""></img><img src=""media/f.png""style = ""width:30px x; height:30px;position:fixed; top:43%;    transform: translate(-50%, -50%);left:40%""></img><img src=""media/j.png""style = ""width:30px; height:30px;position:fixed; top:43%;    transform: translate(-50%, -50%);left:60%""></img>","media/stimuli/animate_011_left.png","animate","left","pair","media/stimuli/inanimate_011_left.png","inanimate","left","pair","media/stimuli/animate_011_left.png","animate","left","single","animacy_number","","","",""
"","","","","","html-keyboard-response","115","485423","0.0-115.0","SS1678170761970","5f084a7987a3fe028ff65b8a","6406d7f26dd5b7fc1e3377bd","6406d8bff04d06a81259662a","1024","487","","1294","","j","","","<img src=""media/stimuli/inanimate_005_left.png"" class=""coveredImage test"" style = ""width:100px; height:100px; position:fixed; top:10%;    transform: translate(-50%, -50%);left:48%""></img><img src=""media/stimuli/animate_003_left.png"" class=""coveredImage test"" style = ""width:100px; height:100px;position:fixed; top:25%;        transform: translate(-50%, -50%);left:38%""></img><img src=""media/stimuli/inanimate_005_left.png"" class=""coveredImage test"" style = ""width:100px; height:100px;position:fixed; top:25%;        transform: translate(-50%, -50%);left:54.5%""></img><img src=""media/stimuli/inanimate_005_left.png"" class=""coveredImage test"" style = ""width:100px; height:100px;position:fixed; top:25%;        transform: translate(-50%, -50%);left:61.5%""></img><img src=""media/f.png""style = ""width:30px x; height:30px;position:fixed; top:43%;    transform: translate(-50%, -50%);left:40%""></img><img src=""media/j.png""style = ""width:30px; height:30px;position:fixed; top:43%;    transform: translate(-50%, -50%);left:60%""></img>","media/stimuli/inanimate_005_left.png","inanimate","left","single","media/stimuli/animate_003_left.png","animate","left","single","media/stimuli/inanimate_005_left.png","inanimate","left","pair","animacy_number","","","",""
"","","","","","html-keyboard-response","116","486853","0.0-116.0","SS1678170761970","5f084a7987a3fe028ff65b8a","6406d7f26dd5b7fc1e3377bd","6406d8bff04d06a81259662a","1024","487","","1399","","f","","","<img src=""media/stimuli/animate_010_right.png"" class=""coveredImage test"" style = ""width:100px; height:100px; position:fixed; top:10%;    transform: translate(-50%, -50%);left:44.5%""></img><img src=""media/stimuli/animate_010_right.png"" class=""coveredImage test"" style = ""width:100px; height:100px; position:fixed; top:10%;    transform: translate(-50%, -50%);left:51.5%""></img><img src=""media/stimuli/animate_011_right.png"" class=""coveredImage test"" style = ""width:100px; height:100px;position:fixed; top:25%;        transform: translate(-50%, -50%);left:34.5%""></img><img src=""media/stimuli/animate_011_right.png"" class=""coveredImage test"" style = ""width:100px; height:100px;position:fixed; top:25%;        transform: translate(-50%, -50%);left:41.5%""></img><img src=""media/stimuli/inanimate_007_right.png"" class=""coveredImage test"" style = ""width:100px; height:100px;position:fixed; top:25%;        transform: translate(-50%, -50%);left:54.5%""></img><img src=""media/stimuli/inanimate_007_right.png"" class=""coveredImage test"" style = ""width:100px; height:100px;position:fixed; top:25%;        transform: translate(-50%, -50%);left:61.5%""></img><img src=""media/f.png""style = ""width:30px x; height:30px;position:fixed; top:43%;    transform: translate(-50%, -50%);left:40%""></img><img src=""media/j.png""style = ""width:30px; height:30px;position:fixed; top:43%;    transform: translate(-50%, -50%);left:60%""></img>","media/stimuli/animate_010_right.png","animate","right","pair","media/stimuli/animate_011_right.png","animate","right","pair","media/stimuli/inanimate_007_right.png","inanimate","right","pair","identity_animacy","","","",""
"","","","","","html-keyboard-response","117","488213","0.0-117.0","SS1678170761970","5f084a7987a3fe028ff65b8a","6406d7f26dd5b7fc1e3377bd","6406d8bff04d06a81259662a","1024","487","","1339","","f","","","<img src=""media/stimuli/inanimate_003_right.png"" class=""coveredImage test"" style = ""width:100px; height:100px; position:fixed; top:10%;    transform: translate(-50%, -50%);left:44.5%""></img><img src=""media/stimuli/inanimate_003_right.png"" class=""coveredImage test"" style = ""width:100px; height:100px; position:fixed; top:10%;    transform: translate(-50%, -50%);left:51.5%""></img><img src=""media/stimuli/inanimate_008_right.png"" class=""coveredImage test"" style = ""width:100px; height:100px;position:fixed; top:25%;        transform: translate(-50%, -50%);left:34.5%""></img><img src=""media/stimuli/inanimate_008_right.png"" class=""coveredImage test"" style = ""width:100px; height:100px;position:fixed; top:25%;        transform: translate(-50%, -50%);left:41.5%""></img><img src=""media/stimuli/inanimate_003_right.png"" class=""coveredImage test"" style = ""width:100px; height:100px;position:fixed; top:25%;        transform: translate(-50%, -50%);left:58%""></img><img src=""media/f.png""style = ""width:30px x; height:30px;position:fixed; top:43%;    transform: translate(-50%, -50%);left:40%""></img><img src=""media/j.png""style = ""width:30px; height:30px;position:fixed; top:43%;    transform: translate(-50%, -50%);left:60%""></img>","media/stimuli/inanimate_003_right.png","inanimate","right","pair","media/stimuli/inanimate_008_right.png","inanimate","right","pair","media/stimuli/inanimate_003_right.png","inanimate","right","single","identity_number","","","",""
"","","","","","html-keyboard-response","118","490690","0.0-118.0","SS1678170761970","5f084a7987a3fe028ff65b8a","6406d7f26dd5b7fc1e3377bd","6406d8bff04d06a81259662a","1024","487","","2446","","j","","","<img src=""media/stimuli/inanimate_007_right.png"" class=""coveredImage test"" style = ""width:100px; height:100px; position:fixed; top:10%;    transform: translate(-50%, -50%);left:44.5%""></img><img src=""media/stimuli/inanimate_007_right.png"" class=""coveredImage test"" style = ""width:100px; height:100px; position:fixed; top:10%;    transform: translate(-50%, -50%);left:51.5%""></img><img src=""media/stimuli/animate_002_right.png"" class=""coveredImage test"" style = ""width:100px; height:100px;position:fixed; top:25%;        transform: translate(-50%, -50%);left:34.5%""></img><img src=""media/stimuli/animate_002_right.png"" class=""coveredImage test"" style = ""width:100px; height:100px;position:fixed; top:25%;        transform: translate(-50%, -50%);left:41.5%""></img><img src=""media/stimuli/inanimate_002_right.png"" class=""coveredImage test"" style = ""width:100px; height:100px;position:fixed; top:25%;        transform: translate(-50%, -50%);left:54.5%""></img><img src=""media/stimuli/inanimate_002_right.png"" class=""coveredImage test"" style = ""width:100px; height:100px;position:fixed; top:25%;        transform: translate(-50%, -50%);left:61.5%""></img><img src=""media/f.png""style = ""width:30px x; height:30px;position:fixed; top:43%;    transform: translate(-50%, -50%);left:40%""></img><img src=""media/j.png""style = ""width:30px; height:30px;position:fixed; top:43%;    transform: translate(-50%, -50%);left:60%""></img>","media/stimuli/inanimate_007_right.png","inanimate","right","pair","media/stimuli/animate_002_right.png","animate","right","pair","media/stimuli/inanimate_002_right.png","inanimate","right","pair","animacy_identity","","","",""
"","","","","","html-keyboard-response","119","492127","0.0-119.0","SS1678170761970","5f084a7987a3fe028ff65b8a","6406d7f26dd5b7fc1e3377bd","6406d8bff04d06a81259662a","1024","487","","1423","","f","","","<img src=""media/stimuli/animate_001_left.png"" class=""coveredImage test"" style = ""width:100px; height:100px; position:fixed; top:10%;    transform: translate(-50%, -50%);left:48%""></img><img src=""media/stimuli/animate_001_right.png"" class=""coveredImage test"" style = ""width:100px; height:100px;position:fixed; top:25%;        transform: translate(-50%, -50%);left:34.5%""></img><img src=""media/stimuli/animate_001_right.png"" class=""coveredImage test"" style = ""width:100px; height:100px;position:fixed; top:25%;        transform: translate(-50%, -50%);left:41.5%""></img><img src=""media/stimuli/inanimate_007_left.png"" class=""coveredImage test"" style = ""width:100px; height:100px;position:fixed; top:25%;        transform: translate(-50%, -50%);left:54.5%""></img><img src=""media/stimuli/inanimate_007_left.png"" class=""coveredImage test"" style = ""width:100px; height:100px;position:fixed; top:25%;        transform: translate(-50%, -50%);left:61.5%""></img><img src=""media/f.png""style = ""width:30px x; height:30px;position:fixed; top:43%;    transform: translate(-50%, -50%);left:40%""></img><img src=""media/j.png""style = ""width:30px; height:30px;position:fixed; top:43%;    transform: translate(-50%, -50%);left:60%""></img>","media/stimuli/animate_001_left.png","animate","left","single","media/stimuli/animate_001_right.png","animate","right","pair","media/stimuli/inanimate_007_left.png","inanimate","left","pair","pose_animacy","","","",""
"","","","","","html-keyboard-response","120","493507","0.0-120.0","SS1678170761970","5f084a7987a3fe028ff65b8a","6406d7f26dd5b7fc1e3377bd","6406d8bff04d06a81259662a","1024","487","","1370","","f","","","<img src=""media/stimuli/inanimate_003_left.png"" class=""coveredImage test"" style = ""width:100px; height:100px; position:fixed; top:10%;    transform: translate(-50%, -50%);left:48%""></img><img src=""media/stimuli/inanimate_003_right.png"" class=""coveredImage test"" style = ""width:100px; height:100px;position:fixed; top:25%;        transform: translate(-50%, -50%);left:38%""></img><img src=""media/stimuli/inanimate_006_left.png"" class=""coveredImage test"" style = ""width:100px; height:100px;position:fixed; top:25%;        transform: translate(-50%, -50%);left:58%""></img><img src=""media/f.png""style = ""width:30px x; height:30px;position:fixed; top:43%;    transform: translate(-50%, -50%);left:40%""></img><img src=""media/j.png""style = ""width:30px; height:30px;position:fixed; top:43%;    transform: translate(-50%, -50%);left:60%""></img>","media/stimuli/inanimate_003_left.png","inanimate","left","single","media/stimuli/inanimate_003_right.png","inanimate","right","single","media/stimuli/inanimate_006_left.png","inanimate","left","single","pose_identity","","","",""
"","","","","","html-keyboard-response","121","495073","0.0-121.0","SS1678170761970","5f084a7987a3fe028ff65b8a","6406d7f26dd5b7fc1e3377bd","6406d8bff04d06a81259662a","1024","487","","1545","","j","","","<img src=""media/stimuli/animate_007_left.png"" class=""coveredImage test"" style = ""width:100px; height:100px; position:fixed; top:10%;    transform: translate(-50%, -50%);left:44.5%""></img><img src=""media/stimuli/animate_007_left.png"" class=""coveredImage test"" style = ""width:100px; height:100px; position:fixed; top:10%;    transform: translate(-50%, -50%);left:51.5%""></img><img src=""media/stimuli/animate_007_left.png"" class=""coveredImage test"" style = ""width:100px; height:100px;position:fixed; top:25%;        transform: translate(-50%, -50%);left:38%""></img><img src=""media/stimuli/animate_004_left.png"" class=""coveredImage test"" style = ""width:100px; height:100px;position:fixed; top:25%;        transform: translate(-50%, -50%);left:54.5%""></img><img src=""media/stimuli/animate_004_left.png"" class=""coveredImage test"" style = ""width:100px; height:100px;position:fixed; top:25%;        transform: translate(-50%, -50%);left:61.5%""></img><img src=""media/f.png""style = ""width:30px x; height:30px;position:fixed; top:43%;    transform: translate(-50%, -50%);left:40%""></img><img src=""media/j.png""style = ""width:30px; height:30px;position:fixed; top:43%;    transform: translate(-50%, -50%);left:60%""></img>","media/stimuli/animate_007_left.png","animate","left","pair","media/stimuli/animate_007_left.png","animate","left","single","media/stimuli/animate_004_left.png","animate","left","pair","number_identity","","","",""
"","","","","","html-keyboard-response","122","497764","0.0-122.0","SS1678170761970","5f084a7987a3fe028ff65b8a","6406d7f26dd5b7fc1e3377bd","6406d8bff04d06a81259662a","1024","487","","2675","","f","","","<img src=""media/stimuli/animate_009_right.png"" class=""coveredImage test"" style = ""width:100px; height:100px; position:fixed; top:10%;    transform: translate(-50%, -50%);left:48%""></img><img src=""media/stimuli/animate_009_right.png"" class=""coveredImage test"" style = ""width:100px; height:100px;position:fixed; top:25%;        transform: translate(-50%, -50%);left:34.5%""></img><img src=""media/stimuli/animate_009_right.png"" class=""coveredImage test"" style = ""width:100px; height:100px;position:fixed; top:25%;        transform: translate(-50%, -50%);left:41.5%""></img><img src=""media/stimuli/animate_009_left.png"" class=""coveredImage test"" style = ""width:100px; height:100px;position:fixed; top:25%;        transform: translate(-50%, -50%);left:58%""></img><img src=""media/f.png""style = ""width:30px x; height:30px;position:fixed; top:43%;    transform: translate(-50%, -50%);left:40%""></img><img src=""media/j.png""style = ""width:30px; height:30px;position:fixed; top:43%;    transform: translate(-50%, -50%);left:60%""></img>","media/stimuli/animate_009_right.png","animate","right","single","media/stimuli/animate_009_right.png","animate","right","pair","media/stimuli/animate_009_left.png","animate","left","single","number_pose","","","",""
