"success","timeout","failed_images","failed_audio","failed_video","trial_type","trial_index","time_elapsed","internal_node_id","subject","prolific_id","study","session","window_width","window_height","view_history","rt","stimulus_type","response","question_order","rating_type","rating_stimulus","rating_animacy","rating_number","rating_pose","stimulus","target","target_animacy","target_pose","target_number","left","left_animacy","left_pose","left_number","right","right_animacy","right_pose","right_number","comparison_type"
"true","false","[]","[]","[]","preload","0","4644","0.0-0.0","SS1678233203995","5a6b4cd2d5d4cb0001d64740","6406d7f26dd5b7fc1e3377bd","6407ce6cf4c0c80d9bf19b5c","1440","796","","","","","","","","","","","","","","","","","","","","","","","",""
"","","","","","instructions","1","6310","0.0-1.0","SS1678233203995","5a6b4cd2d5d4cb0001d64740","6406d7f26dd5b7fc1e3377bd","6407ce6cf4c0c80d9bf19b5c","1440","796","[{""page_index"":0,""viewing_time"":1665}]","1665","","","","","","","","","","","","","","","","","","","","","",""
"","","","","","instructions","2","11877","0.0-2.0","SS1678233203995","5a6b4cd2d5d4cb0001d64740","6406d7f26dd5b7fc1e3377bd","6407ce6cf4c0c80d9bf19b5c","1440","796","[{""page_index"":0,""viewing_time"":3561}]","3561","instructions","","","","","","","","","","","","","","","","","","","","",""
"","","","","","instructions","3","13143","0.0-3.0","SS1678233203995","5a6b4cd2d5d4cb0001d64740","6406d7f26dd5b7fc1e3377bd","6407ce6cf4c0c80d9bf19b5c","1440","796","[{""page_index"":0,""viewing_time"":1265}]","1266","instructions","","","","","","","","","","","","","","","","","","","","",""
"","","","","","survey-likert","4","18944","0.0-4.0","SS1678233203995","5a6b4cd2d5d4cb0001d64740","6406d7f26dd5b7fc1e3377bd","6407ce6cf4c0c80d9bf19b5c","1440","796","","5799","","{""Q0"":6}","[0]","anchoring","","","","","","","","","","","","","","","","","",""
"","","","","","survey-likert","5","23543","0.0-5.0","SS1678233203995","5a6b4cd2d5d4cb0001d64740","6406d7f26dd5b7fc1e3377bd","6407ce6cf4c0c80d9bf19b5c","1440","796","","4596","","{""Q0"":0}","[0]","anchoring","","","","","","","","","","","","","","","","","",""
"","","","","","instructions","6","24427","0.0-6.0","SS1678233203995","5a6b4cd2d5d4cb0001d64740","6406d7f26dd5b7fc1e3377bd","6407ce6cf4c0c80d9bf19b5c","1440","796","[{""page_index"":0,""viewing_time"":881}]","881","instructions","","","","","","","","","","","","","","","","","","","","",""
"true","","","","","fullscreen","7","26116","0.0-7.0","SS1678233203995","5a6b4cd2d5d4cb0001d64740","6406d7f26dd5b7fc1e3377bd","6407ce6cf4c0c80d9bf19b5c","1440","796","","","","","","","","","","","","","","","","","","","","","","","",""
"","","","","","survey-likert","8","29544","0.0-8.0","SS1678233203995","5a6b4cd2d5d4cb0001d64740","6406d7f26dd5b7fc1e3377bd","6407ce6cf4c0c80d9bf19b5c","1440","796","","3426","","{""Q0"":2}","[0]","complexity","media/stimuli/animate_008_left.png","animate","single","left","","","","","","","","","","","","","",""
"","","","","","survey-likert","9","34577","0.0-9.0","SS1678233203995","5a6b4cd2d5d4cb0001d64740","6406d7f26dd5b7fc1e3377bd","6407ce6cf4c0c80d9bf19b5c","1440","796","","5028","","{""Q0"":1}","[0]","complexity","media/stimuli/animate_001_right.png","animate","single","right","","","","","","","","","","","","","",""
"","","","","","survey-likert","10","38294","0.0-10.0","SS1678233203995","5a6b4cd2d5d4cb0001d64740","6406d7f26dd5b7fc1e3377bd","6407ce6cf4c0c80d9bf19b5c","1440","796","","3712","","{""Q0"":4}","[0]","complexity","media/stimuli/animate_011_left.png","animate","pair","left","","","","","","","","","","","","","",""
"","","","","","survey-likert","11","40144","0.0-11.0","SS1678233203995","5a6b4cd2d5d4cb0001d64740","6406d7f26dd5b7fc1e3377bd","6407ce6cf4c0c80d9bf19b5c","1440","796","","1844","","{""Q0"":2}","[0]","complexity","media/stimuli/inanimate_008_right.png","inanimate","pair","right","","","","","","","","","","","","","",""
"","","","","","survey-likert","12","42475","0.0-12.0","SS1678233203995","5a6b4cd2d5d4cb0001d64740","6406d7f26dd5b7fc1e3377bd","6407ce6cf4c0c80d9bf19b5c","1440","796","","2327","","{""Q0"":0}","[0]","complexity","media/stimuli/inanimate_001_right.png","inanimate","single","right","","","","","","","","","","","","","",""
"","","","","","survey-likert","13","44877","0.0-13.0","SS1678233203995","5a6b4cd2d5d4cb0001d64740","6406d7f26dd5b7fc1e3377bd","6407ce6cf4c0c80d9bf19b5c","1440","796","","2398","","{""Q0"":3}","[0]","complexity","media/stimuli/animate_004_left.png","animate","pair","left","","","","","","","","","","","","","",""
"","","","","","survey-likert","14","48894","0.0-14.0","SS1678233203995","5a6b4cd2d5d4cb0001d64740","6406d7f26dd5b7fc1e3377bd","6407ce6cf4c0c80d9bf19b5c","1440","796","","4012","","{""Q0"":2}","[0]","complexity","media/stimuli/animate_003_right.png","animate","pair","right","","","","","","","","","","","","","",""
"","","","","","survey-likert","15","52010","0.0-15.0","SS1678233203995","5a6b4cd2d5d4cb0001d64740","6406d7f26dd5b7fc1e3377bd","6407ce6cf4c0c80d9bf19b5c","1440","796","","3110","","{""Q0"":1}","[0]","complexity","media/stimuli/animate_012_left.png","animate","single","left","","","","","","","","","","","","","",""
"","","","","","survey-likert","16","55393","0.0-16.0","SS1678233203995","5a6b4cd2d5d4cb0001d64740","6406d7f26dd5b7fc1e3377bd","6407ce6cf4c0c80d9bf19b5c","1440","796","","3378","","{""Q0"":1}","[0]","complexity","media/stimuli/inanimate_011_right.png","inanimate","single","right","","","","","","","","","","","","","",""
"","","","","","survey-likert","17","59344","0.0-17.0","SS1678233203995","5a6b4cd2d5d4cb0001d64740","6406d7f26dd5b7fc1e3377bd","6407ce6cf4c0c80d9bf19b5c","1440","796","","3946","","{""Q0"":0}","[0]","complexity","media/stimuli/inanimate_004_left.png","inanimate","single","left","","","","","","","","","","","","","",""
"","","","","","survey-likert","18","61694","0.0-18.0","SS1678233203995","5a6b4cd2d5d4cb0001d64740","6406d7f26dd5b7fc1e3377bd","6407ce6cf4c0c80d9bf19b5c","1440","796","","2344","","{""Q0"":2}","[0]","complexity","media/stimuli/animate_007_left.png","animate","single","left","","","","","","","","","","","","","",""
"","","","","","survey-likert","19","63976","0.0-19.0","SS1678233203995","5a6b4cd2d5d4cb0001d64740","6406d7f26dd5b7fc1e3377bd","6407ce6cf4c0c80d9bf19b5c","1440","796","","2277","","{""Q0"":4}","[0]","complexity","media/stimuli/animate_006_right.png","animate","pair","right","","","","","","","","","","","","","",""
"","","","","","html-keyboard-response","20","66389","0.0-20.0","SS1678233203995","5a6b4cd2d5d4cb0001d64740","6406d7f26dd5b7fc1e3377bd","6407ce6cf4c0c80d9bf19b5c","1440","796","","2407",""," ","","","","","","","","","","","","","","","","","","","",""
"","","","","","html-keyboard-response","21","70226","0.0-21.0","SS1678233203995","5a6b4cd2d5d4cb0001d64740","6406d7f26dd5b7fc1e3377bd","6407ce6cf4c0c80d9bf19b5c","1440","796","","3835","","f","","","","","","","<img src=""media/stimuli/animate_012_right.png"" class=""coveredImage test"" style = ""width:100px; height:100px; position:fixed; top:10%;    transform: translate(-50%, -50%);left:44.5%""></img><img src=""media/stimuli/animate_012_right.png"" class=""coveredImage test"" style = ""width:100px; height:100px; position:fixed; top:10%;    transform: translate(-50%, -50%);left:51.5%""></img><img src=""media/stimuli/animate_012_right.png"" class=""coveredImage test"" style = ""width:100px; height:100px;position:fixed; top:25%;        transform: translate(-50%, -50%);left:38%""></img><img src=""media/stimuli/animate_006_right.png"" class=""coveredImage test"" style = ""width:100px; height:100px;position:fixed; top:25%;        transform: translate(-50%, -50%);left:54.5%""></img><img src=""media/stimuli/animate_006_right.png"" class=""coveredImage test"" style = ""width:100px; height:100px;position:fixed; top:25%;        transform: translate(-50%, -50%);left:61.5%""></img><img src=""media/f.png""style = ""width:30px x; height:30px;position:fixed; top:43%;    transform: translate(-50%, -50%);left:40%""></img><img src=""media/j.png""style = ""width:30px; height:30px;position:fixed; top:43%;    transform: translate(-50%, -50%);left:60%""></img>","media/stimuli/animate_012_right.png","animate","right","pair","media/stimuli/animate_012_right.png","animate","right","single","media/stimuli/animate_006_right.png","animate","right","pair","number_identity"
"","","","","","html-keyboard-response","22","71924","0.0-22.0","SS1678233203995","5a6b4cd2d5d4cb0001d64740","6406d7f26dd5b7fc1e3377bd","6407ce6cf4c0c80d9bf19b5c","1440","796","","1693","","f","","","","","","","<img src=""media/stimuli/animate_002_right.png"" class=""coveredImage test"" style = ""width:100px; height:100px; position:fixed; top:10%;    transform: translate(-50%, -50%);left:48%""></img><img src=""media/stimuli/animate_004_right.png"" class=""coveredImage test"" style = ""width:100px; height:100px;position:fixed; top:25%;        transform: translate(-50%, -50%);left:38%""></img><img src=""media/stimuli/inanimate_006_right.png"" class=""coveredImage test"" style = ""width:100px; height:100px;position:fixed; top:25%;        transform: translate(-50%, -50%);left:58%""></img><img src=""media/f.png""style = ""width:30px x; height:30px;position:fixed; top:43%;    transform: translate(-50%, -50%);left:40%""></img><img src=""media/j.png""style = ""width:30px; height:30px;position:fixed; top:43%;    transform: translate(-50%, -50%);left:60%""></img>","media/stimuli/animate_002_right.png","animate","right","single","media/stimuli/animate_004_right.png","animate","right","single","media/stimuli/inanimate_006_right.png","inanimate","right","single","identity_animacy"
"","","","","","html-keyboard-response","23","72682","0.0-23.0","SS1678233203995","5a6b4cd2d5d4cb0001d64740","6406d7f26dd5b7fc1e3377bd","6407ce6cf4c0c80d9bf19b5c","1440","796","","754","","j","","","","","","","<img src=""media/stimuli/animate_005_left.png"" class=""coveredImage test"" style = ""width:100px; height:100px; position:fixed; top:10%;    transform: translate(-50%, -50%);left:44.5%""></img><img src=""media/stimuli/animate_005_left.png"" class=""coveredImage test"" style = ""width:100px; height:100px; position:fixed; top:10%;    transform: translate(-50%, -50%);left:51.5%""></img><img src=""media/stimuli/animate_012_left.png"" class=""coveredImage test"" style = ""width:100px; height:100px;position:fixed; top:25%;        transform: translate(-50%, -50%);left:34.5%""></img><img src=""media/stimuli/animate_012_left.png"" class=""coveredImage test"" style = ""width:100px; height:100px;position:fixed; top:25%;        transform: translate(-50%, -50%);left:41.5%""></img><img src=""media/stimuli/animate_005_right.png"" class=""coveredImage test"" style = ""width:100px; height:100px;position:fixed; top:25%;        transform: translate(-50%, -50%);left:54.5%""></img><img src=""media/stimuli/animate_005_right.png"" class=""coveredImage test"" style = ""width:100px; height:100px;position:fixed; top:25%;        transform: translate(-50%, -50%);left:61.5%""></img><img src=""media/f.png""style = ""width:30px x; height:30px;position:fixed; top:43%;    transform: translate(-50%, -50%);left:40%""></img><img src=""media/j.png""style = ""width:30px; height:30px;position:fixed; top:43%;    transform: translate(-50%, -50%);left:60%""></img>","media/stimuli/animate_005_left.png","animate","left","pair","media/stimuli/animate_012_left.png","animate","left","pair","media/stimuli/animate_005_right.png","animate","right","pair","identity_pose"
"","","","","","html-keyboard-response","24","73849","0.0-24.0","SS1678233203995","5a6b4cd2d5d4cb0001d64740","6406d7f26dd5b7fc1e3377bd","6407ce6cf4c0c80d9bf19b5c","1440","796","","1163","","f","","","","","","","<img src=""media/stimuli/animate_009_left.png"" class=""coveredImage test"" style = ""width:100px; height:100px; position:fixed; top:10%;    transform: translate(-50%, -50%);left:48%""></img><img src=""media/stimuli/animate_012_left.png"" class=""coveredImage test"" style = ""width:100px; height:100px;position:fixed; top:25%;        transform: translate(-50%, -50%);left:38%""></img><img src=""media/stimuli/inanimate_006_left.png"" class=""coveredImage test"" style = ""width:100px; height:100px;position:fixed; top:25%;        transform: translate(-50%, -50%);left:58%""></img><img src=""media/f.png""style = ""width:30px x; height:30px;position:fixed; top:43%;    transform: translate(-50%, -50%);left:40%""></img><img src=""media/j.png""style = ""width:30px; height:30px;position:fixed; top:43%;    transform: translate(-50%, -50%);left:60%""></img>","media/stimuli/animate_009_left.png","animate","left","single","media/stimuli/animate_012_left.png","animate","left","single","media/stimuli/inanimate_006_left.png","inanimate","left","single","identity_animacy"
"","","","","","html-keyboard-response","25","74618","0.0-25.0","SS1678233203995","5a6b4cd2d5d4cb0001d64740","6406d7f26dd5b7fc1e3377bd","6407ce6cf4c0c80d9bf19b5c","1440","796","","766","","j","","","","","","","<img src=""media/stimuli/inanimate_002_right.png"" class=""coveredImage test"" style = ""width:100px; height:100px; position:fixed; top:10%;    transform: translate(-50%, -50%);left:48%""></img><img src=""media/stimuli/inanimate_002_right.png"" class=""coveredImage test"" style = ""width:100px; height:100px;position:fixed; top:25%;        transform: translate(-50%, -50%);left:34.5%""></img><img src=""media/stimuli/inanimate_002_right.png"" class=""coveredImage test"" style = ""width:100px; height:100px;position:fixed; top:25%;        transform: translate(-50%, -50%);left:41.5%""></img><img src=""media/stimuli/inanimate_002_left.png"" class=""coveredImage test"" style = ""width:100px; height:100px;position:fixed; top:25%;        transform: translate(-50%, -50%);left:58%""></img><img src=""media/f.png""style = ""width:30px x; height:30px;position:fixed; top:43%;    transform: translate(-50%, -50%);left:40%""></img><img src=""media/j.png""style = ""width:30px; height:30px;position:fixed; top:43%;    transform: translate(-50%, -50%);left:60%""></img>","media/stimuli/inanimate_002_right.png","inanimate","right","single","media/stimuli/inanimate_002_right.png","inanimate","right","pair","media/stimuli/inanimate_002_left.png","inanimate","left","single","number_pose"
"","","","","","html-keyboard-response","26","75469","0.0-26.0","SS1678233203995","5a6b4cd2d5d4cb0001d64740","6406d7f26dd5b7fc1e3377bd","6407ce6cf4c0c80d9bf19b5c","1440","796","","848","","f","","","","","","","<img src=""media/stimuli/animate_009_right.png"" class=""coveredImage test"" style = ""width:100px; height:100px; position:fixed; top:10%;    transform: translate(-50%, -50%);left:44.5%""></img><img src=""media/stimuli/animate_009_right.png"" class=""coveredImage test"" style = ""width:100px; height:100px; position:fixed; top:10%;    transform: translate(-50%, -50%);left:51.5%""></img><img src=""media/stimuli/animate_009_right.png"" class=""coveredImage test"" style = ""width:100px; height:100px;position:fixed; top:25%;        transform: translate(-50%, -50%);left:38%""></img><img src=""media/stimuli/inanimate_011_right.png"" class=""coveredImage test"" style = ""width:100px; height:100px;position:fixed; top:25%;        transform: translate(-50%, -50%);left:54.5%""></img><img src=""media/stimuli/inanimate_011_right.png"" class=""coveredImage test"" style = ""width:100px; height:100px;position:fixed; top:25%;        transform: translate(-50%, -50%);left:61.5%""></img><img src=""media/f.png""style = ""width:30px x; height:30px;position:fixed; top:43%;    transform: translate(-50%, -50%);left:40%""></img><img src=""media/j.png""style = ""width:30px; height:30px;position:fixed; top:43%;    transform: translate(-50%, -50%);left:60%""></img>","media/stimuli/animate_009_right.png","animate","right","pair","media/stimuli/animate_009_right.png","animate","right","single","media/stimuli/inanimate_011_right.png","inanimate","right","pair","number_animacy"
"","","","","","html-keyboard-response","27","76173","0.0-27.0","SS1678233203995","5a6b4cd2d5d4cb0001d64740","6406d7f26dd5b7fc1e3377bd","6407ce6cf4c0c80d9bf19b5c","1440","796","","701","","f","","","","","","","<img src=""media/stimuli/inanimate_008_left.png"" class=""coveredImage test"" style = ""width:100px; height:100px; position:fixed; top:10%;    transform: translate(-50%, -50%);left:44.5%""></img><img src=""media/stimuli/inanimate_008_left.png"" class=""coveredImage test"" style = ""width:100px; height:100px; position:fixed; top:10%;    transform: translate(-50%, -50%);left:51.5%""></img><img src=""media/stimuli/inanimate_008_left.png"" class=""coveredImage test"" style = ""width:100px; height:100px;position:fixed; top:25%;        transform: translate(-50%, -50%);left:34.5%""></img><img src=""media/stimuli/inanimate_008_left.png"" class=""coveredImage test"" style = ""width:100px; height:100px;position:fixed; top:25%;        transform: translate(-50%, -50%);left:41.5%""></img><img src=""media/stimuli/inanimate_012_left.png"" class=""coveredImage test"" style = ""width:100px; height:100px;position:fixed; top:25%;        transform: translate(-50%, -50%);left:54.5%""></img><img src=""media/stimuli/inanimate_012_left.png"" class=""coveredImage test"" style = ""width:100px; height:100px;position:fixed; top:25%;        transform: translate(-50%, -50%);left:61.5%""></img><img src=""media/f.png""style = ""width:30px x; height:30px;position:fixed; top:43%;    transform: translate(-50%, -50%);left:40%""></img><img src=""media/j.png""style = ""width:30px; height:30px;position:fixed; top:43%;    transform: translate(-50%, -50%);left:60%""></img>","media/stimuli/inanimate_008_left.png","inanimate","left","pair","media/stimuli/inanimate_008_left.png","inanimate","left","pair","media/stimuli/inanimate_012_left.png","inanimate","left","pair","filler_identity"
"","","","","","html-keyboard-response","28","76890","0.0-28.0","SS1678233203995","5a6b4cd2d5d4cb0001d64740","6406d7f26dd5b7fc1e3377bd","6407ce6cf4c0c80d9bf19b5c","1440","796","","714","","f","","","","","","","<img src=""media/stimuli/inanimate_002_left.png"" class=""coveredImage test"" style = ""width:100px; height:100px; position:fixed; top:10%;    transform: translate(-50%, -50%);left:48%""></img><img src=""media/stimuli/inanimate_002_right.png"" class=""coveredImage test"" style = ""width:100px; height:100px;position:fixed; top:25%;        transform: translate(-50%, -50%);left:38%""></img><img src=""media/stimuli/inanimate_003_left.png"" class=""coveredImage test"" style = ""width:100px; height:100px;position:fixed; top:25%;        transform: translate(-50%, -50%);left:58%""></img><img src=""media/f.png""style = ""width:30px x; height:30px;position:fixed; top:43%;    transform: translate(-50%, -50%);left:40%""></img><img src=""media/j.png""style = ""width:30px; height:30px;position:fixed; top:43%;    transform: translate(-50%, -50%);left:60%""></img>","media/stimuli/inanimate_002_left.png","inanimate","left","single","media/stimuli/inanimate_002_right.png","inanimate","right","single","media/stimuli/inanimate_003_left.png","inanimate","left","single","pose_identity"
"","","","","","html-keyboard-response","29","77584","0.0-29.0","SS1678233203995","5a6b4cd2d5d4cb0001d64740","6406d7f26dd5b7fc1e3377bd","6407ce6cf4c0c80d9bf19b5c","1440","796","","691","","j","","","","","","","<img src=""media/stimuli/animate_008_right.png"" class=""coveredImage test"" style = ""width:100px; height:100px; position:fixed; top:10%;    transform: translate(-50%, -50%);left:48%""></img><img src=""media/stimuli/inanimate_002_right.png"" class=""coveredImage test"" style = ""width:100px; height:100px;position:fixed; top:25%;        transform: translate(-50%, -50%);left:38%""></img><img src=""media/stimuli/animate_008_right.png"" class=""coveredImage test"" style = ""width:100px; height:100px;position:fixed; top:25%;        transform: translate(-50%, -50%);left:54.5%""></img><img src=""media/stimuli/animate_008_right.png"" class=""coveredImage test"" style = ""width:100px; height:100px;position:fixed; top:25%;        transform: translate(-50%, -50%);left:61.5%""></img><img src=""media/f.png""style = ""width:30px x; height:30px;position:fixed; top:43%;    transform: translate(-50%, -50%);left:40%""></img><img src=""media/j.png""style = ""width:30px; height:30px;position:fixed; top:43%;    transform: translate(-50%, -50%);left:60%""></img>","media/stimuli/animate_008_right.png","animate","right","single","media/stimuli/inanimate_002_right.png","inanimate","right","single","media/stimuli/animate_008_right.png","animate","right","pair","animacy_number"
"","","","","","html-keyboard-response","30","78355","0.0-30.0","SS1678233203995","5a6b4cd2d5d4cb0001d64740","6406d7f26dd5b7fc1e3377bd","6407ce6cf4c0c80d9bf19b5c","1440","796","","768","","f","","","","","","","<img src=""media/stimuli/inanimate_002_right.png"" class=""coveredImage test"" style = ""width:100px; height:100px; position:fixed; top:10%;    transform: translate(-50%, -50%);left:44.5%""></img><img src=""media/stimuli/inanimate_002_right.png"" class=""coveredImage test"" style = ""width:100px; height:100px; position:fixed; top:10%;    transform: translate(-50%, -50%);left:51.5%""></img><img src=""media/stimuli/inanimate_002_right.png"" class=""coveredImage test"" style = ""width:100px; height:100px;position:fixed; top:25%;        transform: translate(-50%, -50%);left:38%""></img><img src=""media/stimuli/inanimate_012_right.png"" class=""coveredImage test"" style = ""width:100px; height:100px;position:fixed; top:25%;        transform: translate(-50%, -50%);left:54.5%""></img><img src=""media/stimuli/inanimate_012_right.png"" class=""coveredImage test"" style = ""width:100px; height:100px;position:fixed; top:25%;        transform: translate(-50%, -50%);left:61.5%""></img><img src=""media/f.png""style = ""width:30px x; height:30px;position:fixed; top:43%;    transform: translate(-50%, -50%);left:40%""></img><img src=""media/j.png""style = ""width:30px; height:30px;position:fixed; top:43%;    transform: translate(-50%, -50%);left:60%""></img>","media/stimuli/inanimate_002_right.png","inanimate","right","pair","media/stimuli/inanimate_002_right.png","inanimate","right","single","media/stimuli/inanimate_012_right.png","inanimate","right","pair","number_identity"
"","","","","","html-keyboard-response","31","79514","0.0-31.0","SS1678233203995","5a6b4cd2d5d4cb0001d64740","6406d7f26dd5b7fc1e3377bd","6407ce6cf4c0c80d9bf19b5c","1440","796","","1156","","f","","","","","","","<img src=""media/stimuli/inanimate_011_right.png"" class=""coveredImage test"" style = ""width:100px; height:100px; position:fixed; top:10%;    transform: translate(-50%, -50%);left:48%""></img><img src=""media/stimuli/inanimate_009_right.png"" class=""coveredImage test"" style = ""width:100px; height:100px;position:fixed; top:25%;        transform: translate(-50%, -50%);left:38%""></img><img src=""media/stimuli/animate_012_right.png"" class=""coveredImage test"" style = ""width:100px; height:100px;position:fixed; top:25%;        transform: translate(-50%, -50%);left:58%""></img><img src=""media/f.png""style = ""width:30px x; height:30px;position:fixed; top:43%;    transform: translate(-50%, -50%);left:40%""></img><img src=""media/j.png""style = ""width:30px; height:30px;position:fixed; top:43%;    transform: translate(-50%, -50%);left:60%""></img>","media/stimuli/inanimate_011_right.png","inanimate","right","single","media/stimuli/inanimate_009_right.png","inanimate","right","single","media/stimuli/animate_012_right.png","animate","right","single","identity_animacy"
"","","","","","html-keyboard-response","32","80175","0.0-32.0","SS1678233203995","5a6b4cd2d5d4cb0001d64740","6406d7f26dd5b7fc1e3377bd","6407ce6cf4c0c80d9bf19b5c","1440","796","","657","","j","","","","","","","<img src=""media/stimuli/inanimate_011_left.png"" class=""coveredImage test"" style = ""width:100px; height:100px; position:fixed; top:10%;    transform: translate(-50%, -50%);left:44.5%""></img><img src=""media/stimuli/inanimate_011_left.png"" class=""coveredImage test"" style = ""width:100px; height:100px; position:fixed; top:10%;    transform: translate(-50%, -50%);left:51.5%""></img><img src=""media/stimuli/animate_007_left.png"" class=""coveredImage test"" style = ""width:100px; height:100px;position:fixed; top:25%;        transform: translate(-50%, -50%);left:34.5%""></img><img src=""media/stimuli/animate_007_left.png"" class=""coveredImage test"" style = ""width:100px; height:100px;position:fixed; top:25%;        transform: translate(-50%, -50%);left:41.5%""></img><img src=""media/stimuli/inanimate_011_right.png"" class=""coveredImage test"" style = ""width:100px; height:100px;position:fixed; top:25%;        transform: translate(-50%, -50%);left:54.5%""></img><img src=""media/stimuli/inanimate_011_right.png"" class=""coveredImage test"" style = ""width:100px; height:100px;position:fixed; top:25%;        transform: translate(-50%, -50%);left:61.5%""></img><img src=""media/f.png""style = ""width:30px x; height:30px;position:fixed; top:43%;    transform: translate(-50%, -50%);left:40%""></img><img src=""media/j.png""style = ""width:30px; height:30px;position:fixed; top:43%;    transform: translate(-50%, -50%);left:60%""></img>","media/stimuli/inanimate_011_left.png","inanimate","left","pair","media/stimuli/animate_007_left.png","animate","left","pair","media/stimuli/inanimate_011_right.png","inanimate","right","pair","animacy_pose"
"","","","","","html-keyboard-response","33","81476","0.0-33.0","SS1678233203995","5a6b4cd2d5d4cb0001d64740","6406d7f26dd5b7fc1e3377bd","6407ce6cf4c0c80d9bf19b5c","1440","796","","1298",""," ","","","","","","","","","","","","","","","","","","","",""
"","","","","","html-keyboard-response","34","83918","0.0-34.0","SS1678233203995","5a6b4cd2d5d4cb0001d64740","6406d7f26dd5b7fc1e3377bd","6407ce6cf4c0c80d9bf19b5c","1440","796","","2439","","f","","","","","","","<img src=""media/stimuli/inanimate_006_left.png"" class=""coveredImage test"" style = ""width:100px; height:100px; position:fixed; top:10%;    transform: translate(-50%, -50%);left:48%""></img><img src=""media/stimuli/inanimate_006_right.png"" class=""coveredImage test"" style = ""width:100px; height:100px;position:fixed; top:25%;        transform: translate(-50%, -50%);left:38%""></img><img src=""media/stimuli/inanimate_006_left.png"" class=""coveredImage test"" style = ""width:100px; height:100px;position:fixed; top:25%;        transform: translate(-50%, -50%);left:54.5%""></img><img src=""media/stimuli/inanimate_006_left.png"" class=""coveredImage test"" style = ""width:100px; height:100px;position:fixed; top:25%;        transform: translate(-50%, -50%);left:61.5%""></img><img src=""media/f.png""style = ""width:30px x; height:30px;position:fixed; top:43%;    transform: translate(-50%, -50%);left:40%""></img><img src=""media/j.png""style = ""width:30px; height:30px;position:fixed; top:43%;    transform: translate(-50%, -50%);left:60%""></img>","media/stimuli/inanimate_006_left.png","inanimate","left","single","media/stimuli/inanimate_006_right.png","inanimate","right","single","media/stimuli/inanimate_006_left.png","inanimate","left","pair","pose_number"
"","","","","","html-keyboard-response","35","84617","0.0-35.0","SS1678233203995","5a6b4cd2d5d4cb0001d64740","6406d7f26dd5b7fc1e3377bd","6407ce6cf4c0c80d9bf19b5c","1440","796","","696","","f","","","","","","","<img src=""media/stimuli/animate_004_left.png"" class=""coveredImage test"" style = ""width:100px; height:100px; position:fixed; top:10%;    transform: translate(-50%, -50%);left:48%""></img><img src=""media/stimuli/animate_004_left.png"" class=""coveredImage test"" style = ""width:100px; height:100px;position:fixed; top:25%;        transform: translate(-50%, -50%);left:34.5%""></img><img src=""media/stimuli/animate_004_left.png"" class=""coveredImage test"" style = ""width:100px; height:100px;position:fixed; top:25%;        transform: translate(-50%, -50%);left:41.5%""></img><img src=""media/stimuli/inanimate_003_left.png"" class=""coveredImage test"" style = ""width:100px; height:100px;position:fixed; top:25%;        transform: translate(-50%, -50%);left:58%""></img><img src=""media/f.png""style = ""width:30px x; height:30px;position:fixed; top:43%;    transform: translate(-50%, -50%);left:40%""></img><img src=""media/j.png""style = ""width:30px; height:30px;position:fixed; top:43%;    transform: translate(-50%, -50%);left:60%""></img>","media/stimuli/animate_004_left.png","animate","left","single","media/stimuli/animate_004_left.png","animate","left","pair","media/stimuli/inanimate_003_left.png","inanimate","left","single","number_animacy"
"","","","","","html-keyboard-response","36","85569","0.0-36.0","SS1678233203995","5a6b4cd2d5d4cb0001d64740","6406d7f26dd5b7fc1e3377bd","6407ce6cf4c0c80d9bf19b5c","1440","796","","948","","f","","","","","","","<img src=""media/stimuli/animate_002_right.png"" class=""coveredImage test"" style = ""width:100px; height:100px; position:fixed; top:10%;    transform: translate(-50%, -50%);left:48%""></img><img src=""media/stimuli/animate_012_right.png"" class=""coveredImage test"" style = ""width:100px; height:100px;position:fixed; top:25%;        transform: translate(-50%, -50%);left:38%""></img><img src=""media/stimuli/inanimate_007_right.png"" class=""coveredImage test"" style = ""width:100px; height:100px;position:fixed; top:25%;        transform: translate(-50%, -50%);left:58%""></img><img src=""media/f.png""style = ""width:30px x; height:30px;position:fixed; top:43%;    transform: translate(-50%, -50%);left:40%""></img><img src=""media/j.png""style = ""width:30px; height:30px;position:fixed; top:43%;    transform: translate(-50%, -50%);left:60%""></img>","media/stimuli/animate_002_right.png","animate","right","single","media/stimuli/animate_012_right.png","animate","right","single","media/stimuli/inanimate_007_right.png","inanimate","right","single","identity_animacy"
"","","","","","html-keyboard-response","37","86120","0.0-37.0","SS1678233203995","5a6b4cd2d5d4cb0001d64740","6406d7f26dd5b7fc1e3377bd","6407ce6cf4c0c80d9bf19b5c","1440","796","","547","","j","","","","","","","<img src=""media/stimuli/inanimate_005_left.png"" class=""coveredImage test"" style = ""width:100px; height:100px; position:fixed; top:10%;    transform: translate(-50%, -50%);left:48%""></img><img src=""media/stimuli/inanimate_009_left.png"" class=""coveredImage test"" style = ""width:100px; height:100px;position:fixed; top:25%;        transform: translate(-50%, -50%);left:38%""></img><img src=""media/stimuli/inanimate_005_left.png"" class=""coveredImage test"" style = ""width:100px; height:100px;position:fixed; top:25%;        transform: translate(-50%, -50%);left:54.5%""></img><img src=""media/stimuli/inanimate_005_left.png"" class=""coveredImage test"" style = ""width:100px; height:100px;position:fixed; top:25%;        transform: translate(-50%, -50%);left:61.5%""></img><img src=""media/f.png""style = ""width:30px x; height:30px;position:fixed; top:43%;    transform: translate(-50%, -50%);left:40%""></img><img src=""media/j.png""style = ""width:30px; height:30px;position:fixed; top:43%;    transform: translate(-50%, -50%);left:60%""></img>","media/stimuli/inanimate_005_left.png","inanimate","left","single","media/stimuli/inanimate_009_left.png","inanimate","left","single","media/stimuli/inanimate_005_left.png","inanimate","left","pair","identity_number"
"","","","","","html-keyboard-response","38","86783","0.0-38.0","SS1678233203995","5a6b4cd2d5d4cb0001d64740","6406d7f26dd5b7fc1e3377bd","6407ce6cf4c0c80d9bf19b5c","1440","796","","661","","f","","","","","","","<img src=""media/stimuli/inanimate_002_right.png"" class=""coveredImage test"" style = ""width:100px; height:100px; position:fixed; top:10%;    transform: translate(-50%, -50%);left:44.5%""></img><img src=""media/stimuli/inanimate_002_right.png"" class=""coveredImage test"" style = ""width:100px; height:100px; position:fixed; top:10%;    transform: translate(-50%, -50%);left:51.5%""></img><img src=""media/stimuli/inanimate_002_right.png"" class=""coveredImage test"" style = ""width:100px; height:100px;position:fixed; top:25%;        transform: translate(-50%, -50%);left:38%""></img><img src=""media/stimuli/animate_002_right.png"" class=""coveredImage test"" style = ""width:100px; height:100px;position:fixed; top:25%;        transform: translate(-50%, -50%);left:54.5%""></img><img src=""media/stimuli/animate_002_right.png"" class=""coveredImage test"" style = ""width:100px; height:100px;position:fixed; top:25%;        transform: translate(-50%, -50%);left:61.5%""></img><img src=""media/f.png""style = ""width:30px x; height:30px;position:fixed; top:43%;    transform: translate(-50%, -50%);left:40%""></img><img src=""media/j.png""style = ""width:30px; height:30px;position:fixed; top:43%;    transform: translate(-50%, -50%);left:60%""></img>","media/stimuli/inanimate_002_right.png","inanimate","right","pair","media/stimuli/inanimate_002_right.png","inanimate","right","single","media/stimuli/animate_002_right.png","animate","right","pair","number_animacy"
"","","","","","html-keyboard-response","39","87398","0.0-39.0","SS1678233203995","5a6b4cd2d5d4cb0001d64740","6406d7f26dd5b7fc1e3377bd","6407ce6cf4c0c80d9bf19b5c","1440","796","","612","","j","","","","","","","<img src=""media/stimuli/inanimate_010_right.png"" class=""coveredImage test"" style = ""width:100px; height:100px; position:fixed; top:10%;    transform: translate(-50%, -50%);left:48%""></img><img src=""media/stimuli/animate_002_left.png"" class=""coveredImage test"" style = ""width:100px; height:100px;position:fixed; top:25%;        transform: translate(-50%, -50%);left:38%""></img><img src=""media/stimuli/inanimate_010_right.png"" class=""coveredImage test"" style = ""width:100px; height:100px;position:fixed; top:25%;        transform: translate(-50%, -50%);left:58%""></img><img src=""media/f.png""style = ""width:30px x; height:30px;position:fixed; top:43%;    transform: translate(-50%, -50%);left:40%""></img><img src=""media/j.png""style = ""width:30px; height:30px;position:fixed; top:43%;    transform: translate(-50%, -50%);left:60%""></img>","media/stimuli/inanimate_010_right.png","inanimate","right","single","media/stimuli/animate_002_left.png","animate","left","single","media/stimuli/inanimate_010_right.png","inanimate","right","single","animacy_pose"
"","","","","","html-keyboard-response","40","88187","0.0-40.0","SS1678233203995","5a6b4cd2d5d4cb0001d64740","6406d7f26dd5b7fc1e3377bd","6407ce6cf4c0c80d9bf19b5c","1440","796","","785","","j","","","","","","","<img src=""media/stimuli/inanimate_002_right.png"" class=""coveredImage test"" style = ""width:100px; height:100px; position:fixed; top:10%;    transform: translate(-50%, -50%);left:44.5%""></img><img src=""media/stimuli/inanimate_002_right.png"" class=""coveredImage test"" style = ""width:100px; height:100px; position:fixed; top:10%;    transform: translate(-50%, -50%);left:51.5%""></img><img src=""media/stimuli/inanimate_003_right.png"" class=""coveredImage test"" style = ""width:100px; height:100px;position:fixed; top:25%;        transform: translate(-50%, -50%);left:34.5%""></img><img src=""media/stimuli/inanimate_003_right.png"" class=""coveredImage test"" style = ""width:100px; height:100px;position:fixed; top:25%;        transform: translate(-50%, -50%);left:41.5%""></img><img src=""media/stimuli/inanimate_002_right.png"" class=""coveredImage test"" style = ""width:100px; height:100px;position:fixed; top:25%;        transform: translate(-50%, -50%);left:58%""></img><img src=""media/f.png""style = ""width:30px x; height:30px;position:fixed; top:43%;    transform: translate(-50%, -50%);left:40%""></img><img src=""media/j.png""style = ""width:30px; height:30px;position:fixed; top:43%;    transform: translate(-50%, -50%);left:60%""></img>","media/stimuli/inanimate_002_right.png","inanimate","right","pair","media/stimuli/inanimate_003_right.png","inanimate","right","pair","media/stimuli/inanimate_002_right.png","inanimate","right","single","identity_number"
"","","","","","html-keyboard-response","41","89062","0.0-41.0","SS1678233203995","5a6b4cd2d5d4cb0001d64740","6406d7f26dd5b7fc1e3377bd","6407ce6cf4c0c80d9bf19b5c","1440","796","","870","","f","","","","","","","<img src=""media/stimuli/animate_004_right.png"" class=""coveredImage test"" style = ""width:100px; height:100px; position:fixed; top:10%;    transform: translate(-50%, -50%);left:44.5%""></img><img src=""media/stimuli/animate_004_right.png"" class=""coveredImage test"" style = ""width:100px; height:100px; position:fixed; top:10%;    transform: translate(-50%, -50%);left:51.5%""></img><img src=""media/stimuli/animate_010_right.png"" class=""coveredImage test"" style = ""width:100px; height:100px;position:fixed; top:25%;        transform: translate(-50%, -50%);left:34.5%""></img><img src=""media/stimuli/animate_010_right.png"" class=""coveredImage test"" style = ""width:100px; height:100px;position:fixed; top:25%;        transform: translate(-50%, -50%);left:41.5%""></img><img src=""media/stimuli/inanimate_008_right.png"" class=""coveredImage test"" style = ""width:100px; height:100px;position:fixed; top:25%;        transform: translate(-50%, -50%);left:54.5%""></img><img src=""media/stimuli/inanimate_008_right.png"" class=""coveredImage test"" style = ""width:100px; height:100px;position:fixed; top:25%;        transform: translate(-50%, -50%);left:61.5%""></img><img src=""media/f.png""style = ""width:30px x; height:30px;position:fixed; top:43%;    transform: translate(-50%, -50%);left:40%""></img><img src=""media/j.png""style = ""width:30px; height:30px;position:fixed; top:43%;    transform: translate(-50%, -50%);left:60%""></img>","media/stimuli/animate_004_right.png","animate","right","pair","media/stimuli/animate_010_right.png","animate","right","pair","media/stimuli/inanimate_008_right.png","inanimate","right","pair","identity_animacy"
"","","","","","html-keyboard-response","42","90283","0.0-42.0","SS1678233203995","5a6b4cd2d5d4cb0001d64740","6406d7f26dd5b7fc1e3377bd","6407ce6cf4c0c80d9bf19b5c","1440","796","","1217","","j","","","","","","","<img src=""media/stimuli/inanimate_010_right.png"" class=""coveredImage test"" style = ""width:100px; height:100px; position:fixed; top:10%;    transform: translate(-50%, -50%);left:44.5%""></img><img src=""media/stimuli/inanimate_010_right.png"" class=""coveredImage test"" style = ""width:100px; height:100px; position:fixed; top:10%;    transform: translate(-50%, -50%);left:51.5%""></img><img src=""media/stimuli/inanimate_010_right.png"" class=""coveredImage test"" style = ""width:100px; height:100px;position:fixed; top:25%;        transform: translate(-50%, -50%);left:38%""></img><img src=""media/stimuli/inanimate_010_left.png"" class=""coveredImage test"" style = ""width:100px; height:100px;position:fixed; top:25%;        transform: translate(-50%, -50%);left:54.5%""></img><img src=""media/stimuli/inanimate_010_left.png"" class=""coveredImage test"" style = ""width:100px; height:100px;position:fixed; top:25%;        transform: translate(-50%, -50%);left:61.5%""></img><img src=""media/f.png""style = ""width:30px x; height:30px;position:fixed; top:43%;    transform: translate(-50%, -50%);left:40%""></img><img src=""media/j.png""style = ""width:30px; height:30px;position:fixed; top:43%;    transform: translate(-50%, -50%);left:60%""></img>","media/stimuli/inanimate_010_right.png","inanimate","right","pair","media/stimuli/inanimate_010_right.png","inanimate","right","single","media/stimuli/inanimate_010_left.png","inanimate","left","pair","number_pose"
"","","","","","html-keyboard-response","43","91005","0.0-43.0","SS1678233203995","5a6b4cd2d5d4cb0001d64740","6406d7f26dd5b7fc1e3377bd","6407ce6cf4c0c80d9bf19b5c","1440","796","","718","","f","","","","","","","<img src=""media/stimuli/animate_011_right.png"" class=""coveredImage test"" style = ""width:100px; height:100px; position:fixed; top:10%;    transform: translate(-50%, -50%);left:48%""></img><img src=""media/stimuli/animate_011_right.png"" class=""coveredImage test"" style = ""width:100px; height:100px;position:fixed; top:25%;        transform: translate(-50%, -50%);left:38%""></img><img src=""media/stimuli/inanimate_004_left.png"" class=""coveredImage test"" style = ""width:100px; height:100px;position:fixed; top:25%;        transform: translate(-50%, -50%);left:58%""></img><img src=""media/f.png""style = ""width:30px x; height:30px;position:fixed; top:43%;    transform: translate(-50%, -50%);left:40%""></img><img src=""media/j.png""style = ""width:30px; height:30px;position:fixed; top:43%;    transform: translate(-50%, -50%);left:60%""></img>","media/stimuli/animate_011_right.png","animate","right","single","media/stimuli/animate_011_right.png","animate","right","single","media/stimuli/inanimate_004_left.png","inanimate","left","single","pose_animacy"
"","","","","","html-keyboard-response","44","92167","0.0-44.0","SS1678233203995","5a6b4cd2d5d4cb0001d64740","6406d7f26dd5b7fc1e3377bd","6407ce6cf4c0c80d9bf19b5c","1440","796","","1159","","f","","","","","","","<img src=""media/stimuli/inanimate_003_left.png"" class=""coveredImage test"" style = ""width:100px; height:100px; position:fixed; top:10%;    transform: translate(-50%, -50%);left:44.5%""></img><img src=""media/stimuli/inanimate_003_left.png"" class=""coveredImage test"" style = ""width:100px; height:100px; position:fixed; top:10%;    transform: translate(-50%, -50%);left:51.5%""></img><img src=""media/stimuli/inanimate_006_left.png"" class=""coveredImage test"" style = ""width:100px; height:100px;position:fixed; top:25%;        transform: translate(-50%, -50%);left:34.5%""></img><img src=""media/stimuli/inanimate_006_left.png"" class=""coveredImage test"" style = ""width:100px; height:100px;position:fixed; top:25%;        transform: translate(-50%, -50%);left:41.5%""></img><img src=""media/stimuli/animate_012_left.png"" class=""coveredImage test"" style = ""width:100px; height:100px;position:fixed; top:25%;        transform: translate(-50%, -50%);left:54.5%""></img><img src=""media/stimuli/animate_012_left.png"" class=""coveredImage test"" style = ""width:100px; height:100px;position:fixed; top:25%;        transform: translate(-50%, -50%);left:61.5%""></img><img src=""media/f.png""style = ""width:30px x; height:30px;position:fixed; top:43%;    transform: translate(-50%, -50%);left:40%""></img><img src=""media/j.png""style = ""width:30px; height:30px;position:fixed; top:43%;    transform: translate(-50%, -50%);left:60%""></img>","media/stimuli/inanimate_003_left.png","inanimate","left","pair","media/stimuli/inanimate_006_left.png","inanimate","left","pair","media/stimuli/animate_012_left.png","animate","left","pair","identity_animacy"
"","","","","","html-keyboard-response","45","92865","0.0-45.0","SS1678233203995","5a6b4cd2d5d4cb0001d64740","6406d7f26dd5b7fc1e3377bd","6407ce6cf4c0c80d9bf19b5c","1440","796","","693","","j","","","","","","","<img src=""media/stimuli/animate_006_right.png"" class=""coveredImage test"" style = ""width:100px; height:100px; position:fixed; top:10%;    transform: translate(-50%, -50%);left:48%""></img><img src=""media/stimuli/animate_012_right.png"" class=""coveredImage test"" style = ""width:100px; height:100px;position:fixed; top:25%;        transform: translate(-50%, -50%);left:38%""></img><img src=""media/stimuli/animate_006_left.png"" class=""coveredImage test"" style = ""width:100px; height:100px;position:fixed; top:25%;        transform: translate(-50%, -50%);left:58%""></img><img src=""media/f.png""style = ""width:30px x; height:30px;position:fixed; top:43%;    transform: translate(-50%, -50%);left:40%""></img><img src=""media/j.png""style = ""width:30px; height:30px;position:fixed; top:43%;    transform: translate(-50%, -50%);left:60%""></img>","media/stimuli/animate_006_right.png","animate","right","single","media/stimuli/animate_012_right.png","animate","right","single","media/stimuli/animate_006_left.png","animate","left","single","identity_pose"
"","","","","","html-keyboard-response","46","93912","0.0-46.0","SS1678233203995","5a6b4cd2d5d4cb0001d64740","6406d7f26dd5b7fc1e3377bd","6407ce6cf4c0c80d9bf19b5c","1440","796","","1044",""," ","","","","","","","","","","","","","","","","","","","",""
"","","","","","html-keyboard-response","47","94872","0.0-47.0","SS1678233203995","5a6b4cd2d5d4cb0001d64740","6406d7f26dd5b7fc1e3377bd","6407ce6cf4c0c80d9bf19b5c","1440","796","","955","","j","","","","","","","<img src=""media/stimuli/inanimate_002_left.png"" class=""coveredImage test"" style = ""width:100px; height:100px; position:fixed; top:10%;    transform: translate(-50%, -50%);left:48%""></img><img src=""media/stimuli/animate_006_left.png"" class=""coveredImage test"" style = ""width:100px; height:100px;position:fixed; top:25%;        transform: translate(-50%, -50%);left:38%""></img><img src=""media/stimuli/inanimate_005_left.png"" class=""coveredImage test"" style = ""width:100px; height:100px;position:fixed; top:25%;        transform: translate(-50%, -50%);left:58%""></img><img src=""media/f.png""style = ""width:30px x; height:30px;position:fixed; top:43%;    transform: translate(-50%, -50%);left:40%""></img><img src=""media/j.png""style = ""width:30px; height:30px;position:fixed; top:43%;    transform: translate(-50%, -50%);left:60%""></img>","media/stimuli/inanimate_002_left.png","inanimate","left","single","media/stimuli/animate_006_left.png","animate","left","single","media/stimuli/inanimate_005_left.png","inanimate","left","single","animacy_identity"
"","","","","","html-keyboard-response","48","95511","0.0-48.0","SS1678233203995","5a6b4cd2d5d4cb0001d64740","6406d7f26dd5b7fc1e3377bd","6407ce6cf4c0c80d9bf19b5c","1440","796","","633","","f","","","","","","","<img src=""media/stimuli/animate_005_left.png"" class=""coveredImage test"" style = ""width:100px; height:100px; position:fixed; top:10%;    transform: translate(-50%, -50%);left:44.5%""></img><img src=""media/stimuli/animate_005_left.png"" class=""coveredImage test"" style = ""width:100px; height:100px; position:fixed; top:10%;    transform: translate(-50%, -50%);left:51.5%""></img><img src=""media/stimuli/animate_005_left.png"" class=""coveredImage test"" style = ""width:100px; height:100px;position:fixed; top:25%;        transform: translate(-50%, -50%);left:34.5%""></img><img src=""media/stimuli/animate_005_left.png"" class=""coveredImage test"" style = ""width:100px; height:100px;position:fixed; top:25%;        transform: translate(-50%, -50%);left:41.5%""></img><img src=""media/stimuli/inanimate_009_right.png"" class=""coveredImage test"" style = ""width:100px; height:100px;position:fixed; top:25%;        transform: translate(-50%, -50%);left:54.5%""></img><img src=""media/stimuli/inanimate_009_right.png"" class=""coveredImage test"" style = ""width:100px; height:100px;position:fixed; top:25%;        transform: translate(-50%, -50%);left:61.5%""></img><img src=""media/f.png""style = ""width:30px x; height:30px;position:fixed; top:43%;    transform: translate(-50%, -50%);left:40%""></img><img src=""media/j.png""style = ""width:30px; height:30px;position:fixed; top:43%;    transform: translate(-50%, -50%);left:60%""></img>","media/stimuli/animate_005_left.png","animate","left","pair","media/stimuli/animate_005_left.png","animate","left","pair","media/stimuli/inanimate_009_right.png","inanimate","right","pair","pose_animacy"
"","","","","","html-keyboard-response","49","96106","0.0-49.0","SS1678233203995","5a6b4cd2d5d4cb0001d64740","6406d7f26dd5b7fc1e3377bd","6407ce6cf4c0c80d9bf19b5c","1440","796","","591","","j","","","","","","","<img src=""media/stimuli/animate_004_left.png"" class=""coveredImage test"" style = ""width:100px; height:100px; position:fixed; top:10%;    transform: translate(-50%, -50%);left:48%""></img><img src=""media/stimuli/inanimate_006_left.png"" class=""coveredImage test"" style = ""width:100px; height:100px;position:fixed; top:25%;        transform: translate(-50%, -50%);left:38%""></img><img src=""media/stimuli/animate_004_left.png"" class=""coveredImage test"" style = ""width:100px; height:100px;position:fixed; top:25%;        transform: translate(-50%, -50%);left:54.5%""></img><img src=""media/stimuli/animate_004_left.png"" class=""coveredImage test"" style = ""width:100px; height:100px;position:fixed; top:25%;        transform: translate(-50%, -50%);left:61.5%""></img><img src=""media/f.png""style = ""width:30px x; height:30px;position:fixed; top:43%;    transform: translate(-50%, -50%);left:40%""></img><img src=""media/j.png""style = ""width:30px; height:30px;position:fixed; top:43%;    transform: translate(-50%, -50%);left:60%""></img>","media/stimuli/animate_004_left.png","animate","left","single","media/stimuli/inanimate_006_left.png","inanimate","left","single","media/stimuli/animate_004_left.png","animate","left","pair","animacy_number"
"","","","","","html-keyboard-response","50","96659","0.0-50.0","SS1678233203995","5a6b4cd2d5d4cb0001d64740","6406d7f26dd5b7fc1e3377bd","6407ce6cf4c0c80d9bf19b5c","1440","796","","547","","f","","","","","","","<img src=""media/stimuli/animate_003_right.png"" class=""coveredImage test"" style = ""width:100px; height:100px; position:fixed; top:10%;    transform: translate(-50%, -50%);left:44.5%""></img><img src=""media/stimuli/animate_003_right.png"" class=""coveredImage test"" style = ""width:100px; height:100px; position:fixed; top:10%;    transform: translate(-50%, -50%);left:51.5%""></img><img src=""media/stimuli/animate_003_right.png"" class=""coveredImage test"" style = ""width:100px; height:100px;position:fixed; top:25%;        transform: translate(-50%, -50%);left:38%""></img><img src=""media/stimuli/inanimate_010_right.png"" class=""coveredImage test"" style = ""width:100px; height:100px;position:fixed; top:25%;        transform: translate(-50%, -50%);left:54.5%""></img><img src=""media/stimuli/inanimate_010_right.png"" class=""coveredImage test"" style = ""width:100px; height:100px;position:fixed; top:25%;        transform: translate(-50%, -50%);left:61.5%""></img><img src=""media/f.png""style = ""width:30px x; height:30px;position:fixed; top:43%;    transform: translate(-50%, -50%);left:40%""></img><img src=""media/j.png""style = ""width:30px; height:30px;position:fixed; top:43%;    transform: translate(-50%, -50%);left:60%""></img>","media/stimuli/animate_003_right.png","animate","right","pair","media/stimuli/animate_003_right.png","animate","right","single","media/stimuli/inanimate_010_right.png","inanimate","right","pair","number_animacy"
"","","","","","html-keyboard-response","51","97298","0.0-51.0","SS1678233203995","5a6b4cd2d5d4cb0001d64740","6406d7f26dd5b7fc1e3377bd","6407ce6cf4c0c80d9bf19b5c","1440","796","","634","","j","","","","","","","<img src=""media/stimuli/inanimate_008_left.png"" class=""coveredImage test"" style = ""width:100px; height:100px; position:fixed; top:10%;    transform: translate(-50%, -50%);left:48%""></img><img src=""media/stimuli/animate_011_left.png"" class=""coveredImage test"" style = ""width:100px; height:100px;position:fixed; top:25%;        transform: translate(-50%, -50%);left:38%""></img><img src=""media/stimuli/inanimate_008_left.png"" class=""coveredImage test"" style = ""width:100px; height:100px;position:fixed; top:25%;        transform: translate(-50%, -50%);left:54.5%""></img><img src=""media/stimuli/inanimate_008_left.png"" class=""coveredImage test"" style = ""width:100px; height:100px;position:fixed; top:25%;        transform: translate(-50%, -50%);left:61.5%""></img><img src=""media/f.png""style = ""width:30px x; height:30px;position:fixed; top:43%;    transform: translate(-50%, -50%);left:40%""></img><img src=""media/j.png""style = ""width:30px; height:30px;position:fixed; top:43%;    transform: translate(-50%, -50%);left:60%""></img>","media/stimuli/inanimate_008_left.png","inanimate","left","single","media/stimuli/animate_011_left.png","animate","left","single","media/stimuli/inanimate_008_left.png","inanimate","left","pair","animacy_number"
"","","","","","html-keyboard-response","52","97977","0.0-52.0","SS1678233203995","5a6b4cd2d5d4cb0001d64740","6406d7f26dd5b7fc1e3377bd","6407ce6cf4c0c80d9bf19b5c","1440","796","","674","","j","","","","","","","<img src=""media/stimuli/animate_005_left.png"" class=""coveredImage test"" style = ""width:100px; height:100px; position:fixed; top:10%;    transform: translate(-50%, -50%);left:44.5%""></img><img src=""media/stimuli/animate_005_left.png"" class=""coveredImage test"" style = ""width:100px; height:100px; position:fixed; top:10%;    transform: translate(-50%, -50%);left:51.5%""></img><img src=""media/stimuli/inanimate_001_right.png"" class=""coveredImage test"" style = ""width:100px; height:100px;position:fixed; top:25%;        transform: translate(-50%, -50%);left:34.5%""></img><img src=""media/stimuli/inanimate_001_right.png"" class=""coveredImage test"" style = ""width:100px; height:100px;position:fixed; top:25%;        transform: translate(-50%, -50%);left:41.5%""></img><img src=""media/stimuli/animate_005_left.png"" class=""coveredImage test"" style = ""width:100px; height:100px;position:fixed; top:25%;        transform: translate(-50%, -50%);left:54.5%""></img><img src=""media/stimuli/animate_005_left.png"" class=""coveredImage test"" style = ""width:100px; height:100px;position:fixed; top:25%;        transform: translate(-50%, -50%);left:61.5%""></img><img src=""media/f.png""style = ""width:30px x; height:30px;position:fixed; top:43%;    transform: translate(-50%, -50%);left:40%""></img><img src=""media/j.png""style = ""width:30px; height:30px;position:fixed; top:43%;    transform: translate(-50%, -50%);left:60%""></img>","media/stimuli/animate_005_left.png","animate","left","pair","media/stimuli/inanimate_001_right.png","inanimate","right","pair","media/stimuli/animate_005_left.png","animate","left","pair","animacy_pose"
"","","","","","html-keyboard-response","53","99216","0.0-53.0","SS1678233203995","5a6b4cd2d5d4cb0001d64740","6406d7f26dd5b7fc1e3377bd","6407ce6cf4c0c80d9bf19b5c","1440","796","","1234","","j","","","","","","","<img src=""media/stimuli/animate_005_left.png"" class=""coveredImage test"" style = ""width:100px; height:100px; position:fixed; top:10%;    transform: translate(-50%, -50%);left:44.5%""></img><img src=""media/stimuli/animate_005_left.png"" class=""coveredImage test"" style = ""width:100px; height:100px; position:fixed; top:10%;    transform: translate(-50%, -50%);left:51.5%""></img><img src=""media/stimuli/inanimate_009_left.png"" class=""coveredImage test"" style = ""width:100px; height:100px;position:fixed; top:25%;        transform: translate(-50%, -50%);left:34.5%""></img><img src=""media/stimuli/inanimate_009_left.png"" class=""coveredImage test"" style = ""width:100px; height:100px;position:fixed; top:25%;        transform: translate(-50%, -50%);left:41.5%""></img><img src=""media/stimuli/animate_012_left.png"" class=""coveredImage test"" style = ""width:100px; height:100px;position:fixed; top:25%;        transform: translate(-50%, -50%);left:54.5%""></img><img src=""media/stimuli/animate_012_left.png"" class=""coveredImage test"" style = ""width:100px; height:100px;position:fixed; top:25%;        transform: translate(-50%, -50%);left:61.5%""></img><img src=""media/f.png""style = ""width:30px x; height:30px;position:fixed; top:43%;    transform: translate(-50%, -50%);left:40%""></img><img src=""media/j.png""style = ""width:30px; height:30px;position:fixed; top:43%;    transform: translate(-50%, -50%);left:60%""></img>","media/stimuli/animate_005_left.png","animate","left","pair","media/stimuli/inanimate_009_left.png","inanimate","left","pair","media/stimuli/animate_012_left.png","animate","left","pair","animacy_identity"
"","","","","","html-keyboard-response","54","100294","0.0-54.0","SS1678233203995","5a6b4cd2d5d4cb0001d64740","6406d7f26dd5b7fc1e3377bd","6407ce6cf4c0c80d9bf19b5c","1440","796","","1074","","j","","","","","","","<img src=""media/stimuli/animate_003_left.png"" class=""coveredImage test"" style = ""width:100px; height:100px; position:fixed; top:10%;    transform: translate(-50%, -50%);left:44.5%""></img><img src=""media/stimuli/animate_003_left.png"" class=""coveredImage test"" style = ""width:100px; height:100px; position:fixed; top:10%;    transform: translate(-50%, -50%);left:51.5%""></img><img src=""media/stimuli/animate_003_left.png"" class=""coveredImage test"" style = ""width:100px; height:100px;position:fixed; top:25%;        transform: translate(-50%, -50%);left:38%""></img><img src=""media/stimuli/animate_003_right.png"" class=""coveredImage test"" style = ""width:100px; height:100px;position:fixed; top:25%;        transform: translate(-50%, -50%);left:54.5%""></img><img src=""media/stimuli/animate_003_right.png"" class=""coveredImage test"" style = ""width:100px; height:100px;position:fixed; top:25%;        transform: translate(-50%, -50%);left:61.5%""></img><img src=""media/f.png""style = ""width:30px x; height:30px;position:fixed; top:43%;    transform: translate(-50%, -50%);left:40%""></img><img src=""media/j.png""style = ""width:30px; height:30px;position:fixed; top:43%;    transform: translate(-50%, -50%);left:60%""></img>","media/stimuli/animate_003_left.png","animate","left","pair","media/stimuli/animate_003_left.png","animate","left","single","media/stimuli/animate_003_right.png","animate","right","pair","number_pose"
"","","","","","html-keyboard-response","55","100987","0.0-55.0","SS1678233203995","5a6b4cd2d5d4cb0001d64740","6406d7f26dd5b7fc1e3377bd","6407ce6cf4c0c80d9bf19b5c","1440","796","","687","","j","","","","","","","<img src=""media/stimuli/inanimate_008_right.png"" class=""coveredImage test"" style = ""width:100px; height:100px; position:fixed; top:10%;    transform: translate(-50%, -50%);left:44.5%""></img><img src=""media/stimuli/inanimate_008_right.png"" class=""coveredImage test"" style = ""width:100px; height:100px; position:fixed; top:10%;    transform: translate(-50%, -50%);left:51.5%""></img><img src=""media/stimuli/inanimate_009_right.png"" class=""coveredImage test"" style = ""width:100px; height:100px;position:fixed; top:25%;        transform: translate(-50%, -50%);left:34.5%""></img><img src=""media/stimuli/inanimate_009_right.png"" class=""coveredImage test"" style = ""width:100px; height:100px;position:fixed; top:25%;        transform: translate(-50%, -50%);left:41.5%""></img><img src=""media/stimuli/inanimate_008_left.png"" class=""coveredImage test"" style = ""width:100px; height:100px;position:fixed; top:25%;        transform: translate(-50%, -50%);left:54.5%""></img><img src=""media/stimuli/inanimate_008_left.png"" class=""coveredImage test"" style = ""width:100px; height:100px;position:fixed; top:25%;        transform: translate(-50%, -50%);left:61.5%""></img><img src=""media/f.png""style = ""width:30px x; height:30px;position:fixed; top:43%;    transform: translate(-50%, -50%);left:40%""></img><img src=""media/j.png""style = ""width:30px; height:30px;position:fixed; top:43%;    transform: translate(-50%, -50%);left:60%""></img>","media/stimuli/inanimate_008_right.png","inanimate","right","pair","media/stimuli/inanimate_009_right.png","inanimate","right","pair","media/stimuli/inanimate_008_left.png","inanimate","left","pair","identity_pose"
"","","","","","html-keyboard-response","56","101559","0.0-56.0","SS1678233203995","5a6b4cd2d5d4cb0001d64740","6406d7f26dd5b7fc1e3377bd","6407ce6cf4c0c80d9bf19b5c","1440","796","","568","","f","","","","","","","<img src=""media/stimuli/inanimate_004_left.png"" class=""coveredImage test"" style = ""width:100px; height:100px; position:fixed; top:10%;    transform: translate(-50%, -50%);left:44.5%""></img><img src=""media/stimuli/inanimate_004_left.png"" class=""coveredImage test"" style = ""width:100px; height:100px; position:fixed; top:10%;    transform: translate(-50%, -50%);left:51.5%""></img><img src=""media/stimuli/inanimate_004_left.png"" class=""coveredImage test"" style = ""width:100px; height:100px;position:fixed; top:25%;        transform: translate(-50%, -50%);left:38%""></img><img src=""media/stimuli/animate_009_left.png"" class=""coveredImage test"" style = ""width:100px; height:100px;position:fixed; top:25%;        transform: translate(-50%, -50%);left:54.5%""></img><img src=""media/stimuli/animate_009_left.png"" class=""coveredImage test"" style = ""width:100px; height:100px;position:fixed; top:25%;        transform: translate(-50%, -50%);left:61.5%""></img><img src=""media/f.png""style = ""width:30px x; height:30px;position:fixed; top:43%;    transform: translate(-50%, -50%);left:40%""></img><img src=""media/j.png""style = ""width:30px; height:30px;position:fixed; top:43%;    transform: translate(-50%, -50%);left:60%""></img>","media/stimuli/inanimate_004_left.png","inanimate","left","pair","media/stimuli/inanimate_004_left.png","inanimate","left","single","media/stimuli/animate_009_left.png","animate","left","pair","number_animacy"
"","","","","","html-keyboard-response","57","102340","0.0-57.0","SS1678233203995","5a6b4cd2d5d4cb0001d64740","6406d7f26dd5b7fc1e3377bd","6407ce6cf4c0c80d9bf19b5c","1440","796","","776","","j","","","","","","","<img src=""media/stimuli/inanimate_006_right.png"" class=""coveredImage test"" style = ""width:100px; height:100px; position:fixed; top:10%;    transform: translate(-50%, -50%);left:48%""></img><img src=""media/stimuli/inanimate_010_right.png"" class=""coveredImage test"" style = ""width:100px; height:100px;position:fixed; top:25%;        transform: translate(-50%, -50%);left:38%""></img><img src=""media/stimuli/inanimate_006_left.png"" class=""coveredImage test"" style = ""width:100px; height:100px;position:fixed; top:25%;        transform: translate(-50%, -50%);left:58%""></img><img src=""media/f.png""style = ""width:30px x; height:30px;position:fixed; top:43%;    transform: translate(-50%, -50%);left:40%""></img><img src=""media/j.png""style = ""width:30px; height:30px;position:fixed; top:43%;    transform: translate(-50%, -50%);left:60%""></img>","media/stimuli/inanimate_006_right.png","inanimate","right","single","media/stimuli/inanimate_010_right.png","inanimate","right","single","media/stimuli/inanimate_006_left.png","inanimate","left","single","identity_pose"
"","","","","","html-keyboard-response","58","103232","0.0-58.0","SS1678233203995","5a6b4cd2d5d4cb0001d64740","6406d7f26dd5b7fc1e3377bd","6407ce6cf4c0c80d9bf19b5c","1440","796","","887","","j","","","","","","","<img src=""media/stimuli/animate_006_right.png"" class=""coveredImage test"" style = ""width:100px; height:100px; position:fixed; top:10%;    transform: translate(-50%, -50%);left:48%""></img><img src=""media/stimuli/animate_008_right.png"" class=""coveredImage test"" style = ""width:100px; height:100px;position:fixed; top:25%;        transform: translate(-50%, -50%);left:38%""></img><img src=""media/stimuli/animate_006_left.png"" class=""coveredImage test"" style = ""width:100px; height:100px;position:fixed; top:25%;        transform: translate(-50%, -50%);left:58%""></img><img src=""media/f.png""style = ""width:30px x; height:30px;position:fixed; top:43%;    transform: translate(-50%, -50%);left:40%""></img><img src=""media/j.png""style = ""width:30px; height:30px;position:fixed; top:43%;    transform: translate(-50%, -50%);left:60%""></img>","media/stimuli/animate_006_right.png","animate","right","single","media/stimuli/animate_008_right.png","animate","right","single","media/stimuli/animate_006_left.png","animate","left","single","identity_pose"
"","","","","","html-keyboard-response","59","103964","0.0-59.0","SS1678233203995","5a6b4cd2d5d4cb0001d64740","6406d7f26dd5b7fc1e3377bd","6407ce6cf4c0c80d9bf19b5c","1440","796","","726","","j","","","","","","","<img src=""media/stimuli/inanimate_003_left.png"" class=""coveredImage test"" style = ""width:100px; height:100px; position:fixed; top:10%;    transform: translate(-50%, -50%);left:44.5%""></img><img src=""media/stimuli/inanimate_003_left.png"" class=""coveredImage test"" style = ""width:100px; height:100px; position:fixed; top:10%;    transform: translate(-50%, -50%);left:51.5%""></img><img src=""media/stimuli/inanimate_003_left.png"" class=""coveredImage test"" style = ""width:100px; height:100px;position:fixed; top:25%;        transform: translate(-50%, -50%);left:38%""></img><img src=""media/stimuli/inanimate_003_right.png"" class=""coveredImage test"" style = ""width:100px; height:100px;position:fixed; top:25%;        transform: translate(-50%, -50%);left:54.5%""></img><img src=""media/stimuli/inanimate_003_right.png"" class=""coveredImage test"" style = ""width:100px; height:100px;position:fixed; top:25%;        transform: translate(-50%, -50%);left:61.5%""></img><img src=""media/f.png""style = ""width:30px x; height:30px;position:fixed; top:43%;    transform: translate(-50%, -50%);left:40%""></img><img src=""media/j.png""style = ""width:30px; height:30px;position:fixed; top:43%;    transform: translate(-50%, -50%);left:60%""></img>","media/stimuli/inanimate_003_left.png","inanimate","left","pair","media/stimuli/inanimate_003_left.png","inanimate","left","single","media/stimuli/inanimate_003_right.png","inanimate","right","pair","number_pose"
"","","","","","html-keyboard-response","60","104700","0.0-60.0","SS1678233203995","5a6b4cd2d5d4cb0001d64740","6406d7f26dd5b7fc1e3377bd","6407ce6cf4c0c80d9bf19b5c","1440","796","","733","","j","","","","","","","<img src=""media/stimuli/inanimate_003_right.png"" class=""coveredImage test"" style = ""width:100px; height:100px; position:fixed; top:10%;    transform: translate(-50%, -50%);left:44.5%""></img><img src=""media/stimuli/inanimate_003_right.png"" class=""coveredImage test"" style = ""width:100px; height:100px; position:fixed; top:10%;    transform: translate(-50%, -50%);left:51.5%""></img><img src=""media/stimuli/inanimate_001_right.png"" class=""coveredImage test"" style = ""width:100px; height:100px;position:fixed; top:25%;        transform: translate(-50%, -50%);left:34.5%""></img><img src=""media/stimuli/inanimate_001_right.png"" class=""coveredImage test"" style = ""width:100px; height:100px;position:fixed; top:25%;        transform: translate(-50%, -50%);left:41.5%""></img><img src=""media/stimuli/inanimate_003_left.png"" class=""coveredImage test"" style = ""width:100px; height:100px;position:fixed; top:25%;        transform: translate(-50%, -50%);left:54.5%""></img><img src=""media/stimuli/inanimate_003_left.png"" class=""coveredImage test"" style = ""width:100px; height:100px;position:fixed; top:25%;        transform: translate(-50%, -50%);left:61.5%""></img><img src=""media/f.png""style = ""width:30px x; height:30px;position:fixed; top:43%;    transform: translate(-50%, -50%);left:40%""></img><img src=""media/j.png""style = ""width:30px; height:30px;position:fixed; top:43%;    transform: translate(-50%, -50%);left:60%""></img>","media/stimuli/inanimate_003_right.png","inanimate","right","pair","media/stimuli/inanimate_001_right.png","inanimate","right","pair","media/stimuli/inanimate_003_left.png","inanimate","left","pair","identity_pose"
"","","","","","html-keyboard-response","61","105385","0.0-61.0","SS1678233203995","5a6b4cd2d5d4cb0001d64740","6406d7f26dd5b7fc1e3377bd","6407ce6cf4c0c80d9bf19b5c","1440","796","","681","","f","","","","","","","<img src=""media/stimuli/animate_008_right.png"" class=""coveredImage test"" style = ""width:100px; height:100px; position:fixed; top:10%;    transform: translate(-50%, -50%);left:48%""></img><img src=""media/stimuli/animate_008_left.png"" class=""coveredImage test"" style = ""width:100px; height:100px;position:fixed; top:25%;        transform: translate(-50%, -50%);left:38%""></img><img src=""media/stimuli/inanimate_003_right.png"" class=""coveredImage test"" style = ""width:100px; height:100px;position:fixed; top:25%;        transform: translate(-50%, -50%);left:58%""></img><img src=""media/f.png""style = ""width:30px x; height:30px;position:fixed; top:43%;    transform: translate(-50%, -50%);left:40%""></img><img src=""media/j.png""style = ""width:30px; height:30px;position:fixed; top:43%;    transform: translate(-50%, -50%);left:60%""></img>","media/stimuli/animate_008_right.png","animate","right","single","media/stimuli/animate_008_left.png","animate","left","single","media/stimuli/inanimate_003_right.png","inanimate","right","single","pose_animacy"
"","","","","","html-keyboard-response","62","106436","0.0-62.0","SS1678233203995","5a6b4cd2d5d4cb0001d64740","6406d7f26dd5b7fc1e3377bd","6407ce6cf4c0c80d9bf19b5c","1440","796","","1044","","j","","","","","","","<img src=""media/stimuli/animate_009_left.png"" class=""coveredImage test"" style = ""width:100px; height:100px; position:fixed; top:10%;    transform: translate(-50%, -50%);left:48%""></img><img src=""media/stimuli/inanimate_005_left.png"" class=""coveredImage test"" style = ""width:100px; height:100px;position:fixed; top:25%;        transform: translate(-50%, -50%);left:38%""></img><img src=""media/stimuli/animate_006_left.png"" class=""coveredImage test"" style = ""width:100px; height:100px;position:fixed; top:25%;        transform: translate(-50%, -50%);left:58%""></img><img src=""media/f.png""style = ""width:30px x; height:30px;position:fixed; top:43%;    transform: translate(-50%, -50%);left:40%""></img><img src=""media/j.png""style = ""width:30px; height:30px;position:fixed; top:43%;    transform: translate(-50%, -50%);left:60%""></img>","media/stimuli/animate_009_left.png","animate","left","single","media/stimuli/inanimate_005_left.png","inanimate","left","single","media/stimuli/animate_006_left.png","animate","left","single","animacy_identity"
"","","","","","html-keyboard-response","63","107074","0.0-63.0","SS1678233203995","5a6b4cd2d5d4cb0001d64740","6406d7f26dd5b7fc1e3377bd","6407ce6cf4c0c80d9bf19b5c","1440","796","","633",""," ","","","","","","","","","","","","","","","","","","","",""
"","","","","","html-keyboard-response","64","107717","0.0-64.0","SS1678233203995","5a6b4cd2d5d4cb0001d64740","6406d7f26dd5b7fc1e3377bd","6407ce6cf4c0c80d9bf19b5c","1440","796","","636","","f","","","","","","","<img src=""media/stimuli/inanimate_008_left.png"" class=""coveredImage test"" style = ""width:100px; height:100px; position:fixed; top:10%;    transform: translate(-50%, -50%);left:44.5%""></img><img src=""media/stimuli/inanimate_008_left.png"" class=""coveredImage test"" style = ""width:100px; height:100px; position:fixed; top:10%;    transform: translate(-50%, -50%);left:51.5%""></img><img src=""media/stimuli/inanimate_008_left.png"" class=""coveredImage test"" style = ""width:100px; height:100px;position:fixed; top:25%;        transform: translate(-50%, -50%);left:38%""></img><img src=""media/stimuli/inanimate_009_left.png"" class=""coveredImage test"" style = ""width:100px; height:100px;position:fixed; top:25%;        transform: translate(-50%, -50%);left:54.5%""></img><img src=""media/stimuli/inanimate_009_left.png"" class=""coveredImage test"" style = ""width:100px; height:100px;position:fixed; top:25%;        transform: translate(-50%, -50%);left:61.5%""></img><img src=""media/f.png""style = ""width:30px x; height:30px;position:fixed; top:43%;    transform: translate(-50%, -50%);left:40%""></img><img src=""media/j.png""style = ""width:30px; height:30px;position:fixed; top:43%;    transform: translate(-50%, -50%);left:60%""></img>","media/stimuli/inanimate_008_left.png","inanimate","left","pair","media/stimuli/inanimate_008_left.png","inanimate","left","single","media/stimuli/inanimate_009_left.png","inanimate","left","pair","number_identity"
"","","","","","html-keyboard-response","65","108401","0.0-65.0","SS1678233203995","5a6b4cd2d5d4cb0001d64740","6406d7f26dd5b7fc1e3377bd","6407ce6cf4c0c80d9bf19b5c","1440","796","","680","","j","","","","","","","<img src=""media/stimuli/inanimate_001_left.png"" class=""coveredImage test"" style = ""width:100px; height:100px; position:fixed; top:10%;    transform: translate(-50%, -50%);left:48%""></img><img src=""media/stimuli/animate_011_left.png"" class=""coveredImage test"" style = ""width:100px; height:100px;position:fixed; top:25%;        transform: translate(-50%, -50%);left:38%""></img><img src=""media/stimuli/inanimate_001_right.png"" class=""coveredImage test"" style = ""width:100px; height:100px;position:fixed; top:25%;        transform: translate(-50%, -50%);left:58%""></img><img src=""media/f.png""style = ""width:30px x; height:30px;position:fixed; top:43%;    transform: translate(-50%, -50%);left:40%""></img><img src=""media/j.png""style = ""width:30px; height:30px;position:fixed; top:43%;    transform: translate(-50%, -50%);left:60%""></img>","media/stimuli/inanimate_001_left.png","inanimate","left","single","media/stimuli/animate_011_left.png","animate","left","single","media/stimuli/inanimate_001_right.png","inanimate","right","single","animacy_pose"
"","","","","","html-keyboard-response","66","109016","0.0-66.0","SS1678233203995","5a6b4cd2d5d4cb0001d64740","6406d7f26dd5b7fc1e3377bd","6407ce6cf4c0c80d9bf19b5c","1440","796","","611","","f","","","","","","","<img src=""media/stimuli/animate_001_left.png"" class=""coveredImage test"" style = ""width:100px; height:100px; position:fixed; top:10%;    transform: translate(-50%, -50%);left:48%""></img><img src=""media/stimuli/animate_001_right.png"" class=""coveredImage test"" style = ""width:100px; height:100px;position:fixed; top:25%;        transform: translate(-50%, -50%);left:38%""></img><img src=""media/stimuli/animate_010_left.png"" class=""coveredImage test"" style = ""width:100px; height:100px;position:fixed; top:25%;        transform: translate(-50%, -50%);left:58%""></img><img src=""media/f.png""style = ""width:30px x; height:30px;position:fixed; top:43%;    transform: translate(-50%, -50%);left:40%""></img><img src=""media/j.png""style = ""width:30px; height:30px;position:fixed; top:43%;    transform: translate(-50%, -50%);left:60%""></img>","media/stimuli/animate_001_left.png","animate","left","single","media/stimuli/animate_001_right.png","animate","right","single","media/stimuli/animate_010_left.png","animate","left","single","pose_identity"
"","","","","","html-keyboard-response","67","109603","0.0-67.0","SS1678233203995","5a6b4cd2d5d4cb0001d64740","6406d7f26dd5b7fc1e3377bd","6407ce6cf4c0c80d9bf19b5c","1440","796","","581","","j","","","","","","","<img src=""media/stimuli/animate_011_left.png"" class=""coveredImage test"" style = ""width:100px; height:100px; position:fixed; top:10%;    transform: translate(-50%, -50%);left:44.5%""></img><img src=""media/stimuli/animate_011_left.png"" class=""coveredImage test"" style = ""width:100px; height:100px; position:fixed; top:10%;    transform: translate(-50%, -50%);left:51.5%""></img><img src=""media/stimuli/animate_011_left.png"" class=""coveredImage test"" style = ""width:100px; height:100px;position:fixed; top:25%;        transform: translate(-50%, -50%);left:38%""></img><img src=""media/stimuli/animate_011_right.png"" class=""coveredImage test"" style = ""width:100px; height:100px;position:fixed; top:25%;        transform: translate(-50%, -50%);left:54.5%""></img><img src=""media/stimuli/animate_011_right.png"" class=""coveredImage test"" style = ""width:100px; height:100px;position:fixed; top:25%;        transform: translate(-50%, -50%);left:61.5%""></img><img src=""media/f.png""style = ""width:30px x; height:30px;position:fixed; top:43%;    transform: translate(-50%, -50%);left:40%""></img><img src=""media/j.png""style = ""width:30px; height:30px;position:fixed; top:43%;    transform: translate(-50%, -50%);left:60%""></img>","media/stimuli/animate_011_left.png","animate","left","pair","media/stimuli/animate_011_left.png","animate","left","single","media/stimuli/animate_011_right.png","animate","right","pair","number_pose"
"","","","","","html-keyboard-response","68","110187","0.0-68.0","SS1678233203995","5a6b4cd2d5d4cb0001d64740","6406d7f26dd5b7fc1e3377bd","6407ce6cf4c0c80d9bf19b5c","1440","796","","579","","f","","","","","","","<img src=""media/stimuli/animate_007_right.png"" class=""coveredImage test"" style = ""width:100px; height:100px; position:fixed; top:10%;    transform: translate(-50%, -50%);left:44.5%""></img><img src=""media/stimuli/animate_007_right.png"" class=""coveredImage test"" style = ""width:100px; height:100px; position:fixed; top:10%;    transform: translate(-50%, -50%);left:51.5%""></img><img src=""media/stimuli/animate_007_right.png"" class=""coveredImage test"" style = ""width:100px; height:100px;position:fixed; top:25%;        transform: translate(-50%, -50%);left:38%""></img><img src=""media/stimuli/inanimate_007_right.png"" class=""coveredImage test"" style = ""width:100px; height:100px;position:fixed; top:25%;        transform: translate(-50%, -50%);left:54.5%""></img><img src=""media/stimuli/inanimate_007_right.png"" class=""coveredImage test"" style = ""width:100px; height:100px;position:fixed; top:25%;        transform: translate(-50%, -50%);left:61.5%""></img><img src=""media/f.png""style = ""width:30px x; height:30px;position:fixed; top:43%;    transform: translate(-50%, -50%);left:40%""></img><img src=""media/j.png""style = ""width:30px; height:30px;position:fixed; top:43%;    transform: translate(-50%, -50%);left:60%""></img>","media/stimuli/animate_007_right.png","animate","right","pair","media/stimuli/animate_007_right.png","animate","right","single","media/stimuli/inanimate_007_right.png","inanimate","right","pair","number_animacy"
"","","","","","html-keyboard-response","69","110752","0.0-69.0","SS1678233203995","5a6b4cd2d5d4cb0001d64740","6406d7f26dd5b7fc1e3377bd","6407ce6cf4c0c80d9bf19b5c","1440","796","","559","","f","","","","","","","<img src=""media/stimuli/inanimate_009_right.png"" class=""coveredImage test"" style = ""width:100px; height:100px; position:fixed; top:10%;    transform: translate(-50%, -50%);left:48%""></img><img src=""media/stimuli/inanimate_009_right.png"" class=""coveredImage test"" style = ""width:100px; height:100px;position:fixed; top:25%;        transform: translate(-50%, -50%);left:34.5%""></img><img src=""media/stimuli/inanimate_009_right.png"" class=""coveredImage test"" style = ""width:100px; height:100px;position:fixed; top:25%;        transform: translate(-50%, -50%);left:41.5%""></img><img src=""media/stimuli/animate_012_right.png"" class=""coveredImage test"" style = ""width:100px; height:100px;position:fixed; top:25%;        transform: translate(-50%, -50%);left:58%""></img><img src=""media/f.png""style = ""width:30px x; height:30px;position:fixed; top:43%;    transform: translate(-50%, -50%);left:40%""></img><img src=""media/j.png""style = ""width:30px; height:30px;position:fixed; top:43%;    transform: translate(-50%, -50%);left:60%""></img>","media/stimuli/inanimate_009_right.png","inanimate","right","single","media/stimuli/inanimate_009_right.png","inanimate","right","pair","media/stimuli/animate_012_right.png","animate","right","single","number_animacy"
"","","","","","html-keyboard-response","70","111374","0.0-70.0","SS1678233203995","5a6b4cd2d5d4cb0001d64740","6406d7f26dd5b7fc1e3377bd","6407ce6cf4c0c80d9bf19b5c","1440","796","","617","","f","","","","","","","<img src=""media/stimuli/inanimate_009_right.png"" class=""coveredImage test"" style = ""width:100px; height:100px; position:fixed; top:10%;    transform: translate(-50%, -50%);left:44.5%""></img><img src=""media/stimuli/inanimate_009_right.png"" class=""coveredImage test"" style = ""width:100px; height:100px; position:fixed; top:10%;    transform: translate(-50%, -50%);left:51.5%""></img><img src=""media/stimuli/inanimate_009_left.png"" class=""coveredImage test"" style = ""width:100px; height:100px;position:fixed; top:25%;        transform: translate(-50%, -50%);left:34.5%""></img><img src=""media/stimuli/inanimate_009_left.png"" class=""coveredImage test"" style = ""width:100px; height:100px;position:fixed; top:25%;        transform: translate(-50%, -50%);left:41.5%""></img><img src=""media/stimuli/inanimate_002_right.png"" class=""coveredImage test"" style = ""width:100px; height:100px;position:fixed; top:25%;        transform: translate(-50%, -50%);left:54.5%""></img><img src=""media/stimuli/inanimate_002_right.png"" class=""coveredImage test"" style = ""width:100px; height:100px;position:fixed; top:25%;        transform: translate(-50%, -50%);left:61.5%""></img><img src=""media/f.png""style = ""width:30px x; height:30px;position:fixed; top:43%;    transform: translate(-50%, -50%);left:40%""></img><img src=""media/j.png""style = ""width:30px; height:30px;position:fixed; top:43%;    transform: translate(-50%, -50%);left:60%""></img>","media/stimuli/inanimate_009_right.png","inanimate","right","pair","media/stimuli/inanimate_009_left.png","inanimate","left","pair","media/stimuli/inanimate_002_right.png","inanimate","right","pair","pose_identity"
"","","","","","html-keyboard-response","71","112131","0.0-71.0","SS1678233203995","5a6b4cd2d5d4cb0001d64740","6406d7f26dd5b7fc1e3377bd","6407ce6cf4c0c80d9bf19b5c","1440","796","","750","","f","","","","","","","<img src=""media/stimuli/animate_012_right.png"" class=""coveredImage test"" style = ""width:100px; height:100px; position:fixed; top:10%;    transform: translate(-50%, -50%);left:44.5%""></img><img src=""media/stimuli/animate_012_right.png"" class=""coveredImage test"" style = ""width:100px; height:100px; position:fixed; top:10%;    transform: translate(-50%, -50%);left:51.5%""></img><img src=""media/stimuli/animate_012_right.png"" class=""coveredImage test"" style = ""width:100px; height:100px;position:fixed; top:25%;        transform: translate(-50%, -50%);left:38%""></img><img src=""media/stimuli/animate_007_right.png"" class=""coveredImage test"" style = ""width:100px; height:100px;position:fixed; top:25%;        transform: translate(-50%, -50%);left:54.5%""></img><img src=""media/stimuli/animate_007_right.png"" class=""coveredImage test"" style = ""width:100px; height:100px;position:fixed; top:25%;        transform: translate(-50%, -50%);left:61.5%""></img><img src=""media/f.png""style = ""width:30px x; height:30px;position:fixed; top:43%;    transform: translate(-50%, -50%);left:40%""></img><img src=""media/j.png""style = ""width:30px; height:30px;position:fixed; top:43%;    transform: translate(-50%, -50%);left:60%""></img>","media/stimuli/animate_012_right.png","animate","right","pair","media/stimuli/animate_012_right.png","animate","right","single","media/stimuli/animate_007_right.png","animate","right","pair","number_identity"
"","","","","","html-keyboard-response","72","112746","0.0-72.0","SS1678233203995","5a6b4cd2d5d4cb0001d64740","6406d7f26dd5b7fc1e3377bd","6407ce6cf4c0c80d9bf19b5c","1440","796","","610","","f","","","","","","","<img src=""media/stimuli/inanimate_008_left.png"" class=""coveredImage test"" style = ""width:100px; height:100px; position:fixed; top:10%;    transform: translate(-50%, -50%);left:44.5%""></img><img src=""media/stimuli/inanimate_008_left.png"" class=""coveredImage test"" style = ""width:100px; height:100px; position:fixed; top:10%;    transform: translate(-50%, -50%);left:51.5%""></img><img src=""media/stimuli/inanimate_008_left.png"" class=""coveredImage test"" style = ""width:100px; height:100px;position:fixed; top:25%;        transform: translate(-50%, -50%);left:38%""></img><img src=""media/stimuli/inanimate_006_left.png"" class=""coveredImage test"" style = ""width:100px; height:100px;position:fixed; top:25%;        transform: translate(-50%, -50%);left:54.5%""></img><img src=""media/stimuli/inanimate_006_left.png"" class=""coveredImage test"" style = ""width:100px; height:100px;position:fixed; top:25%;        transform: translate(-50%, -50%);left:61.5%""></img><img src=""media/f.png""style = ""width:30px x; height:30px;position:fixed; top:43%;    transform: translate(-50%, -50%);left:40%""></img><img src=""media/j.png""style = ""width:30px; height:30px;position:fixed; top:43%;    transform: translate(-50%, -50%);left:60%""></img>","media/stimuli/inanimate_008_left.png","inanimate","left","pair","media/stimuli/inanimate_008_left.png","inanimate","left","single","media/stimuli/inanimate_006_left.png","inanimate","left","pair","number_identity"
"","","","","","html-keyboard-response","73","113574","0.0-73.0","SS1678233203995","5a6b4cd2d5d4cb0001d64740","6406d7f26dd5b7fc1e3377bd","6407ce6cf4c0c80d9bf19b5c","1440","796","","821","","j","","","","","","","<img src=""media/stimuli/animate_006_right.png"" class=""coveredImage test"" style = ""width:100px; height:100px; position:fixed; top:10%;    transform: translate(-50%, -50%);left:48%""></img><img src=""media/stimuli/inanimate_007_right.png"" class=""coveredImage test"" style = ""width:100px; height:100px;position:fixed; top:25%;        transform: translate(-50%, -50%);left:38%""></img><img src=""media/stimuli/animate_001_right.png"" class=""coveredImage test"" style = ""width:100px; height:100px;position:fixed; top:25%;        transform: translate(-50%, -50%);left:58%""></img><img src=""media/f.png""style = ""width:30px x; height:30px;position:fixed; top:43%;    transform: translate(-50%, -50%);left:40%""></img><img src=""media/j.png""style = ""width:30px; height:30px;position:fixed; top:43%;    transform: translate(-50%, -50%);left:60%""></img>","media/stimuli/animate_006_right.png","animate","right","single","media/stimuli/inanimate_007_right.png","inanimate","right","single","media/stimuli/animate_001_right.png","animate","right","single","animacy_identity"
"","","","","","html-keyboard-response","74","114918","0.0-74.0","SS1678233203995","5a6b4cd2d5d4cb0001d64740","6406d7f26dd5b7fc1e3377bd","6407ce6cf4c0c80d9bf19b5c","1440","796","","1339","","f","","","","","","","<img src=""media/stimuli/inanimate_009_left.png"" class=""coveredImage test"" style = ""width:100px; height:100px; position:fixed; top:10%;    transform: translate(-50%, -50%);left:44.5%""></img><img src=""media/stimuli/inanimate_009_left.png"" class=""coveredImage test"" style = ""width:100px; height:100px; position:fixed; top:10%;    transform: translate(-50%, -50%);left:51.5%""></img><img src=""media/stimuli/inanimate_009_left.png"" class=""coveredImage test"" style = ""width:100px; height:100px;position:fixed; top:25%;        transform: translate(-50%, -50%);left:34.5%""></img><img src=""media/stimuli/inanimate_009_left.png"" class=""coveredImage test"" style = ""width:100px; height:100px;position:fixed; top:25%;        transform: translate(-50%, -50%);left:41.5%""></img><img src=""media/stimuli/inanimate_009_right.png"" class=""coveredImage test"" style = ""width:100px; height:100px;position:fixed; top:25%;        transform: translate(-50%, -50%);left:54.5%""></img><img src=""media/stimuli/inanimate_009_right.png"" class=""coveredImage test"" style = ""width:100px; height:100px;position:fixed; top:25%;        transform: translate(-50%, -50%);left:61.5%""></img><img src=""media/f.png""style = ""width:30px x; height:30px;position:fixed; top:43%;    transform: translate(-50%, -50%);left:40%""></img><img src=""media/j.png""style = ""width:30px; height:30px;position:fixed; top:43%;    transform: translate(-50%, -50%);left:60%""></img>","media/stimuli/inanimate_009_left.png","inanimate","left","pair","media/stimuli/inanimate_009_left.png","inanimate","left","pair","media/stimuli/inanimate_009_right.png","inanimate","right","pair","filler_pose"
"","","","","","html-keyboard-response","75","116683","0.0-75.0","SS1678233203995","5a6b4cd2d5d4cb0001d64740","6406d7f26dd5b7fc1e3377bd","6407ce6cf4c0c80d9bf19b5c","1440","796","","1760","","j","","","","","","","<img src=""media/stimuli/animate_012_left.png"" class=""coveredImage test"" style = ""width:100px; height:100px; position:fixed; top:10%;    transform: translate(-50%, -50%);left:48%""></img><img src=""media/stimuli/animate_012_right.png"" class=""coveredImage test"" style = ""width:100px; height:100px;position:fixed; top:25%;        transform: translate(-50%, -50%);left:38%""></img><img src=""media/stimuli/animate_012_left.png"" class=""coveredImage test"" style = ""width:100px; height:100px;position:fixed; top:25%;        transform: translate(-50%, -50%);left:54.5%""></img><img src=""media/stimuli/animate_012_left.png"" class=""coveredImage test"" style = ""width:100px; height:100px;position:fixed; top:25%;        transform: translate(-50%, -50%);left:61.5%""></img><img src=""media/f.png""style = ""width:30px x; height:30px;position:fixed; top:43%;    transform: translate(-50%, -50%);left:40%""></img><img src=""media/j.png""style = ""width:30px; height:30px;position:fixed; top:43%;    transform: translate(-50%, -50%);left:60%""></img>","media/stimuli/animate_012_left.png","animate","left","single","media/stimuli/animate_012_right.png","animate","right","single","media/stimuli/animate_012_left.png","animate","left","pair","pose_number"
"","","","","","html-keyboard-response","76","123158","0.0-76.0","SS1678233203995","5a6b4cd2d5d4cb0001d64740","6406d7f26dd5b7fc1e3377bd","6407ce6cf4c0c80d9bf19b5c","1440","796","","6471",""," ","","","","","","","","","","","","","","","","","","","",""
"","","","","","survey-likert","77","126375","0.0-77.0","SS1678233203995","5a6b4cd2d5d4cb0001d64740","6406d7f26dd5b7fc1e3377bd","6407ce6cf4c0c80d9bf19b5c","1440","796","","3211","","{""Q0"":3}","[0]","complexity","media/stimuli/animate_010_right.png","animate","pair","right","","","","","","","","","","","","","",""
"","","","","","survey-likert","78","129942","0.0-78.0","SS1678233203995","5a6b4cd2d5d4cb0001d64740","6406d7f26dd5b7fc1e3377bd","6407ce6cf4c0c80d9bf19b5c","1440","796","","3560","","{""Q0"":0}","[0]","complexity","media/stimuli/inanimate_012_left.png","inanimate","single","left","","","","","","","","","","","","","",""
"","","","","","survey-likert","79","131758","0.0-79.0","SS1678233203995","5a6b4cd2d5d4cb0001d64740","6406d7f26dd5b7fc1e3377bd","6407ce6cf4c0c80d9bf19b5c","1440","796","","1808","","{""Q0"":2}","[0]","complexity","media/stimuli/inanimate_008_left.png","inanimate","pair","left","","","","","","","","","","","","","",""
"","","","","","survey-likert","80","134042","0.0-80.0","SS1678233203995","5a6b4cd2d5d4cb0001d64740","6406d7f26dd5b7fc1e3377bd","6407ce6cf4c0c80d9bf19b5c","1440","796","","2276","","{""Q0"":4}","[0]","complexity","media/stimuli/animate_004_right.png","animate","pair","right","","","","","","","","","","","","","",""
"","","","","","survey-likert","81","136524","0.0-81.0","SS1678233203995","5a6b4cd2d5d4cb0001d64740","6406d7f26dd5b7fc1e3377bd","6407ce6cf4c0c80d9bf19b5c","1440","796","","2475","","{""Q0"":2}","[0]","complexity","media/stimuli/animate_007_right.png","animate","single","right","","","","","","","","","","","","","",""
"","","","","","survey-likert","82","140524","0.0-82.0","SS1678233203995","5a6b4cd2d5d4cb0001d64740","6406d7f26dd5b7fc1e3377bd","6407ce6cf4c0c80d9bf19b5c","1440","796","","3992","","{""Q0"":3}","[0]","complexity","media/stimuli/inanimate_010_left.png","inanimate","pair","left","","","","","","","","","","","","","",""
"","","","","","survey-likert","83","144158","0.0-83.0","SS1678233203995","5a6b4cd2d5d4cb0001d64740","6406d7f26dd5b7fc1e3377bd","6407ce6cf4c0c80d9bf19b5c","1440","796","","3626","","{""Q0"":1}","[0]","complexity","media/stimuli/inanimate_005_left.png","inanimate","pair","left","","","","","","","","","","","","","",""
"","","","","","survey-likert","84","146241","0.0-84.0","SS1678233203995","5a6b4cd2d5d4cb0001d64740","6406d7f26dd5b7fc1e3377bd","6407ce6cf4c0c80d9bf19b5c","1440","796","","2074","","{""Q0"":2}","[0]","complexity","media/stimuli/inanimate_012_left.png","inanimate","pair","left","","","","","","","","","","","","","",""
"","","","","","survey-likert","85","149774","0.0-85.0","SS1678233203995","5a6b4cd2d5d4cb0001d64740","6406d7f26dd5b7fc1e3377bd","6407ce6cf4c0c80d9bf19b5c","1440","796","","3525","","{""Q0"":2}","[0]","complexity","media/stimuli/animate_005_right.png","animate","single","right","","","","","","","","","","","","","",""
"","","","","","survey-likert","86","151907","0.0-86.0","SS1678233203995","5a6b4cd2d5d4cb0001d64740","6406d7f26dd5b7fc1e3377bd","6407ce6cf4c0c80d9bf19b5c","1440","796","","2122","","{""Q0"":2}","[0]","complexity","media/stimuli/inanimate_011_left.png","inanimate","single","left","","","","","","","","","","","","","",""
"","","","","","survey-likert","87","153691","0.0-87.0","SS1678233203995","5a6b4cd2d5d4cb0001d64740","6406d7f26dd5b7fc1e3377bd","6407ce6cf4c0c80d9bf19b5c","1440","796","","1774","","{""Q0"":3}","[0]","complexity","media/stimuli/animate_010_left.png","animate","single","left","","","","","","","","","","","","","",""
"","","","","","survey-likert","88","156357","0.0-88.0","SS1678233203995","5a6b4cd2d5d4cb0001d64740","6406d7f26dd5b7fc1e3377bd","6407ce6cf4c0c80d9bf19b5c","1440","796","","2656","","{""Q0"":4}","[0]","complexity","media/stimuli/animate_005_left.png","animate","pair","left","","","","","","","","","","","","","",""
"","","","","","html-keyboard-response","89","157196","0.0-89.0","SS1678233203995","5a6b4cd2d5d4cb0001d64740","6406d7f26dd5b7fc1e3377bd","6407ce6cf4c0c80d9bf19b5c","1440","796","","832",""," ","","","","","","","","","","","","","","","","","","","",""
"","","","","","html-keyboard-response","90","159607","0.0-90.0","SS1678233203995","5a6b4cd2d5d4cb0001d64740","6406d7f26dd5b7fc1e3377bd","6407ce6cf4c0c80d9bf19b5c","1440","796","","2404","","j","","","","","","","<img src=""media/stimuli/animate_002_left.png"" class=""coveredImage test"" style = ""width:100px; height:100px; position:fixed; top:10%;    transform: translate(-50%, -50%);left:48%""></img><img src=""media/stimuli/animate_002_left.png"" class=""coveredImage test"" style = ""width:100px; height:100px;position:fixed; top:25%;        transform: translate(-50%, -50%);left:34.5%""></img><img src=""media/stimuli/animate_002_left.png"" class=""coveredImage test"" style = ""width:100px; height:100px;position:fixed; top:25%;        transform: translate(-50%, -50%);left:41.5%""></img><img src=""media/stimuli/animate_002_right.png"" class=""coveredImage test"" style = ""width:100px; height:100px;position:fixed; top:25%;        transform: translate(-50%, -50%);left:58%""></img><img src=""media/f.png""style = ""width:30px x; height:30px;position:fixed; top:43%;    transform: translate(-50%, -50%);left:40%""></img><img src=""media/j.png""style = ""width:30px; height:30px;position:fixed; top:43%;    transform: translate(-50%, -50%);left:60%""></img>","media/stimuli/animate_002_left.png","animate","left","single","media/stimuli/animate_002_left.png","animate","left","pair","media/stimuli/animate_002_right.png","animate","right","single","number_pose"
"","","","","","html-keyboard-response","91","160295","0.0-91.0","SS1678233203995","5a6b4cd2d5d4cb0001d64740","6406d7f26dd5b7fc1e3377bd","6407ce6cf4c0c80d9bf19b5c","1440","796","","682","","f","","","","","","","<img src=""media/stimuli/animate_003_right.png"" class=""coveredImage test"" style = ""width:100px; height:100px; position:fixed; top:10%;    transform: translate(-50%, -50%);left:48%""></img><img src=""media/stimuli/animate_003_left.png"" class=""coveredImage test"" style = ""width:100px; height:100px;position:fixed; top:25%;        transform: translate(-50%, -50%);left:38%""></img><img src=""media/stimuli/animate_006_right.png"" class=""coveredImage test"" style = ""width:100px; height:100px;position:fixed; top:25%;        transform: translate(-50%, -50%);left:58%""></img><img src=""media/f.png""style = ""width:30px x; height:30px;position:fixed; top:43%;    transform: translate(-50%, -50%);left:40%""></img><img src=""media/j.png""style = ""width:30px; height:30px;position:fixed; top:43%;    transform: translate(-50%, -50%);left:60%""></img>","media/stimuli/animate_003_right.png","animate","right","single","media/stimuli/animate_003_left.png","animate","left","single","media/stimuli/animate_006_right.png","animate","right","single","pose_identity"
"","","","","","html-keyboard-response","92","160839","0.0-92.0","SS1678233203995","5a6b4cd2d5d4cb0001d64740","6406d7f26dd5b7fc1e3377bd","6407ce6cf4c0c80d9bf19b5c","1440","796","","539","","f","","","","","","","<img src=""media/stimuli/inanimate_006_right.png"" class=""coveredImage test"" style = ""width:100px; height:100px; position:fixed; top:10%;    transform: translate(-50%, -50%);left:48%""></img><img src=""media/stimuli/inanimate_006_left.png"" class=""coveredImage test"" style = ""width:100px; height:100px;position:fixed; top:25%;        transform: translate(-50%, -50%);left:38%""></img><img src=""media/stimuli/inanimate_012_right.png"" class=""coveredImage test"" style = ""width:100px; height:100px;position:fixed; top:25%;        transform: translate(-50%, -50%);left:58%""></img><img src=""media/f.png""style = ""width:30px x; height:30px;position:fixed; top:43%;    transform: translate(-50%, -50%);left:40%""></img><img src=""media/j.png""style = ""width:30px; height:30px;position:fixed; top:43%;    transform: translate(-50%, -50%);left:60%""></img>","media/stimuli/inanimate_006_right.png","inanimate","right","single","media/stimuli/inanimate_006_left.png","inanimate","left","single","media/stimuli/inanimate_012_right.png","inanimate","right","single","pose_identity"
"","","","","","html-keyboard-response","93","161583","0.0-93.0","SS1678233203995","5a6b4cd2d5d4cb0001d64740","6406d7f26dd5b7fc1e3377bd","6407ce6cf4c0c80d9bf19b5c","1440","796","","737","","f","","","","","","","<img src=""media/stimuli/inanimate_003_left.png"" class=""coveredImage test"" style = ""width:100px; height:100px; position:fixed; top:10%;    transform: translate(-50%, -50%);left:44.5%""></img><img src=""media/stimuli/inanimate_003_left.png"" class=""coveredImage test"" style = ""width:100px; height:100px; position:fixed; top:10%;    transform: translate(-50%, -50%);left:51.5%""></img><img src=""media/stimuli/inanimate_009_left.png"" class=""coveredImage test"" style = ""width:100px; height:100px;position:fixed; top:25%;        transform: translate(-50%, -50%);left:34.5%""></img><img src=""media/stimuli/inanimate_009_left.png"" class=""coveredImage test"" style = ""width:100px; height:100px;position:fixed; top:25%;        transform: translate(-50%, -50%);left:41.5%""></img><img src=""media/stimuli/animate_001_left.png"" class=""coveredImage test"" style = ""width:100px; height:100px;position:fixed; top:25%;        transform: translate(-50%, -50%);left:54.5%""></img><img src=""media/stimuli/animate_001_left.png"" class=""coveredImage test"" style = ""width:100px; height:100px;position:fixed; top:25%;        transform: translate(-50%, -50%);left:61.5%""></img><img src=""media/f.png""style = ""width:30px x; height:30px;position:fixed; top:43%;    transform: translate(-50%, -50%);left:40%""></img><img src=""media/j.png""style = ""width:30px; height:30px;position:fixed; top:43%;    transform: translate(-50%, -50%);left:60%""></img>","media/stimuli/inanimate_003_left.png","inanimate","left","pair","media/stimuli/inanimate_009_left.png","inanimate","left","pair","media/stimuli/animate_001_left.png","animate","left","pair","identity_animacy"
