"success","timeout","failed_images","failed_audio","failed_video","trial_type","trial_index","time_elapsed","internal_node_id","subject","prolific_id","study","session","window_width","window_height","view_history","rt","stimulus_type","response","question_order","rating_type","stimulus","target","target_animacy","target_pose","target_number","left","left_animacy","left_pose","left_number","right","right_animacy","right_pose","right_number","comparison_type","rating_stimulus","rating_animacy","rating_number","rating_pose"
"true","false","[]","[]","[]","preload","0","1596","0.0-0.0","SS1678233206766","5c3399d8cb218a000176c6c6","6406d7f26dd5b7fc1e3377bd","6407ce709f0755f289c4c72c","1920","937","","","","","","","","","","","","","","","","","","","","","","","",""
"","","","","","instructions","1","4953","0.0-1.0","SS1678233206766","5c3399d8cb218a000176c6c6","6406d7f26dd5b7fc1e3377bd","6407ce709f0755f289c4c72c","1920","937","[{""page_index"":0,""viewing_time"":3356}]","3356","","","","","","","","","","","","","","","","","","","","","",""
"","","","","","instructions","2","13403","0.0-2.0","SS1678233206766","5c3399d8cb218a000176c6c6","6406d7f26dd5b7fc1e3377bd","6407ce709f0755f289c4c72c","1920","937","[{""page_index"":0,""viewing_time"":6445}]","6446","instructions","","","","","","","","","","","","","","","","","","","","",""
"","","","","","instructions","3","21437","0.0-3.0","SS1678233206766","5c3399d8cb218a000176c6c6","6406d7f26dd5b7fc1e3377bd","6407ce709f0755f289c4c72c","1920","937","[{""page_index"":0,""viewing_time"":8033}]","8033","instructions","","","","","","","","","","","","","","","","","","","","",""
"","","","","","survey-likert","4","30262","0.0-4.0","SS1678233206766","5c3399d8cb218a000176c6c6","6406d7f26dd5b7fc1e3377bd","6407ce709f0755f289c4c72c","1920","937","","8822","","{""Q0"":1}","[0]","anchoring","","","","","","","","","","","","","","","","","",""
"","","","","","survey-likert","5","35755","0.0-5.0","SS1678233206766","5c3399d8cb218a000176c6c6","6406d7f26dd5b7fc1e3377bd","6407ce709f0755f289c4c72c","1920","937","","5489","","{""Q0"":1}","[0]","anchoring","","","","","","","","","","","","","","","","","",""
"","","","","","instructions","6","37566","0.0-6.0","SS1678233206766","5c3399d8cb218a000176c6c6","6406d7f26dd5b7fc1e3377bd","6407ce709f0755f289c4c72c","1920","937","[{""page_index"":0,""viewing_time"":1806}]","1807","instructions","","","","","","","","","","","","","","","","","","","","",""
"true","","","","","fullscreen","7","39648","0.0-7.0","SS1678233206766","5c3399d8cb218a000176c6c6","6406d7f26dd5b7fc1e3377bd","6407ce709f0755f289c4c72c","1920","937","","","","","","","","","","","","","","","","","","","","","","","",""
"","","","","","html-keyboard-response","8","44476","0.0-8.0","SS1678233206766","5c3399d8cb218a000176c6c6","6406d7f26dd5b7fc1e3377bd","6407ce709f0755f289c4c72c","1920","937","","4826","","f","","","<img src=""media/stimuli/animate_008_left.png"" class=""coveredImage test"" style = ""width:100px; height:100px; position:fixed; top:10%;    transform: translate(-50%, -50%);left:48%""></img><img src=""media/stimuli/animate_012_left.png"" class=""coveredImage test"" style = ""width:100px; height:100px;position:fixed; top:25%;        transform: translate(-50%, -50%);left:38%""></img><img src=""media/stimuli/inanimate_001_left.png"" class=""coveredImage test"" style = ""width:100px; height:100px;position:fixed; top:25%;        transform: translate(-50%, -50%);left:58%""></img><img src=""media/f.png""style = ""width:30px x; height:30px;position:fixed; top:43%;    transform: translate(-50%, -50%);left:40%""></img><img src=""media/j.png""style = ""width:30px; height:30px;position:fixed; top:43%;    transform: translate(-50%, -50%);left:60%""></img>","media/stimuli/animate_008_left.png","animate","left","single","media/stimuli/animate_012_left.png","animate","left","single","media/stimuli/inanimate_001_left.png","inanimate","left","single","identity_animacy","","","",""
"","","","","","html-keyboard-response","9","46668","0.0-9.0","SS1678233206766","5c3399d8cb218a000176c6c6","6406d7f26dd5b7fc1e3377bd","6407ce709f0755f289c4c72c","1920","937","","2190","","j","","","<img src=""media/stimuli/animate_003_right.png"" class=""coveredImage test"" style = ""width:100px; height:100px; position:fixed; top:10%;    transform: translate(-50%, -50%);left:48%""></img><img src=""media/stimuli/inanimate_003_right.png"" class=""coveredImage test"" style = ""width:100px; height:100px;position:fixed; top:25%;        transform: translate(-50%, -50%);left:38%""></img><img src=""media/stimuli/animate_003_right.png"" class=""coveredImage test"" style = ""width:100px; height:100px;position:fixed; top:25%;        transform: translate(-50%, -50%);left:54.5%""></img><img src=""media/stimuli/animate_003_right.png"" class=""coveredImage test"" style = ""width:100px; height:100px;position:fixed; top:25%;        transform: translate(-50%, -50%);left:61.5%""></img><img src=""media/f.png""style = ""width:30px x; height:30px;position:fixed; top:43%;    transform: translate(-50%, -50%);left:40%""></img><img src=""media/j.png""style = ""width:30px; height:30px;position:fixed; top:43%;    transform: translate(-50%, -50%);left:60%""></img>","media/stimuli/animate_003_right.png","animate","right","single","media/stimuli/inanimate_003_right.png","inanimate","right","single","media/stimuli/animate_003_right.png","animate","right","pair","animacy_number","","","",""
"","","","","","html-keyboard-response","10","48877","0.0-10.0","SS1678233206766","5c3399d8cb218a000176c6c6","6406d7f26dd5b7fc1e3377bd","6407ce709f0755f289c4c72c","1920","937","","2207","","j","","","<img src=""media/stimuli/inanimate_004_right.png"" class=""coveredImage test"" style = ""width:100px; height:100px; position:fixed; top:10%;    transform: translate(-50%, -50%);left:44.5%""></img><img src=""media/stimuli/inanimate_004_right.png"" class=""coveredImage test"" style = ""width:100px; height:100px; position:fixed; top:10%;    transform: translate(-50%, -50%);left:51.5%""></img><img src=""media/stimuli/inanimate_010_right.png"" class=""coveredImage test"" style = ""width:100px; height:100px;position:fixed; top:25%;        transform: translate(-50%, -50%);left:34.5%""></img><img src=""media/stimuli/inanimate_010_right.png"" class=""coveredImage test"" style = ""width:100px; height:100px;position:fixed; top:25%;        transform: translate(-50%, -50%);left:41.5%""></img><img src=""media/stimuli/inanimate_004_left.png"" class=""coveredImage test"" style = ""width:100px; height:100px;position:fixed; top:25%;        transform: translate(-50%, -50%);left:54.5%""></img><img src=""media/stimuli/inanimate_004_left.png"" class=""coveredImage test"" style = ""width:100px; height:100px;position:fixed; top:25%;        transform: translate(-50%, -50%);left:61.5%""></img><img src=""media/f.png""style = ""width:30px x; height:30px;position:fixed; top:43%;    transform: translate(-50%, -50%);left:40%""></img><img src=""media/j.png""style = ""width:30px; height:30px;position:fixed; top:43%;    transform: translate(-50%, -50%);left:60%""></img>","media/stimuli/inanimate_004_right.png","inanimate","right","pair","media/stimuli/inanimate_010_right.png","inanimate","right","pair","media/stimuli/inanimate_004_left.png","inanimate","left","pair","identity_pose","","","",""
"","","","","","html-keyboard-response","11","49996","0.0-11.0","SS1678233206766","5c3399d8cb218a000176c6c6","6406d7f26dd5b7fc1e3377bd","6407ce709f0755f289c4c72c","1920","937","","1118","","j","","","<img src=""media/stimuli/animate_002_right.png"" class=""coveredImage test"" style = ""width:100px; height:100px; position:fixed; top:10%;    transform: translate(-50%, -50%);left:48%""></img><img src=""media/stimuli/animate_011_right.png"" class=""coveredImage test"" style = ""width:100px; height:100px;position:fixed; top:25%;        transform: translate(-50%, -50%);left:38%""></img><img src=""media/stimuli/animate_002_right.png"" class=""coveredImage test"" style = ""width:100px; height:100px;position:fixed; top:25%;        transform: translate(-50%, -50%);left:54.5%""></img><img src=""media/stimuli/animate_002_right.png"" class=""coveredImage test"" style = ""width:100px; height:100px;position:fixed; top:25%;        transform: translate(-50%, -50%);left:61.5%""></img><img src=""media/f.png""style = ""width:30px x; height:30px;position:fixed; top:43%;    transform: translate(-50%, -50%);left:40%""></img><img src=""media/j.png""style = ""width:30px; height:30px;position:fixed; top:43%;    transform: translate(-50%, -50%);left:60%""></img>","media/stimuli/animate_002_right.png","animate","right","single","media/stimuli/animate_011_right.png","animate","right","single","media/stimuli/animate_002_right.png","animate","right","pair","identity_number","","","",""
"","","","","","html-keyboard-response","12","51044","0.0-12.0","SS1678233206766","5c3399d8cb218a000176c6c6","6406d7f26dd5b7fc1e3377bd","6407ce709f0755f289c4c72c","1920","937","","1046","","j","","","<img src=""media/stimuli/animate_008_left.png"" class=""coveredImage test"" style = ""width:100px; height:100px; position:fixed; top:10%;    transform: translate(-50%, -50%);left:44.5%""></img><img src=""media/stimuli/animate_008_left.png"" class=""coveredImage test"" style = ""width:100px; height:100px; position:fixed; top:10%;    transform: translate(-50%, -50%);left:51.5%""></img><img src=""media/stimuli/inanimate_004_left.png"" class=""coveredImage test"" style = ""width:100px; height:100px;position:fixed; top:25%;        transform: translate(-50%, -50%);left:38%""></img><img src=""media/stimuli/animate_008_right.png"" class=""coveredImage test"" style = ""width:100px; height:100px;position:fixed; top:25%;        transform: translate(-50%, -50%);left:58%""></img><img src=""media/f.png""style = ""width:30px x; height:30px;position:fixed; top:43%;    transform: translate(-50%, -50%);left:40%""></img><img src=""media/j.png""style = ""width:30px; height:30px;position:fixed; top:43%;    transform: translate(-50%, -50%);left:60%""></img>","media/stimuli/animate_008_left.png","animate","left","pair","media/stimuli/inanimate_004_left.png","inanimate","left","single","media/stimuli/animate_008_right.png","animate","right","single","animacy_pose","","","",""
"","","","","","html-keyboard-response","13","53748","0.0-13.0","SS1678233206766","5c3399d8cb218a000176c6c6","6406d7f26dd5b7fc1e3377bd","6407ce709f0755f289c4c72c","1920","937","","2702","","j","","","<img src=""media/stimuli/inanimate_007_right.png"" class=""coveredImage test"" style = ""width:100px; height:100px; position:fixed; top:10%;    transform: translate(-50%, -50%);left:48%""></img><img src=""media/stimuli/inanimate_003_right.png"" class=""coveredImage test"" style = ""width:100px; height:100px;position:fixed; top:25%;        transform: translate(-50%, -50%);left:38%""></img><img src=""media/stimuli/inanimate_007_right.png"" class=""coveredImage test"" style = ""width:100px; height:100px;position:fixed; top:25%;        transform: translate(-50%, -50%);left:54.5%""></img><img src=""media/stimuli/inanimate_007_right.png"" class=""coveredImage test"" style = ""width:100px; height:100px;position:fixed; top:25%;        transform: translate(-50%, -50%);left:61.5%""></img><img src=""media/f.png""style = ""width:30px x; height:30px;position:fixed; top:43%;    transform: translate(-50%, -50%);left:40%""></img><img src=""media/j.png""style = ""width:30px; height:30px;position:fixed; top:43%;    transform: translate(-50%, -50%);left:60%""></img>","media/stimuli/inanimate_007_right.png","inanimate","right","single","media/stimuli/inanimate_003_right.png","inanimate","right","single","media/stimuli/inanimate_007_right.png","inanimate","right","pair","identity_number","","","",""
"","","","","","html-keyboard-response","14","54908","0.0-14.0","SS1678233206766","5c3399d8cb218a000176c6c6","6406d7f26dd5b7fc1e3377bd","6407ce709f0755f289c4c72c","1920","937","","1158","","j","","","<img src=""media/stimuli/animate_012_right.png"" class=""coveredImage test"" style = ""width:100px; height:100px; position:fixed; top:10%;    transform: translate(-50%, -50%);left:48%""></img><img src=""media/stimuli/animate_003_right.png"" class=""coveredImage test"" style = ""width:100px; height:100px;position:fixed; top:25%;        transform: translate(-50%, -50%);left:38%""></img><img src=""media/stimuli/animate_012_right.png"" class=""coveredImage test"" style = ""width:100px; height:100px;position:fixed; top:25%;        transform: translate(-50%, -50%);left:58%""></img><img src=""media/f.png""style = ""width:30px x; height:30px;position:fixed; top:43%;    transform: translate(-50%, -50%);left:40%""></img><img src=""media/j.png""style = ""width:30px; height:30px;position:fixed; top:43%;    transform: translate(-50%, -50%);left:60%""></img>","media/stimuli/animate_012_right.png","animate","right","single","media/stimuli/animate_003_right.png","animate","right","single","media/stimuli/animate_012_right.png","animate","right","single","identity_filler","","","",""
"","","","","","html-keyboard-response","15","56840","0.0-15.0","SS1678233206766","5c3399d8cb218a000176c6c6","6406d7f26dd5b7fc1e3377bd","6407ce709f0755f289c4c72c","1920","937","","1930","","j","","","<img src=""media/stimuli/animate_006_right.png"" class=""coveredImage test"" style = ""width:100px; height:100px; position:fixed; top:10%;    transform: translate(-50%, -50%);left:48%""></img><img src=""media/stimuli/animate_006_left.png"" class=""coveredImage test"" style = ""width:100px; height:100px;position:fixed; top:25%;        transform: translate(-50%, -50%);left:38%""></img><img src=""media/stimuli/animate_006_right.png"" class=""coveredImage test"" style = ""width:100px; height:100px;position:fixed; top:25%;        transform: translate(-50%, -50%);left:54.5%""></img><img src=""media/stimuli/animate_006_right.png"" class=""coveredImage test"" style = ""width:100px; height:100px;position:fixed; top:25%;        transform: translate(-50%, -50%);left:61.5%""></img><img src=""media/f.png""style = ""width:30px x; height:30px;position:fixed; top:43%;    transform: translate(-50%, -50%);left:40%""></img><img src=""media/j.png""style = ""width:30px; height:30px;position:fixed; top:43%;    transform: translate(-50%, -50%);left:60%""></img>","media/stimuli/animate_006_right.png","animate","right","single","media/stimuli/animate_006_left.png","animate","left","single","media/stimuli/animate_006_right.png","animate","right","pair","pose_number","","","",""
"","","","","","html-keyboard-response","16","60457","0.0-16.0","SS1678233206766","5c3399d8cb218a000176c6c6","6406d7f26dd5b7fc1e3377bd","6407ce709f0755f289c4c72c","1920","937","","3615","","f","","","<img src=""media/stimuli/animate_005_left.png"" class=""coveredImage test"" style = ""width:100px; height:100px; position:fixed; top:10%;    transform: translate(-50%, -50%);left:48%""></img><img src=""media/stimuli/animate_003_left.png"" class=""coveredImage test"" style = ""width:100px; height:100px;position:fixed; top:25%;        transform: translate(-50%, -50%);left:38%""></img><img src=""media/stimuli/inanimate_011_left.png"" class=""coveredImage test"" style = ""width:100px; height:100px;position:fixed; top:25%;        transform: translate(-50%, -50%);left:58%""></img><img src=""media/f.png""style = ""width:30px x; height:30px;position:fixed; top:43%;    transform: translate(-50%, -50%);left:40%""></img><img src=""media/j.png""style = ""width:30px; height:30px;position:fixed; top:43%;    transform: translate(-50%, -50%);left:60%""></img>","media/stimuli/animate_005_left.png","animate","left","single","media/stimuli/animate_003_left.png","animate","left","single","media/stimuli/inanimate_011_left.png","inanimate","left","single","identity_animacy","","","",""
"","","","","","html-keyboard-response","17","68504","0.0-17.0","SS1678233206766","5c3399d8cb218a000176c6c6","6406d7f26dd5b7fc1e3377bd","6407ce709f0755f289c4c72c","1920","937","","8045","","f","","","<img src=""media/stimuli/inanimate_005_right.png"" class=""coveredImage test"" style = ""width:100px; height:100px; position:fixed; top:10%;    transform: translate(-50%, -50%);left:44.5%""></img><img src=""media/stimuli/inanimate_005_right.png"" class=""coveredImage test"" style = ""width:100px; height:100px; position:fixed; top:10%;    transform: translate(-50%, -50%);left:51.5%""></img><img src=""media/stimuli/inanimate_005_right.png"" class=""coveredImage test"" style = ""width:100px; height:100px;position:fixed; top:25%;        transform: translate(-50%, -50%);left:38%""></img><img src=""media/stimuli/inanimate_005_left.png"" class=""coveredImage test"" style = ""width:100px; height:100px;position:fixed; top:25%;        transform: translate(-50%, -50%);left:54.5%""></img><img src=""media/stimuli/inanimate_005_left.png"" class=""coveredImage test"" style = ""width:100px; height:100px;position:fixed; top:25%;        transform: translate(-50%, -50%);left:61.5%""></img><img src=""media/f.png""style = ""width:30px x; height:30px;position:fixed; top:43%;    transform: translate(-50%, -50%);left:40%""></img><img src=""media/j.png""style = ""width:30px; height:30px;position:fixed; top:43%;    transform: translate(-50%, -50%);left:60%""></img>","media/stimuli/inanimate_005_right.png","inanimate","right","pair","media/stimuli/inanimate_005_right.png","inanimate","right","single","media/stimuli/inanimate_005_left.png","inanimate","left","pair","number_pose","","","",""
"","","","","","html-keyboard-response","18","70841","0.0-18.0","SS1678233206766","5c3399d8cb218a000176c6c6","6406d7f26dd5b7fc1e3377bd","6407ce709f0755f289c4c72c","1920","937","","2335","","j","","","<img src=""media/stimuli/animate_003_left.png"" class=""coveredImage test"" style = ""width:100px; height:100px; position:fixed; top:10%;    transform: translate(-50%, -50%);left:44.5%""></img><img src=""media/stimuli/animate_003_left.png"" class=""coveredImage test"" style = ""width:100px; height:100px; position:fixed; top:10%;    transform: translate(-50%, -50%);left:51.5%""></img><img src=""media/stimuli/inanimate_004_left.png"" class=""coveredImage test"" style = ""width:100px; height:100px;position:fixed; top:25%;        transform: translate(-50%, -50%);left:34.5%""></img><img src=""media/stimuli/inanimate_004_left.png"" class=""coveredImage test"" style = ""width:100px; height:100px;position:fixed; top:25%;        transform: translate(-50%, -50%);left:41.5%""></img><img src=""media/stimuli/animate_012_left.png"" class=""coveredImage test"" style = ""width:100px; height:100px;position:fixed; top:25%;        transform: translate(-50%, -50%);left:54.5%""></img><img src=""media/stimuli/animate_012_left.png"" class=""coveredImage test"" style = ""width:100px; height:100px;position:fixed; top:25%;        transform: translate(-50%, -50%);left:61.5%""></img><img src=""media/f.png""style = ""width:30px x; height:30px;position:fixed; top:43%;    transform: translate(-50%, -50%);left:40%""></img><img src=""media/j.png""style = ""width:30px; height:30px;position:fixed; top:43%;    transform: translate(-50%, -50%);left:60%""></img>","media/stimuli/animate_003_left.png","animate","left","pair","media/stimuli/inanimate_004_left.png","inanimate","left","pair","media/stimuli/animate_012_left.png","animate","left","pair","animacy_identity","","","",""
"","","","","","html-keyboard-response","19","72497","0.0-19.0","SS1678233206766","5c3399d8cb218a000176c6c6","6406d7f26dd5b7fc1e3377bd","6407ce709f0755f289c4c72c","1920","937","","1654","","j","","","<img src=""media/stimuli/inanimate_009_right.png"" class=""coveredImage test"" style = ""width:100px; height:100px; position:fixed; top:10%;    transform: translate(-50%, -50%);left:44.5%""></img><img src=""media/stimuli/inanimate_009_right.png"" class=""coveredImage test"" style = ""width:100px; height:100px; position:fixed; top:10%;    transform: translate(-50%, -50%);left:51.5%""></img><img src=""media/stimuli/animate_006_right.png"" class=""coveredImage test"" style = ""width:100px; height:100px;position:fixed; top:25%;        transform: translate(-50%, -50%);left:34.5%""></img><img src=""media/stimuli/animate_006_right.png"" class=""coveredImage test"" style = ""width:100px; height:100px;position:fixed; top:25%;        transform: translate(-50%, -50%);left:41.5%""></img><img src=""media/stimuli/inanimate_009_right.png"" class=""coveredImage test"" style = ""width:100px; height:100px;position:fixed; top:25%;        transform: translate(-50%, -50%);left:58%""></img><img src=""media/f.png""style = ""width:30px x; height:30px;position:fixed; top:43%;    transform: translate(-50%, -50%);left:40%""></img><img src=""media/j.png""style = ""width:30px; height:30px;position:fixed; top:43%;    transform: translate(-50%, -50%);left:60%""></img>","media/stimuli/inanimate_009_right.png","inanimate","right","pair","media/stimuli/animate_006_right.png","animate","right","pair","media/stimuli/inanimate_009_right.png","inanimate","right","single","animacy_number","","","",""
"","","","","","html-keyboard-response","20","479360","0.0-20.0","SS1678233206766","5c3399d8cb218a000176c6c6","6406d7f26dd5b7fc1e3377bd","6407ce709f0755f289c4c72c","1920","937","","406862",""," ","","","","","","","","","","","","","","","","","","","",""
"","","","","","survey-likert","21","483185","0.0-21.0","SS1678233206766","5c3399d8cb218a000176c6c6","6406d7f26dd5b7fc1e3377bd","6407ce709f0755f289c4c72c","1920","937","","3823","","{""Q0"":1}","[0]","complexity","","","","","","","","","","","","","","","media/stimuli/animate_011_right.png","animate","pair","right"
"","","","","","survey-likert","22","485666","0.0-22.0","SS1678233206766","5c3399d8cb218a000176c6c6","6406d7f26dd5b7fc1e3377bd","6407ce709f0755f289c4c72c","1920","937","","2475","","{""Q0"":1}","[0]","complexity","","","","","","","","","","","","","","","media/stimuli/animate_011_left.png","animate","single","left"
"","","","","","survey-likert","23","487987","0.0-23.0","SS1678233206766","5c3399d8cb218a000176c6c6","6406d7f26dd5b7fc1e3377bd","6407ce709f0755f289c4c72c","1920","937","","2315","","{""Q0"":1}","[0]","complexity","","","","","","","","","","","","","","","media/stimuli/animate_011_right.png","animate","single","right"
"","","","","","survey-likert","24","490011","0.0-24.0","SS1678233206766","5c3399d8cb218a000176c6c6","6406d7f26dd5b7fc1e3377bd","6407ce709f0755f289c4c72c","1920","937","","2017","","{""Q0"":1}","[0]","complexity","","","","","","","","","","","","","","","media/stimuli/inanimate_001_left.png","inanimate","single","left"
"","","","","","survey-likert","25","492595","0.0-25.0","SS1678233206766","5c3399d8cb218a000176c6c6","6406d7f26dd5b7fc1e3377bd","6407ce709f0755f289c4c72c","1920","937","","2580","","{""Q0"":1}","[0]","complexity","","","","","","","","","","","","","","","media/stimuli/animate_008_left.png","animate","pair","left"
"","","","","","survey-likert","26","493988","0.0-26.0","SS1678233206766","5c3399d8cb218a000176c6c6","6406d7f26dd5b7fc1e3377bd","6407ce709f0755f289c4c72c","1920","937","","1388","","{""Q0"":1}","[0]","complexity","","","","","","","","","","","","","","","media/stimuli/inanimate_010_left.png","inanimate","single","left"
"","","","","","survey-likert","27","496731","0.0-27.0","SS1678233206766","5c3399d8cb218a000176c6c6","6406d7f26dd5b7fc1e3377bd","6407ce709f0755f289c4c72c","1920","937","","2737","","{""Q0"":2}","[0]","complexity","","","","","","","","","","","","","","","media/stimuli/inanimate_006_left.png","inanimate","pair","left"
"","","","","","survey-likert","28","500028","0.0-28.0","SS1678233206766","5c3399d8cb218a000176c6c6","6406d7f26dd5b7fc1e3377bd","6407ce709f0755f289c4c72c","1920","937","","3292","","{""Q0"":1}","[0]","complexity","","","","","","","","","","","","","","","media/stimuli/inanimate_012_right.png","inanimate","pair","right"
"","","","","","survey-likert","29","506117","0.0-29.0","SS1678233206766","5c3399d8cb218a000176c6c6","6406d7f26dd5b7fc1e3377bd","6407ce709f0755f289c4c72c","1920","937","","6084","","{""Q0"":3}","[0]","complexity","","","","","","","","","","","","","","","media/stimuli/animate_009_left.png","animate","single","left"
"","","","","","survey-likert","30","510134","0.0-30.0","SS1678233206766","5c3399d8cb218a000176c6c6","6406d7f26dd5b7fc1e3377bd","6407ce709f0755f289c4c72c","1920","937","","4010","","{""Q0"":2}","[0]","complexity","","","","","","","","","","","","","","","media/stimuli/animate_001_left.png","animate","pair","left"
"","","","","","survey-likert","31","514334","0.0-31.0","SS1678233206766","5c3399d8cb218a000176c6c6","6406d7f26dd5b7fc1e3377bd","6407ce709f0755f289c4c72c","1920","937","","4193","","{""Q0"":1}","[0]","complexity","","","","","","","","","","","","","","","media/stimuli/animate_003_right.png","animate","single","right"
"","","","","","survey-likert","32","516510","0.0-32.0","SS1678233206766","5c3399d8cb218a000176c6c6","6406d7f26dd5b7fc1e3377bd","6407ce709f0755f289c4c72c","1920","937","","2170","","{""Q0"":0}","[0]","complexity","","","","","","","","","","","","","","","media/stimuli/inanimate_001_right.png","inanimate","single","right"
"","","","","","html-keyboard-response","33","518172","0.0-33.0","SS1678233206766","5c3399d8cb218a000176c6c6","6406d7f26dd5b7fc1e3377bd","6407ce709f0755f289c4c72c","1920","937","","1656",""," ","","","","","","","","","","","","","","","","","","","",""
"","","","","","html-keyboard-response","34","521820","0.0-34.0","SS1678233206766","5c3399d8cb218a000176c6c6","6406d7f26dd5b7fc1e3377bd","6407ce709f0755f289c4c72c","1920","937","","3646","","j","","","<img src=""media/stimuli/inanimate_005_right.png"" class=""coveredImage test"" style = ""width:100px; height:100px; position:fixed; top:10%;    transform: translate(-50%, -50%);left:44.5%""></img><img src=""media/stimuli/inanimate_005_right.png"" class=""coveredImage test"" style = ""width:100px; height:100px; position:fixed; top:10%;    transform: translate(-50%, -50%);left:51.5%""></img><img src=""media/stimuli/animate_012_right.png"" class=""coveredImage test"" style = ""width:100px; height:100px;position:fixed; top:25%;        transform: translate(-50%, -50%);left:34.5%""></img><img src=""media/stimuli/animate_012_right.png"" class=""coveredImage test"" style = ""width:100px; height:100px;position:fixed; top:25%;        transform: translate(-50%, -50%);left:41.5%""></img><img src=""media/stimuli/inanimate_002_right.png"" class=""coveredImage test"" style = ""width:100px; height:100px;position:fixed; top:25%;        transform: translate(-50%, -50%);left:54.5%""></img><img src=""media/stimuli/inanimate_002_right.png"" class=""coveredImage test"" style = ""width:100px; height:100px;position:fixed; top:25%;        transform: translate(-50%, -50%);left:61.5%""></img><img src=""media/f.png""style = ""width:30px x; height:30px;position:fixed; top:43%;    transform: translate(-50%, -50%);left:40%""></img><img src=""media/j.png""style = ""width:30px; height:30px;position:fixed; top:43%;    transform: translate(-50%, -50%);left:60%""></img>","media/stimuli/inanimate_005_right.png","inanimate","right","pair","media/stimuli/animate_012_right.png","animate","right","pair","media/stimuli/inanimate_002_right.png","inanimate","right","pair","animacy_identity","","","",""
"","","","","","html-keyboard-response","35","524196","0.0-35.0","SS1678233206766","5c3399d8cb218a000176c6c6","6406d7f26dd5b7fc1e3377bd","6407ce709f0755f289c4c72c","1920","937","","2373","","f","","","<img src=""media/stimuli/animate_004_left.png"" class=""coveredImage test"" style = ""width:100px; height:100px; position:fixed; top:10%;    transform: translate(-50%, -50%);left:48%""></img><img src=""media/stimuli/animate_004_left.png"" class=""coveredImage test"" style = ""width:100px; height:100px;position:fixed; top:25%;        transform: translate(-50%, -50%);left:38%""></img><img src=""media/stimuli/animate_004_right.png"" class=""coveredImage test"" style = ""width:100px; height:100px;position:fixed; top:25%;        transform: translate(-50%, -50%);left:58%""></img><img src=""media/f.png""style = ""width:30px x; height:30px;position:fixed; top:43%;    transform: translate(-50%, -50%);left:40%""></img><img src=""media/j.png""style = ""width:30px; height:30px;position:fixed; top:43%;    transform: translate(-50%, -50%);left:60%""></img>","media/stimuli/animate_004_left.png","animate","left","single","media/stimuli/animate_004_left.png","animate","left","single","media/stimuli/animate_004_right.png","animate","right","single","filler_pose","","","",""
"","","","","","html-keyboard-response","36","527068","0.0-36.0","SS1678233206766","5c3399d8cb218a000176c6c6","6406d7f26dd5b7fc1e3377bd","6407ce709f0755f289c4c72c","1920","937","","2870","","f","","","<img src=""media/stimuli/inanimate_006_right.png"" class=""coveredImage test"" style = ""width:100px; height:100px; position:fixed; top:10%;    transform: translate(-50%, -50%);left:48%""></img><img src=""media/stimuli/inanimate_006_right.png"" class=""coveredImage test"" style = ""width:100px; height:100px;position:fixed; top:25%;        transform: translate(-50%, -50%);left:34.5%""></img><img src=""media/stimuli/inanimate_006_right.png"" class=""coveredImage test"" style = ""width:100px; height:100px;position:fixed; top:25%;        transform: translate(-50%, -50%);left:41.5%""></img><img src=""media/stimuli/inanimate_006_left.png"" class=""coveredImage test"" style = ""width:100px; height:100px;position:fixed; top:25%;        transform: translate(-50%, -50%);left:58%""></img><img src=""media/f.png""style = ""width:30px x; height:30px;position:fixed; top:43%;    transform: translate(-50%, -50%);left:40%""></img><img src=""media/j.png""style = ""width:30px; height:30px;position:fixed; top:43%;    transform: translate(-50%, -50%);left:60%""></img>","media/stimuli/inanimate_006_right.png","inanimate","right","single","media/stimuli/inanimate_006_right.png","inanimate","right","pair","media/stimuli/inanimate_006_left.png","inanimate","left","single","number_pose","","","",""
"","","","","","html-keyboard-response","37","531175","0.0-37.0","SS1678233206766","5c3399d8cb218a000176c6c6","6406d7f26dd5b7fc1e3377bd","6407ce709f0755f289c4c72c","1920","937","","4106","","j","","","<img src=""media/stimuli/animate_008_left.png"" class=""coveredImage test"" style = ""width:100px; height:100px; position:fixed; top:10%;    transform: translate(-50%, -50%);left:48%""></img><img src=""media/stimuli/inanimate_012_left.png"" class=""coveredImage test"" style = ""width:100px; height:100px;position:fixed; top:25%;        transform: translate(-50%, -50%);left:38%""></img><img src=""media/stimuli/animate_011_left.png"" class=""coveredImage test"" style = ""width:100px; height:100px;position:fixed; top:25%;        transform: translate(-50%, -50%);left:58%""></img><img src=""media/f.png""style = ""width:30px x; height:30px;position:fixed; top:43%;    transform: translate(-50%, -50%);left:40%""></img><img src=""media/j.png""style = ""width:30px; height:30px;position:fixed; top:43%;    transform: translate(-50%, -50%);left:60%""></img>","media/stimuli/animate_008_left.png","animate","left","single","media/stimuli/inanimate_012_left.png","inanimate","left","single","media/stimuli/animate_011_left.png","animate","left","single","animacy_identity","","","",""
"","","","","","html-keyboard-response","38","532888","0.0-38.0","SS1678233206766","5c3399d8cb218a000176c6c6","6406d7f26dd5b7fc1e3377bd","6407ce709f0755f289c4c72c","1920","937","","1711","","j","","","<img src=""media/stimuli/animate_011_right.png"" class=""coveredImage test"" style = ""width:100px; height:100px; position:fixed; top:10%;    transform: translate(-50%, -50%);left:48%""></img><img src=""media/stimuli/inanimate_006_right.png"" class=""coveredImage test"" style = ""width:100px; height:100px;position:fixed; top:25%;        transform: translate(-50%, -50%);left:38%""></img><img src=""media/stimuli/animate_006_right.png"" class=""coveredImage test"" style = ""width:100px; height:100px;position:fixed; top:25%;        transform: translate(-50%, -50%);left:58%""></img><img src=""media/f.png""style = ""width:30px x; height:30px;position:fixed; top:43%;    transform: translate(-50%, -50%);left:40%""></img><img src=""media/j.png""style = ""width:30px; height:30px;position:fixed; top:43%;    transform: translate(-50%, -50%);left:60%""></img>","media/stimuli/animate_011_right.png","animate","right","single","media/stimuli/inanimate_006_right.png","inanimate","right","single","media/stimuli/animate_006_right.png","animate","right","single","animacy_identity","","","",""
"","","","","","html-keyboard-response","39","535175","0.0-39.0","SS1678233206766","5c3399d8cb218a000176c6c6","6406d7f26dd5b7fc1e3377bd","6407ce709f0755f289c4c72c","1920","937","","2285","","j","","","<img src=""media/stimuli/animate_004_left.png"" class=""coveredImage test"" style = ""width:100px; height:100px; position:fixed; top:10%;    transform: translate(-50%, -50%);left:48%""></img><img src=""media/stimuli/inanimate_010_left.png"" class=""coveredImage test"" style = ""width:100px; height:100px;position:fixed; top:25%;        transform: translate(-50%, -50%);left:38%""></img><img src=""media/stimuli/animate_004_left.png"" class=""coveredImage test"" style = ""width:100px; height:100px;position:fixed; top:25%;        transform: translate(-50%, -50%);left:54.5%""></img><img src=""media/stimuli/animate_004_left.png"" class=""coveredImage test"" style = ""width:100px; height:100px;position:fixed; top:25%;        transform: translate(-50%, -50%);left:61.5%""></img><img src=""media/f.png""style = ""width:30px x; height:30px;position:fixed; top:43%;    transform: translate(-50%, -50%);left:40%""></img><img src=""media/j.png""style = ""width:30px; height:30px;position:fixed; top:43%;    transform: translate(-50%, -50%);left:60%""></img>","media/stimuli/animate_004_left.png","animate","left","single","media/stimuli/inanimate_010_left.png","inanimate","left","single","media/stimuli/animate_004_left.png","animate","left","pair","animacy_number","","","",""
"","","","","","html-keyboard-response","40","539447","0.0-40.0","SS1678233206766","5c3399d8cb218a000176c6c6","6406d7f26dd5b7fc1e3377bd","6407ce709f0755f289c4c72c","1920","937","","4270","","j","","","<img src=""media/stimuli/animate_012_left.png"" class=""coveredImage test"" style = ""width:100px; height:100px; position:fixed; top:10%;    transform: translate(-50%, -50%);left:44.5%""></img><img src=""media/stimuli/animate_012_left.png"" class=""coveredImage test"" style = ""width:100px; height:100px; position:fixed; top:10%;    transform: translate(-50%, -50%);left:51.5%""></img><img src=""media/stimuli/animate_008_left.png"" class=""coveredImage test"" style = ""width:100px; height:100px;position:fixed; top:25%;        transform: translate(-50%, -50%);left:34.5%""></img><img src=""media/stimuli/animate_008_left.png"" class=""coveredImage test"" style = ""width:100px; height:100px;position:fixed; top:25%;        transform: translate(-50%, -50%);left:41.5%""></img><img src=""media/stimuli/animate_012_right.png"" class=""coveredImage test"" style = ""width:100px; height:100px;position:fixed; top:25%;        transform: translate(-50%, -50%);left:54.5%""></img><img src=""media/stimuli/animate_012_right.png"" class=""coveredImage test"" style = ""width:100px; height:100px;position:fixed; top:25%;        transform: translate(-50%, -50%);left:61.5%""></img><img src=""media/f.png""style = ""width:30px x; height:30px;position:fixed; top:43%;    transform: translate(-50%, -50%);left:40%""></img><img src=""media/j.png""style = ""width:30px; height:30px;position:fixed; top:43%;    transform: translate(-50%, -50%);left:60%""></img>","media/stimuli/animate_012_left.png","animate","left","pair","media/stimuli/animate_008_left.png","animate","left","pair","media/stimuli/animate_012_right.png","animate","right","pair","identity_pose","","","",""
"","","","","","html-keyboard-response","41","590511","0.0-41.0","SS1678233206766","5c3399d8cb218a000176c6c6","6406d7f26dd5b7fc1e3377bd","6407ce709f0755f289c4c72c","1920","937","","51062","","j","","","<img src=""media/stimuli/inanimate_004_left.png"" class=""coveredImage test"" style = ""width:100px; height:100px; position:fixed; top:10%;    transform: translate(-50%, -50%);left:48%""></img><img src=""media/stimuli/inanimate_004_right.png"" class=""coveredImage test"" style = ""width:100px; height:100px;position:fixed; top:25%;        transform: translate(-50%, -50%);left:38%""></img><img src=""media/stimuli/inanimate_004_left.png"" class=""coveredImage test"" style = ""width:100px; height:100px;position:fixed; top:25%;        transform: translate(-50%, -50%);left:54.5%""></img><img src=""media/stimuli/inanimate_004_left.png"" class=""coveredImage test"" style = ""width:100px; height:100px;position:fixed; top:25%;        transform: translate(-50%, -50%);left:61.5%""></img><img src=""media/f.png""style = ""width:30px x; height:30px;position:fixed; top:43%;    transform: translate(-50%, -50%);left:40%""></img><img src=""media/j.png""style = ""width:30px; height:30px;position:fixed; top:43%;    transform: translate(-50%, -50%);left:60%""></img>","media/stimuli/inanimate_004_left.png","inanimate","left","single","media/stimuli/inanimate_004_right.png","inanimate","right","single","media/stimuli/inanimate_004_left.png","inanimate","left","pair","pose_number","","","",""
"","","","","","html-keyboard-response","42","591976","0.0-42.0","SS1678233206766","5c3399d8cb218a000176c6c6","6406d7f26dd5b7fc1e3377bd","6407ce709f0755f289c4c72c","1920","937","","1462","","f","","","<img src=""media/stimuli/animate_004_left.png"" class=""coveredImage test"" style = ""width:100px; height:100px; position:fixed; top:10%;    transform: translate(-50%, -50%);left:48%""></img><img src=""media/stimuli/animate_004_right.png"" class=""coveredImage test"" style = ""width:100px; height:100px;position:fixed; top:25%;        transform: translate(-50%, -50%);left:38%""></img><img src=""media/stimuli/inanimate_012_left.png"" class=""coveredImage test"" style = ""width:100px; height:100px;position:fixed; top:25%;        transform: translate(-50%, -50%);left:58%""></img><img src=""media/f.png""style = ""width:30px x; height:30px;position:fixed; top:43%;    transform: translate(-50%, -50%);left:40%""></img><img src=""media/j.png""style = ""width:30px; height:30px;position:fixed; top:43%;    transform: translate(-50%, -50%);left:60%""></img>","media/stimuli/animate_004_left.png","animate","left","single","media/stimuli/animate_004_right.png","animate","right","single","media/stimuli/inanimate_012_left.png","inanimate","left","single","pose_animacy","","","",""
"","","","","","html-keyboard-response","43","593855","0.0-43.0","SS1678233206766","5c3399d8cb218a000176c6c6","6406d7f26dd5b7fc1e3377bd","6407ce709f0755f289c4c72c","1920","937","","1877","","f","","","<img src=""media/stimuli/animate_007_left.png"" class=""coveredImage test"" style = ""width:100px; height:100px; position:fixed; top:10%;    transform: translate(-50%, -50%);left:48%""></img><img src=""media/stimuli/animate_007_left.png"" class=""coveredImage test"" style = ""width:100px; height:100px;position:fixed; top:25%;        transform: translate(-50%, -50%);left:34.5%""></img><img src=""media/stimuli/animate_007_left.png"" class=""coveredImage test"" style = ""width:100px; height:100px;position:fixed; top:25%;        transform: translate(-50%, -50%);left:41.5%""></img><img src=""media/stimuli/inanimate_012_left.png"" class=""coveredImage test"" style = ""width:100px; height:100px;position:fixed; top:25%;        transform: translate(-50%, -50%);left:58%""></img><img src=""media/f.png""style = ""width:30px x; height:30px;position:fixed; top:43%;    transform: translate(-50%, -50%);left:40%""></img><img src=""media/j.png""style = ""width:30px; height:30px;position:fixed; top:43%;    transform: translate(-50%, -50%);left:60%""></img>","media/stimuli/animate_007_left.png","animate","left","single","media/stimuli/animate_007_left.png","animate","left","pair","media/stimuli/inanimate_012_left.png","inanimate","left","single","number_animacy","","","",""
"","","","","","html-keyboard-response","44","595439","0.0-44.0","SS1678233206766","5c3399d8cb218a000176c6c6","6406d7f26dd5b7fc1e3377bd","6407ce709f0755f289c4c72c","1920","937","","1582","","f","","","<img src=""media/stimuli/inanimate_004_right.png"" class=""coveredImage test"" style = ""width:100px; height:100px; position:fixed; top:10%;    transform: translate(-50%, -50%);left:48%""></img><img src=""media/stimuli/inanimate_009_right.png"" class=""coveredImage test"" style = ""width:100px; height:100px;position:fixed; top:25%;        transform: translate(-50%, -50%);left:38%""></img><img src=""media/stimuli/animate_004_right.png"" class=""coveredImage test"" style = ""width:100px; height:100px;position:fixed; top:25%;        transform: translate(-50%, -50%);left:58%""></img><img src=""media/f.png""style = ""width:30px x; height:30px;position:fixed; top:43%;    transform: translate(-50%, -50%);left:40%""></img><img src=""media/j.png""style = ""width:30px; height:30px;position:fixed; top:43%;    transform: translate(-50%, -50%);left:60%""></img>","media/stimuli/inanimate_004_right.png","inanimate","right","single","media/stimuli/inanimate_009_right.png","inanimate","right","single","media/stimuli/animate_004_right.png","animate","right","single","identity_animacy","","","",""
"","","","","","html-keyboard-response","45","596743","0.0-45.0","SS1678233206766","5c3399d8cb218a000176c6c6","6406d7f26dd5b7fc1e3377bd","6407ce709f0755f289c4c72c","1920","937","","1302","","j","","","<img src=""media/stimuli/inanimate_011_right.png"" class=""coveredImage test"" style = ""width:100px; height:100px; position:fixed; top:10%;    transform: translate(-50%, -50%);left:44.5%""></img><img src=""media/stimuli/inanimate_011_right.png"" class=""coveredImage test"" style = ""width:100px; height:100px; position:fixed; top:10%;    transform: translate(-50%, -50%);left:51.5%""></img><img src=""media/stimuli/animate_003_right.png"" class=""coveredImage test"" style = ""width:100px; height:100px;position:fixed; top:25%;        transform: translate(-50%, -50%);left:38%""></img><img src=""media/stimuli/inanimate_011_left.png"" class=""coveredImage test"" style = ""width:100px; height:100px;position:fixed; top:25%;        transform: translate(-50%, -50%);left:58%""></img><img src=""media/f.png""style = ""width:30px x; height:30px;position:fixed; top:43%;    transform: translate(-50%, -50%);left:40%""></img><img src=""media/j.png""style = ""width:30px; height:30px;position:fixed; top:43%;    transform: translate(-50%, -50%);left:60%""></img>","media/stimuli/inanimate_011_right.png","inanimate","right","pair","media/stimuli/animate_003_right.png","animate","right","single","media/stimuli/inanimate_011_left.png","inanimate","left","single","animacy_pose","","","",""
"","","","","","html-keyboard-response","46","597903","0.0-46.0","SS1678233206766","5c3399d8cb218a000176c6c6","6406d7f26dd5b7fc1e3377bd","6407ce709f0755f289c4c72c","1920","937","","1158",""," ","","","","","","","","","","","","","","","","","","","",""
"","","","","","survey-likert","47","604171","0.0-47.0","SS1678233206766","5c3399d8cb218a000176c6c6","6406d7f26dd5b7fc1e3377bd","6407ce709f0755f289c4c72c","1920","937","","6265","","{""Q0"":1}","[0]","complexity","","","","","","","","","","","","","","","media/stimuli/inanimate_008_right.png","inanimate","pair","right"
"","","","","","survey-likert","48","607907","0.0-48.0","SS1678233206766","5c3399d8cb218a000176c6c6","6406d7f26dd5b7fc1e3377bd","6407ce709f0755f289c4c72c","1920","937","","3730","","{""Q0"":1}","[0]","complexity","","","","","","","","","","","","","","","media/stimuli/inanimate_011_left.png","inanimate","pair","left"
"","","","","","survey-likert","49","610938","0.0-49.0","SS1678233206766","5c3399d8cb218a000176c6c6","6406d7f26dd5b7fc1e3377bd","6407ce709f0755f289c4c72c","1920","937","","3026","","{""Q0"":1}","[0]","complexity","","","","","","","","","","","","","","","media/stimuli/inanimate_009_right.png","inanimate","pair","right"
"","","","","","survey-likert","50","613906","0.0-50.0","SS1678233206766","5c3399d8cb218a000176c6c6","6406d7f26dd5b7fc1e3377bd","6407ce709f0755f289c4c72c","1920","937","","2962","","{""Q0"":1}","[0]","complexity","","","","","","","","","","","","","","","media/stimuli/inanimate_002_right.png","inanimate","pair","right"
"","","","","","survey-likert","51","620051","0.0-51.0","SS1678233206766","5c3399d8cb218a000176c6c6","6406d7f26dd5b7fc1e3377bd","6407ce709f0755f289c4c72c","1920","937","","6139","","{""Q0"":3}","[0]","complexity","","","","","","","","","","","","","","","media/stimuli/animate_002_left.png","animate","single","left"
"","","","","","survey-likert","52","625677","0.0-52.0","SS1678233206766","5c3399d8cb218a000176c6c6","6406d7f26dd5b7fc1e3377bd","6407ce709f0755f289c4c72c","1920","937","","5619","","{""Q0"":1}","[0]","complexity","","","","","","","","","","","","","","","media/stimuli/inanimate_004_left.png","inanimate","pair","left"
"","","","","","survey-likert","53","628472","0.0-53.0","SS1678233206766","5c3399d8cb218a000176c6c6","6406d7f26dd5b7fc1e3377bd","6407ce709f0755f289c4c72c","1920","937","","2788","","{""Q0"":1}","[0]","complexity","","","","","","","","","","","","","","","media/stimuli/inanimate_005_right.png","inanimate","pair","right"
"","","","","","survey-likert","54","632174","0.0-54.0","SS1678233206766","5c3399d8cb218a000176c6c6","6406d7f26dd5b7fc1e3377bd","6407ce709f0755f289c4c72c","1920","937","","3697","","{""Q0"":2}","[0]","complexity","","","","","","","","","","","","","","","media/stimuli/inanimate_007_right.png","inanimate","single","right"
"","","","","","survey-likert","55","634111","0.0-55.0","SS1678233206766","5c3399d8cb218a000176c6c6","6406d7f26dd5b7fc1e3377bd","6407ce709f0755f289c4c72c","1920","937","","1930","","{""Q0"":1}","[0]","complexity","","","","","","","","","","","","","","","media/stimuli/inanimate_009_left.png","inanimate","pair","left"
"","","","","","survey-likert","56","636151","0.0-56.0","SS1678233206766","5c3399d8cb218a000176c6c6","6406d7f26dd5b7fc1e3377bd","6407ce709f0755f289c4c72c","1920","937","","2033","","{""Q0"":3}","[0]","complexity","","","","","","","","","","","","","","","media/stimuli/animate_008_left.png","animate","single","left"
"","","","","","survey-likert","57","639249","0.0-57.0","SS1678233206766","5c3399d8cb218a000176c6c6","6406d7f26dd5b7fc1e3377bd","6407ce709f0755f289c4c72c","1920","937","","3092","","{""Q0"":3}","[0]","complexity","","","","","","","","","","","","","","","media/stimuli/animate_004_right.png","animate","single","right"
"","","","","","survey-likert","58","642249","0.0-58.0","SS1678233206766","5c3399d8cb218a000176c6c6","6406d7f26dd5b7fc1e3377bd","6407ce709f0755f289c4c72c","1920","937","","2993","","{""Q0"":4}","[0]","complexity","","","","","","","","","","","","","","","media/stimuli/animate_003_right.png","animate","pair","right"
"","","","","","html-keyboard-response","59","643659","0.0-59.0","SS1678233206766","5c3399d8cb218a000176c6c6","6406d7f26dd5b7fc1e3377bd","6407ce709f0755f289c4c72c","1920","937","","1405",""," ","","","","","","","","","","","","","","","","","","","",""
"","","","","","survey-likert","60","646376","0.0-60.0","SS1678233206766","5c3399d8cb218a000176c6c6","6406d7f26dd5b7fc1e3377bd","6407ce709f0755f289c4c72c","1920","937","","2714","","{""Q0"":1}","[0]","complexity","","","","","","","","","","","","","","","media/stimuli/inanimate_003_right.png","inanimate","single","right"
"","","","","","survey-likert","61","648815","0.0-61.0","SS1678233206766","5c3399d8cb218a000176c6c6","6406d7f26dd5b7fc1e3377bd","6407ce709f0755f289c4c72c","1920","937","","2431","","{""Q0"":3}","[0]","complexity","","","","","","","","","","","","","","","media/stimuli/animate_001_left.png","animate","single","left"
"","","","","","survey-likert","62","650927","0.0-62.0","SS1678233206766","5c3399d8cb218a000176c6c6","6406d7f26dd5b7fc1e3377bd","6407ce709f0755f289c4c72c","1920","937","","2105","","{""Q0"":3}","[0]","complexity","","","","","","","","","","","","","","","media/stimuli/animate_009_left.png","animate","pair","left"
"","","","","","survey-likert","63","653329","0.0-63.0","SS1678233206766","5c3399d8cb218a000176c6c6","6406d7f26dd5b7fc1e3377bd","6407ce709f0755f289c4c72c","1920","937","","2394","","{""Q0"":3}","[0]","complexity","","","","","","","","","","","","","","","media/stimuli/animate_007_right.png","animate","pair","right"
"","","","","","survey-likert","64","654984","0.0-64.0","SS1678233206766","5c3399d8cb218a000176c6c6","6406d7f26dd5b7fc1e3377bd","6407ce709f0755f289c4c72c","1920","937","","1649","","{""Q0"":4}","[0]","complexity","","","","","","","","","","","","","","","media/stimuli/animate_001_right.png","animate","pair","right"
"","","","","","survey-likert","65","656832","0.0-65.0","SS1678233206766","5c3399d8cb218a000176c6c6","6406d7f26dd5b7fc1e3377bd","6407ce709f0755f289c4c72c","1920","937","","1841","","{""Q0"":2}","[0]","complexity","","","","","","","","","","","","","","","media/stimuli/inanimate_007_left.png","inanimate","single","left"
"","","","","","survey-likert","66","658817","0.0-66.0","SS1678233206766","5c3399d8cb218a000176c6c6","6406d7f26dd5b7fc1e3377bd","6407ce709f0755f289c4c72c","1920","937","","1979","","{""Q0"":4}","[0]","complexity","","","","","","","","","","","","","","","media/stimuli/animate_011_left.png","animate","pair","left"
"","","","","","survey-likert","67","660786","0.0-67.0","SS1678233206766","5c3399d8cb218a000176c6c6","6406d7f26dd5b7fc1e3377bd","6407ce709f0755f289c4c72c","1920","937","","1963","","{""Q0"":4}","[0]","complexity","","","","","","","","","","","","","","","media/stimuli/animate_004_left.png","animate","pair","left"
"","","","","","survey-likert","68","662322","0.0-68.0","SS1678233206766","5c3399d8cb218a000176c6c6","6406d7f26dd5b7fc1e3377bd","6407ce709f0755f289c4c72c","1920","937","","1530","","{""Q0"":1}","[0]","complexity","","","","","","","","","","","","","","","media/stimuli/inanimate_002_left.png","inanimate","pair","left"
"","","","","","survey-likert","69","664449","0.0-69.0","SS1678233206766","5c3399d8cb218a000176c6c6","6406d7f26dd5b7fc1e3377bd","6407ce709f0755f289c4c72c","1920","937","","2122","","{""Q0"":2}","[0]","complexity","","","","","","","","","","","","","","","media/stimuli/inanimate_010_right.png","inanimate","pair","right"
"","","","","","survey-likert","70","666466","0.0-70.0","SS1678233206766","5c3399d8cb218a000176c6c6","6406d7f26dd5b7fc1e3377bd","6407ce709f0755f289c4c72c","1920","937","","2011","","{""Q0"":1}","[0]","complexity","","","","","","","","","","","","","","","media/stimuli/inanimate_003_right.png","inanimate","pair","right"
"","","","","","survey-likert","71","668419","0.0-71.0","SS1678233206766","5c3399d8cb218a000176c6c6","6406d7f26dd5b7fc1e3377bd","6407ce709f0755f289c4c72c","1920","937","","1946","","{""Q0"":3}","[0]","complexity","","","","","","","","","","","","","","","media/stimuli/inanimate_007_left.png","inanimate","pair","left"
"","","","","","html-keyboard-response","72","759491","0.0-72.0","SS1678233206766","5c3399d8cb218a000176c6c6","6406d7f26dd5b7fc1e3377bd","6407ce709f0755f289c4c72c","1920","937","","91066",""," ","","","","","","","","","","","","","","","","","","","",""
"","","","","","survey-likert","73","762239","0.0-73.0","SS1678233206766","5c3399d8cb218a000176c6c6","6406d7f26dd5b7fc1e3377bd","6407ce709f0755f289c4c72c","1920","937","","2744","","{""Q0"":4}","[0]","complexity","","","","","","","","","","","","","","","media/stimuli/animate_004_right.png","animate","pair","right"
"","","","","","survey-likert","74","764590","0.0-74.0","SS1678233206766","5c3399d8cb218a000176c6c6","6406d7f26dd5b7fc1e3377bd","6407ce709f0755f289c4c72c","1920","937","","2344","","{""Q0"":4}","[0]","complexity","","","","","","","","","","","","","","","media/stimuli/animate_010_left.png","animate","pair","left"
"","","","","","survey-likert","75","766982","0.0-75.0","SS1678233206766","5c3399d8cb218a000176c6c6","6406d7f26dd5b7fc1e3377bd","6407ce709f0755f289c4c72c","1920","937","","2386","","{""Q0"":0}","[0]","complexity","","","","","","","","","","","","","","","media/stimuli/inanimate_004_left.png","inanimate","single","left"
"","","","","","survey-likert","76","769007","0.0-76.0","SS1678233206766","5c3399d8cb218a000176c6c6","6406d7f26dd5b7fc1e3377bd","6407ce709f0755f289c4c72c","1920","937","","2019","","{""Q0"":2}","[0]","complexity","","","","","","","","","","","","","","","media/stimuli/animate_008_right.png","animate","single","right"
"","","","","","survey-likert","77","770477","0.0-77.0","SS1678233206766","5c3399d8cb218a000176c6c6","6406d7f26dd5b7fc1e3377bd","6407ce709f0755f289c4c72c","1920","937","","1464","","{""Q0"":2}","[0]","complexity","","","","","","","","","","","","","","","media/stimuli/inanimate_011_left.png","inanimate","single","left"
"","","","","","survey-likert","78","773736","0.0-78.0","SS1678233206766","5c3399d8cb218a000176c6c6","6406d7f26dd5b7fc1e3377bd","6407ce709f0755f289c4c72c","1920","937","","3252","","{""Q0"":1}","[0]","complexity","","","","","","","","","","","","","","","media/stimuli/animate_009_right.png","animate","single","right"
"","","","","","survey-likert","79","776352","0.0-79.0","SS1678233206766","5c3399d8cb218a000176c6c6","6406d7f26dd5b7fc1e3377bd","6407ce709f0755f289c4c72c","1920","937","","2609","","{""Q0"":1}","[0]","complexity","","","","","","","","","","","","","","","media/stimuli/inanimate_005_right.png","inanimate","single","right"
"","","","","","survey-likert","80","778319","0.0-80.0","SS1678233206766","5c3399d8cb218a000176c6c6","6406d7f26dd5b7fc1e3377bd","6407ce709f0755f289c4c72c","1920","937","","1961","","{""Q0"":0}","[0]","complexity","","","","","","","","","","","","","","","media/stimuli/inanimate_012_left.png","inanimate","single","left"
"","","","","","survey-likert","81","780119","0.0-81.0","SS1678233206766","5c3399d8cb218a000176c6c6","6406d7f26dd5b7fc1e3377bd","6407ce709f0755f289c4c72c","1920","937","","1793","","{""Q0"":3}","[0]","complexity","","","","","","","","","","","","","","","media/stimuli/animate_010_left.png","animate","single","left"
"","","","","","survey-likert","82","782856","0.0-82.0","SS1678233206766","5c3399d8cb218a000176c6c6","6406d7f26dd5b7fc1e3377bd","6407ce709f0755f289c4c72c","1920","937","","2730","","{""Q0"":3}","[0]","complexity","","","","","","","","","","","","","","","media/stimuli/inanimate_011_right.png","inanimate","pair","right"
"","","","","","survey-likert","83","784682","0.0-83.0","SS1678233206766","5c3399d8cb218a000176c6c6","6406d7f26dd5b7fc1e3377bd","6407ce709f0755f289c4c72c","1920","937","","1819","","{""Q0"":2}","[0]","complexity","","","","","","","","","","","","","","","media/stimuli/animate_007_right.png","animate","single","right"
"","","","","","survey-likert","84","803347","0.0-84.0","SS1678233206766","5c3399d8cb218a000176c6c6","6406d7f26dd5b7fc1e3377bd","6407ce709f0755f289c4c72c","1920","937","","18657","","{""Q0"":3}","[0]","complexity","","","","","","","","","","","","","","","media/stimuli/inanimate_006_right.png","inanimate","pair","right"
"","","","","","html-keyboard-response","85","804775","0.0-85.0","SS1678233206766","5c3399d8cb218a000176c6c6","6406d7f26dd5b7fc1e3377bd","6407ce709f0755f289c4c72c","1920","937","","1421",""," ","","","","","","","","","","","","","","","","","","","",""
"","","","","","html-keyboard-response","86","807527","0.0-86.0","SS1678233206766","5c3399d8cb218a000176c6c6","6406d7f26dd5b7fc1e3377bd","6407ce709f0755f289c4c72c","1920","937","","2749","","f","","","<img src=""media/stimuli/inanimate_010_left.png"" class=""coveredImage test"" style = ""width:100px; height:100px; position:fixed; top:10%;    transform: translate(-50%, -50%);left:44.5%""></img><img src=""media/stimuli/inanimate_010_left.png"" class=""coveredImage test"" style = ""width:100px; height:100px; position:fixed; top:10%;    transform: translate(-50%, -50%);left:51.5%""></img><img src=""media/stimuli/inanimate_010_right.png"" class=""coveredImage test"" style = ""width:100px; height:100px;position:fixed; top:25%;        transform: translate(-50%, -50%);left:34.5%""></img><img src=""media/stimuli/inanimate_010_right.png"" class=""coveredImage test"" style = ""width:100px; height:100px;position:fixed; top:25%;        transform: translate(-50%, -50%);left:41.5%""></img><img src=""media/stimuli/inanimate_010_left.png"" class=""coveredImage test"" style = ""width:100px; height:100px;position:fixed; top:25%;        transform: translate(-50%, -50%);left:58%""></img><img src=""media/f.png""style = ""width:30px x; height:30px;position:fixed; top:43%;    transform: translate(-50%, -50%);left:40%""></img><img src=""media/j.png""style = ""width:30px; height:30px;position:fixed; top:43%;    transform: translate(-50%, -50%);left:60%""></img>","media/stimuli/inanimate_010_left.png","inanimate","left","pair","media/stimuli/inanimate_010_right.png","inanimate","right","pair","media/stimuli/inanimate_010_left.png","inanimate","left","single","pose_number","","","",""
"","","","","","html-keyboard-response","87","808695","0.0-87.0","SS1678233206766","5c3399d8cb218a000176c6c6","6406d7f26dd5b7fc1e3377bd","6407ce709f0755f289c4c72c","1920","937","","1165","","f","","","<img src=""media/stimuli/animate_005_right.png"" class=""coveredImage test"" style = ""width:100px; height:100px; position:fixed; top:10%;    transform: translate(-50%, -50%);left:48%""></img><img src=""media/stimuli/animate_005_right.png"" class=""coveredImage test"" style = ""width:100px; height:100px;position:fixed; top:25%;        transform: translate(-50%, -50%);left:34.5%""></img><img src=""media/stimuli/animate_005_right.png"" class=""coveredImage test"" style = ""width:100px; height:100px;position:fixed; top:25%;        transform: translate(-50%, -50%);left:41.5%""></img><img src=""media/stimuli/inanimate_010_right.png"" class=""coveredImage test"" style = ""width:100px; height:100px;position:fixed; top:25%;        transform: translate(-50%, -50%);left:58%""></img><img src=""media/f.png""style = ""width:30px x; height:30px;position:fixed; top:43%;    transform: translate(-50%, -50%);left:40%""></img><img src=""media/j.png""style = ""width:30px; height:30px;position:fixed; top:43%;    transform: translate(-50%, -50%);left:60%""></img>","media/stimuli/animate_005_right.png","animate","right","single","media/stimuli/animate_005_right.png","animate","right","pair","media/stimuli/inanimate_010_right.png","inanimate","right","single","number_animacy","","","",""
"","","","","","html-keyboard-response","88","810303","0.0-88.0","SS1678233206766","5c3399d8cb218a000176c6c6","6406d7f26dd5b7fc1e3377bd","6407ce709f0755f289c4c72c","1920","937","","1605","","j","","","<img src=""media/stimuli/inanimate_012_right.png"" class=""coveredImage test"" style = ""width:100px; height:100px; position:fixed; top:10%;    transform: translate(-50%, -50%);left:44.5%""></img><img src=""media/stimuli/inanimate_012_right.png"" class=""coveredImage test"" style = ""width:100px; height:100px; position:fixed; top:10%;    transform: translate(-50%, -50%);left:51.5%""></img><img src=""media/stimuli/animate_012_right.png"" class=""coveredImage test"" style = ""width:100px; height:100px;position:fixed; top:25%;        transform: translate(-50%, -50%);left:34.5%""></img><img src=""media/stimuli/animate_012_right.png"" class=""coveredImage test"" style = ""width:100px; height:100px;position:fixed; top:25%;        transform: translate(-50%, -50%);left:41.5%""></img><img src=""media/stimuli/inanimate_012_right.png"" class=""coveredImage test"" style = ""width:100px; height:100px;position:fixed; top:25%;        transform: translate(-50%, -50%);left:58%""></img><img src=""media/f.png""style = ""width:30px x; height:30px;position:fixed; top:43%;    transform: translate(-50%, -50%);left:40%""></img><img src=""media/j.png""style = ""width:30px; height:30px;position:fixed; top:43%;    transform: translate(-50%, -50%);left:60%""></img>","media/stimuli/inanimate_012_right.png","inanimate","right","pair","media/stimuli/animate_012_right.png","animate","right","pair","media/stimuli/inanimate_012_right.png","inanimate","right","single","animacy_number","","","",""
"","","","","","html-keyboard-response","89","812463","0.0-89.0","SS1678233206766","5c3399d8cb218a000176c6c6","6406d7f26dd5b7fc1e3377bd","6407ce709f0755f289c4c72c","1920","937","","2156","","f","","","<img src=""media/stimuli/inanimate_001_right.png"" class=""coveredImage test"" style = ""width:100px; height:100px; position:fixed; top:10%;    transform: translate(-50%, -50%);left:44.5%""></img><img src=""media/stimuli/inanimate_001_right.png"" class=""coveredImage test"" style = ""width:100px; height:100px; position:fixed; top:10%;    transform: translate(-50%, -50%);left:51.5%""></img><img src=""media/stimuli/inanimate_001_right.png"" class=""coveredImage test"" style = ""width:100px; height:100px;position:fixed; top:25%;        transform: translate(-50%, -50%);left:38%""></img><img src=""media/stimuli/inanimate_011_right.png"" class=""coveredImage test"" style = ""width:100px; height:100px;position:fixed; top:25%;        transform: translate(-50%, -50%);left:54.5%""></img><img src=""media/stimuli/inanimate_011_right.png"" class=""coveredImage test"" style = ""width:100px; height:100px;position:fixed; top:25%;        transform: translate(-50%, -50%);left:61.5%""></img><img src=""media/f.png""style = ""width:30px x; height:30px;position:fixed; top:43%;    transform: translate(-50%, -50%);left:40%""></img><img src=""media/j.png""style = ""width:30px; height:30px;position:fixed; top:43%;    transform: translate(-50%, -50%);left:60%""></img>","media/stimuli/inanimate_001_right.png","inanimate","right","pair","media/stimuli/inanimate_001_right.png","inanimate","right","single","media/stimuli/inanimate_011_right.png","inanimate","right","pair","number_identity","","","",""
"","","","","","html-keyboard-response","90","814951","0.0-90.0","SS1678233206766","5c3399d8cb218a000176c6c6","6406d7f26dd5b7fc1e3377bd","6407ce709f0755f289c4c72c","1920","937","","2486","","j","","","<img src=""media/stimuli/animate_004_right.png"" class=""coveredImage test"" style = ""width:100px; height:100px; position:fixed; top:10%;    transform: translate(-50%, -50%);left:44.5%""></img><img src=""media/stimuli/animate_004_right.png"" class=""coveredImage test"" style = ""width:100px; height:100px; position:fixed; top:10%;    transform: translate(-50%, -50%);left:51.5%""></img><img src=""media/stimuli/animate_012_right.png"" class=""coveredImage test"" style = ""width:100px; height:100px;position:fixed; top:25%;        transform: translate(-50%, -50%);left:34.5%""></img><img src=""media/stimuli/animate_012_right.png"" class=""coveredImage test"" style = ""width:100px; height:100px;position:fixed; top:25%;        transform: translate(-50%, -50%);left:41.5%""></img><img src=""media/stimuli/animate_004_right.png"" class=""coveredImage test"" style = ""width:100px; height:100px;position:fixed; top:25%;        transform: translate(-50%, -50%);left:58%""></img><img src=""media/f.png""style = ""width:30px x; height:30px;position:fixed; top:43%;    transform: translate(-50%, -50%);left:40%""></img><img src=""media/j.png""style = ""width:30px; height:30px;position:fixed; top:43%;    transform: translate(-50%, -50%);left:60%""></img>","media/stimuli/animate_004_right.png","animate","right","pair","media/stimuli/animate_012_right.png","animate","right","pair","media/stimuli/animate_004_right.png","animate","right","single","identity_number","","","",""
"","","","","","html-keyboard-response","91","815799","0.0-91.0","SS1678233206766","5c3399d8cb218a000176c6c6","6406d7f26dd5b7fc1e3377bd","6407ce709f0755f289c4c72c","1920","937","","844","","f","","","<img src=""media/stimuli/inanimate_005_left.png"" class=""coveredImage test"" style = ""width:100px; height:100px; position:fixed; top:10%;    transform: translate(-50%, -50%);left:44.5%""></img><img src=""media/stimuli/inanimate_005_left.png"" class=""coveredImage test"" style = ""width:100px; height:100px; position:fixed; top:10%;    transform: translate(-50%, -50%);left:51.5%""></img><img src=""media/stimuli/inanimate_005_left.png"" class=""coveredImage test"" style = ""width:100px; height:100px;position:fixed; top:25%;        transform: translate(-50%, -50%);left:38%""></img><img src=""media/stimuli/animate_002_right.png"" class=""coveredImage test"" style = ""width:100px; height:100px;position:fixed; top:25%;        transform: translate(-50%, -50%);left:58%""></img><img src=""media/f.png""style = ""width:30px x; height:30px;position:fixed; top:43%;    transform: translate(-50%, -50%);left:40%""></img><img src=""media/j.png""style = ""width:30px; height:30px;position:fixed; top:43%;    transform: translate(-50%, -50%);left:60%""></img>","media/stimuli/inanimate_005_left.png","inanimate","left","pair","media/stimuli/inanimate_005_left.png","inanimate","left","single","media/stimuli/animate_002_right.png","animate","right","single","pose_animacy","","","",""
"","","","","","html-keyboard-response","92","817283","0.0-92.0","SS1678233206766","5c3399d8cb218a000176c6c6","6406d7f26dd5b7fc1e3377bd","6407ce709f0755f289c4c72c","1920","937","","1481","","f","","","<img src=""media/stimuli/animate_002_right.png"" class=""coveredImage test"" style = ""width:100px; height:100px; position:fixed; top:10%;    transform: translate(-50%, -50%);left:48%""></img><img src=""media/stimuli/animate_002_right.png"" class=""coveredImage test"" style = ""width:100px; height:100px;position:fixed; top:25%;        transform: translate(-50%, -50%);left:34.5%""></img><img src=""media/stimuli/animate_002_right.png"" class=""coveredImage test"" style = ""width:100px; height:100px;position:fixed; top:25%;        transform: translate(-50%, -50%);left:41.5%""></img><img src=""media/stimuli/animate_002_left.png"" class=""coveredImage test"" style = ""width:100px; height:100px;position:fixed; top:25%;        transform: translate(-50%, -50%);left:58%""></img><img src=""media/f.png""style = ""width:30px x; height:30px;position:fixed; top:43%;    transform: translate(-50%, -50%);left:40%""></img><img src=""media/j.png""style = ""width:30px; height:30px;position:fixed; top:43%;    transform: translate(-50%, -50%);left:60%""></img>","media/stimuli/animate_002_right.png","animate","right","single","media/stimuli/animate_002_right.png","animate","right","pair","media/stimuli/animate_002_left.png","animate","left","single","number_pose","","","",""
"","","","","","html-keyboard-response","93","818743","0.0-93.0","SS1678233206766","5c3399d8cb218a000176c6c6","6406d7f26dd5b7fc1e3377bd","6407ce709f0755f289c4c72c","1920","937","","1456","","j","","","<img src=""media/stimuli/animate_011_right.png"" class=""coveredImage test"" style = ""width:100px; height:100px; position:fixed; top:10%;    transform: translate(-50%, -50%);left:44.5%""></img><img src=""media/stimuli/animate_011_right.png"" class=""coveredImage test"" style = ""width:100px; height:100px; position:fixed; top:10%;    transform: translate(-50%, -50%);left:51.5%""></img><img src=""media/stimuli/inanimate_008_right.png"" class=""coveredImage test"" style = ""width:100px; height:100px;position:fixed; top:25%;        transform: translate(-50%, -50%);left:34.5%""></img><img src=""media/stimuli/inanimate_008_right.png"" class=""coveredImage test"" style = ""width:100px; height:100px;position:fixed; top:25%;        transform: translate(-50%, -50%);left:41.5%""></img><img src=""media/stimuli/animate_011_left.png"" class=""coveredImage test"" style = ""width:100px; height:100px;position:fixed; top:25%;        transform: translate(-50%, -50%);left:54.5%""></img><img src=""media/stimuli/animate_011_left.png"" class=""coveredImage test"" style = ""width:100px; height:100px;position:fixed; top:25%;        transform: translate(-50%, -50%);left:61.5%""></img><img src=""media/f.png""style = ""width:30px x; height:30px;position:fixed; top:43%;    transform: translate(-50%, -50%);left:40%""></img><img src=""media/j.png""style = ""width:30px; height:30px;position:fixed; top:43%;    transform: translate(-50%, -50%);left:60%""></img>","media/stimuli/animate_011_right.png","animate","right","pair","media/stimuli/inanimate_008_right.png","inanimate","right","pair","media/stimuli/animate_011_left.png","animate","left","pair","animacy_pose","","","",""
"","","","","","html-keyboard-response","94","822107","0.0-94.0","SS1678233206766","5c3399d8cb218a000176c6c6","6406d7f26dd5b7fc1e3377bd","6407ce709f0755f289c4c72c","1920","937","","3360","","f","","","<img src=""media/stimuli/inanimate_001_right.png"" class=""coveredImage test"" style = ""width:100px; height:100px; position:fixed; top:10%;    transform: translate(-50%, -50%);left:48%""></img><img src=""media/stimuli/inanimate_001_right.png"" class=""coveredImage test"" style = ""width:100px; height:100px;position:fixed; top:25%;        transform: translate(-50%, -50%);left:34.5%""></img><img src=""media/stimuli/inanimate_001_right.png"" class=""coveredImage test"" style = ""width:100px; height:100px;position:fixed; top:25%;        transform: translate(-50%, -50%);left:41.5%""></img><img src=""media/stimuli/inanimate_001_left.png"" class=""coveredImage test"" style = ""width:100px; height:100px;position:fixed; top:25%;        transform: translate(-50%, -50%);left:58%""></img><img src=""media/f.png""style = ""width:30px x; height:30px;position:fixed; top:43%;    transform: translate(-50%, -50%);left:40%""></img><img src=""media/j.png""style = ""width:30px; height:30px;position:fixed; top:43%;    transform: translate(-50%, -50%);left:60%""></img>","media/stimuli/inanimate_001_right.png","inanimate","right","single","media/stimuli/inanimate_001_right.png","inanimate","right","pair","media/stimuli/inanimate_001_left.png","inanimate","left","single","number_pose","","","",""
"","","","","","html-keyboard-response","95","823663","0.0-95.0","SS1678233206766","5c3399d8cb218a000176c6c6","6406d7f26dd5b7fc1e3377bd","6407ce709f0755f289c4c72c","1920","937","","1554","","j","","","<img src=""media/stimuli/animate_009_right.png"" class=""coveredImage test"" style = ""width:100px; height:100px; position:fixed; top:10%;    transform: translate(-50%, -50%);left:48%""></img><img src=""media/stimuli/animate_009_left.png"" class=""coveredImage test"" style = ""width:100px; height:100px;position:fixed; top:25%;        transform: translate(-50%, -50%);left:38%""></img><img src=""media/stimuli/animate_009_right.png"" class=""coveredImage test"" style = ""width:100px; height:100px;position:fixed; top:25%;        transform: translate(-50%, -50%);left:54.5%""></img><img src=""media/stimuli/animate_009_right.png"" class=""coveredImage test"" style = ""width:100px; height:100px;position:fixed; top:25%;        transform: translate(-50%, -50%);left:61.5%""></img><img src=""media/f.png""style = ""width:30px x; height:30px;position:fixed; top:43%;    transform: translate(-50%, -50%);left:40%""></img><img src=""media/j.png""style = ""width:30px; height:30px;position:fixed; top:43%;    transform: translate(-50%, -50%);left:60%""></img>","media/stimuli/animate_009_right.png","animate","right","single","media/stimuli/animate_009_left.png","animate","left","single","media/stimuli/animate_009_right.png","animate","right","pair","pose_number","","","",""
"","","","","","html-keyboard-response","96","825395","0.0-96.0","SS1678233206766","5c3399d8cb218a000176c6c6","6406d7f26dd5b7fc1e3377bd","6407ce709f0755f289c4c72c","1920","937","","1728","","j","","","<img src=""media/stimuli/animate_004_left.png"" class=""coveredImage test"" style = ""width:100px; height:100px; position:fixed; top:10%;    transform: translate(-50%, -50%);left:48%""></img><img src=""media/stimuli/animate_004_right.png"" class=""coveredImage test"" style = ""width:100px; height:100px;position:fixed; top:25%;        transform: translate(-50%, -50%);left:38%""></img><img src=""media/stimuli/animate_004_left.png"" class=""coveredImage test"" style = ""width:100px; height:100px;position:fixed; top:25%;        transform: translate(-50%, -50%);left:54.5%""></img><img src=""media/stimuli/animate_004_left.png"" class=""coveredImage test"" style = ""width:100px; height:100px;position:fixed; top:25%;        transform: translate(-50%, -50%);left:61.5%""></img><img src=""media/f.png""style = ""width:30px x; height:30px;position:fixed; top:43%;    transform: translate(-50%, -50%);left:40%""></img><img src=""media/j.png""style = ""width:30px; height:30px;position:fixed; top:43%;    transform: translate(-50%, -50%);left:60%""></img>","media/stimuli/animate_004_left.png","animate","left","single","media/stimuli/animate_004_right.png","animate","right","single","media/stimuli/animate_004_left.png","animate","left","pair","pose_number","","","",""
"","","","","","html-keyboard-response","97","826587","0.0-97.0","SS1678233206766","5c3399d8cb218a000176c6c6","6406d7f26dd5b7fc1e3377bd","6407ce709f0755f289c4c72c","1920","937","","1188","","j","","","<img src=""media/stimuli/animate_012_right.png"" class=""coveredImage test"" style = ""width:100px; height:100px; position:fixed; top:10%;    transform: translate(-50%, -50%);left:44.5%""></img><img src=""media/stimuli/animate_012_right.png"" class=""coveredImage test"" style = ""width:100px; height:100px; position:fixed; top:10%;    transform: translate(-50%, -50%);left:51.5%""></img><img src=""media/stimuli/animate_003_right.png"" class=""coveredImage test"" style = ""width:100px; height:100px;position:fixed; top:25%;        transform: translate(-50%, -50%);left:34.5%""></img><img src=""media/stimuli/animate_003_right.png"" class=""coveredImage test"" style = ""width:100px; height:100px;position:fixed; top:25%;        transform: translate(-50%, -50%);left:41.5%""></img><img src=""media/stimuli/animate_012_right.png"" class=""coveredImage test"" style = ""width:100px; height:100px;position:fixed; top:25%;        transform: translate(-50%, -50%);left:58%""></img><img src=""media/f.png""style = ""width:30px x; height:30px;position:fixed; top:43%;    transform: translate(-50%, -50%);left:40%""></img><img src=""media/j.png""style = ""width:30px; height:30px;position:fixed; top:43%;    transform: translate(-50%, -50%);left:60%""></img>","media/stimuli/animate_012_right.png","animate","right","pair","media/stimuli/animate_003_right.png","animate","right","pair","media/stimuli/animate_012_right.png","animate","right","single","identity_number","","","",""
"","","","","","html-keyboard-response","98","827378","0.0-98.0","SS1678233206766","5c3399d8cb218a000176c6c6","6406d7f26dd5b7fc1e3377bd","6407ce709f0755f289c4c72c","1920","937","","788",""," ","","","","","","","","","","","","","","","","","","","",""
"","","","","","html-keyboard-response","99","828554","0.0-99.0","SS1678233206766","5c3399d8cb218a000176c6c6","6406d7f26dd5b7fc1e3377bd","6407ce709f0755f289c4c72c","1920","937","","1173","","j","","","<img src=""media/stimuli/animate_004_right.png"" class=""coveredImage test"" style = ""width:100px; height:100px; position:fixed; top:10%;    transform: translate(-50%, -50%);left:44.5%""></img><img src=""media/stimuli/animate_004_right.png"" class=""coveredImage test"" style = ""width:100px; height:100px; position:fixed; top:10%;    transform: translate(-50%, -50%);left:51.5%""></img><img src=""media/stimuli/animate_009_right.png"" class=""coveredImage test"" style = ""width:100px; height:100px;position:fixed; top:25%;        transform: translate(-50%, -50%);left:34.5%""></img><img src=""media/stimuli/animate_009_right.png"" class=""coveredImage test"" style = ""width:100px; height:100px;position:fixed; top:25%;        transform: translate(-50%, -50%);left:41.5%""></img><img src=""media/stimuli/animate_004_right.png"" class=""coveredImage test"" style = ""width:100px; height:100px;position:fixed; top:25%;        transform: translate(-50%, -50%);left:58%""></img><img src=""media/f.png""style = ""width:30px x; height:30px;position:fixed; top:43%;    transform: translate(-50%, -50%);left:40%""></img><img src=""media/j.png""style = ""width:30px; height:30px;position:fixed; top:43%;    transform: translate(-50%, -50%);left:60%""></img>","media/stimuli/animate_004_right.png","animate","right","pair","media/stimuli/animate_009_right.png","animate","right","pair","media/stimuli/animate_004_right.png","animate","right","single","identity_number","","","",""
"","","","","","html-keyboard-response","100","829635","0.0-100.0","SS1678233206766","5c3399d8cb218a000176c6c6","6406d7f26dd5b7fc1e3377bd","6407ce709f0755f289c4c72c","1920","937","","1077","","f","","","<img src=""media/stimuli/animate_001_right.png"" class=""coveredImage test"" style = ""width:100px; height:100px; position:fixed; top:10%;    transform: translate(-50%, -50%);left:48%""></img><img src=""media/stimuli/animate_001_left.png"" class=""coveredImage test"" style = ""width:100px; height:100px;position:fixed; top:25%;        transform: translate(-50%, -50%);left:38%""></img><img src=""media/stimuli/animate_004_right.png"" class=""coveredImage test"" style = ""width:100px; height:100px;position:fixed; top:25%;        transform: translate(-50%, -50%);left:58%""></img><img src=""media/f.png""style = ""width:30px x; height:30px;position:fixed; top:43%;    transform: translate(-50%, -50%);left:40%""></img><img src=""media/j.png""style = ""width:30px; height:30px;position:fixed; top:43%;    transform: translate(-50%, -50%);left:60%""></img>","media/stimuli/animate_001_right.png","animate","right","single","media/stimuli/animate_001_left.png","animate","left","single","media/stimuli/animate_004_right.png","animate","right","single","pose_identity","","","",""
"","","","","","html-keyboard-response","101","830635","0.0-101.0","SS1678233206766","5c3399d8cb218a000176c6c6","6406d7f26dd5b7fc1e3377bd","6407ce709f0755f289c4c72c","1920","937","","996","","j","","","<img src=""media/stimuli/inanimate_008_left.png"" class=""coveredImage test"" style = ""width:100px; height:100px; position:fixed; top:10%;    transform: translate(-50%, -50%);left:44.5%""></img><img src=""media/stimuli/inanimate_008_left.png"" class=""coveredImage test"" style = ""width:100px; height:100px; position:fixed; top:10%;    transform: translate(-50%, -50%);left:51.5%""></img><img src=""media/stimuli/inanimate_002_left.png"" class=""coveredImage test"" style = ""width:100px; height:100px;position:fixed; top:25%;        transform: translate(-50%, -50%);left:34.5%""></img><img src=""media/stimuli/inanimate_002_left.png"" class=""coveredImage test"" style = ""width:100px; height:100px;position:fixed; top:25%;        transform: translate(-50%, -50%);left:41.5%""></img><img src=""media/stimuli/inanimate_008_left.png"" class=""coveredImage test"" style = ""width:100px; height:100px;position:fixed; top:25%;        transform: translate(-50%, -50%);left:58%""></img><img src=""media/f.png""style = ""width:30px x; height:30px;position:fixed; top:43%;    transform: translate(-50%, -50%);left:40%""></img><img src=""media/j.png""style = ""width:30px; height:30px;position:fixed; top:43%;    transform: translate(-50%, -50%);left:60%""></img>","media/stimuli/inanimate_008_left.png","inanimate","left","pair","media/stimuli/inanimate_002_left.png","inanimate","left","pair","media/stimuli/inanimate_008_left.png","inanimate","left","single","identity_number","","","",""
"","","","","","html-keyboard-response","102","831587","0.0-102.0","SS1678233206766","5c3399d8cb218a000176c6c6","6406d7f26dd5b7fc1e3377bd","6407ce709f0755f289c4c72c","1920","937","","947","","f","","","<img src=""media/stimuli/inanimate_011_right.png"" class=""coveredImage test"" style = ""width:100px; height:100px; position:fixed; top:10%;    transform: translate(-50%, -50%);left:44.5%""></img><img src=""media/stimuli/inanimate_011_right.png"" class=""coveredImage test"" style = ""width:100px; height:100px; position:fixed; top:10%;    transform: translate(-50%, -50%);left:51.5%""></img><img src=""media/stimuli/inanimate_011_right.png"" class=""coveredImage test"" style = ""width:100px; height:100px;position:fixed; top:25%;        transform: translate(-50%, -50%);left:38%""></img><img src=""media/stimuli/animate_009_right.png"" class=""coveredImage test"" style = ""width:100px; height:100px;position:fixed; top:25%;        transform: translate(-50%, -50%);left:54.5%""></img><img src=""media/stimuli/animate_009_right.png"" class=""coveredImage test"" style = ""width:100px; height:100px;position:fixed; top:25%;        transform: translate(-50%, -50%);left:61.5%""></img><img src=""media/f.png""style = ""width:30px x; height:30px;position:fixed; top:43%;    transform: translate(-50%, -50%);left:40%""></img><img src=""media/j.png""style = ""width:30px; height:30px;position:fixed; top:43%;    transform: translate(-50%, -50%);left:60%""></img>","media/stimuli/inanimate_011_right.png","inanimate","right","pair","media/stimuli/inanimate_011_right.png","inanimate","right","single","media/stimuli/animate_009_right.png","animate","right","pair","number_animacy","","","",""
"","","","","","html-keyboard-response","103","832651","0.0-103.0","SS1678233206766","5c3399d8cb218a000176c6c6","6406d7f26dd5b7fc1e3377bd","6407ce709f0755f289c4c72c","1920","937","","1061","","f","","","<img src=""media/stimuli/animate_012_right.png"" class=""coveredImage test"" style = ""width:100px; height:100px; position:fixed; top:10%;    transform: translate(-50%, -50%);left:44.5%""></img><img src=""media/stimuli/animate_012_right.png"" class=""coveredImage test"" style = ""width:100px; height:100px; position:fixed; top:10%;    transform: translate(-50%, -50%);left:51.5%""></img><img src=""media/stimuli/animate_012_right.png"" class=""coveredImage test"" style = ""width:100px; height:100px;position:fixed; top:25%;        transform: translate(-50%, -50%);left:38%""></img><img src=""media/stimuli/animate_004_right.png"" class=""coveredImage test"" style = ""width:100px; height:100px;position:fixed; top:25%;        transform: translate(-50%, -50%);left:54.5%""></img><img src=""media/stimuli/animate_004_right.png"" class=""coveredImage test"" style = ""width:100px; height:100px;position:fixed; top:25%;        transform: translate(-50%, -50%);left:61.5%""></img><img src=""media/f.png""style = ""width:30px x; height:30px;position:fixed; top:43%;    transform: translate(-50%, -50%);left:40%""></img><img src=""media/j.png""style = ""width:30px; height:30px;position:fixed; top:43%;    transform: translate(-50%, -50%);left:60%""></img>","media/stimuli/animate_012_right.png","animate","right","pair","media/stimuli/animate_012_right.png","animate","right","single","media/stimuli/animate_004_right.png","animate","right","pair","number_identity","","","",""
"","","","","","html-keyboard-response","104","833587","0.0-104.0","SS1678233206766","5c3399d8cb218a000176c6c6","6406d7f26dd5b7fc1e3377bd","6407ce709f0755f289c4c72c","1920","937","","932","","f","","","<img src=""media/stimuli/animate_006_left.png"" class=""coveredImage test"" style = ""width:100px; height:100px; position:fixed; top:10%;    transform: translate(-50%, -50%);left:48%""></img><img src=""media/stimuli/animate_006_right.png"" class=""coveredImage test"" style = ""width:100px; height:100px;position:fixed; top:25%;        transform: translate(-50%, -50%);left:38%""></img><img src=""media/stimuli/animate_007_left.png"" class=""coveredImage test"" style = ""width:100px; height:100px;position:fixed; top:25%;        transform: translate(-50%, -50%);left:58%""></img><img src=""media/f.png""style = ""width:30px x; height:30px;position:fixed; top:43%;    transform: translate(-50%, -50%);left:40%""></img><img src=""media/j.png""style = ""width:30px; height:30px;position:fixed; top:43%;    transform: translate(-50%, -50%);left:60%""></img>","media/stimuli/animate_006_left.png","animate","left","single","media/stimuli/animate_006_right.png","animate","right","single","media/stimuli/animate_007_left.png","animate","left","single","pose_identity","","","",""
"","","","","","html-keyboard-response","105","834459","0.0-105.0","SS1678233206766","5c3399d8cb218a000176c6c6","6406d7f26dd5b7fc1e3377bd","6407ce709f0755f289c4c72c","1920","937","","869","","f","","","<img src=""media/stimuli/animate_009_right.png"" class=""coveredImage test"" style = ""width:100px; height:100px; position:fixed; top:10%;    transform: translate(-50%, -50%);left:48%""></img><img src=""media/stimuli/animate_009_right.png"" class=""coveredImage test"" style = ""width:100px; height:100px;position:fixed; top:25%;        transform: translate(-50%, -50%);left:34.5%""></img><img src=""media/stimuli/animate_009_right.png"" class=""coveredImage test"" style = ""width:100px; height:100px;position:fixed; top:25%;        transform: translate(-50%, -50%);left:41.5%""></img><img src=""media/stimuli/inanimate_002_right.png"" class=""coveredImage test"" style = ""width:100px; height:100px;position:fixed; top:25%;        transform: translate(-50%, -50%);left:58%""></img><img src=""media/f.png""style = ""width:30px x; height:30px;position:fixed; top:43%;    transform: translate(-50%, -50%);left:40%""></img><img src=""media/j.png""style = ""width:30px; height:30px;position:fixed; top:43%;    transform: translate(-50%, -50%);left:60%""></img>","media/stimuli/animate_009_right.png","animate","right","single","media/stimuli/animate_009_right.png","animate","right","pair","media/stimuli/inanimate_002_right.png","inanimate","right","single","number_animacy","","","",""
"","","","","","html-keyboard-response","106","835227","0.0-106.0","SS1678233206766","5c3399d8cb218a000176c6c6","6406d7f26dd5b7fc1e3377bd","6407ce709f0755f289c4c72c","1920","937","","764","","j","","","<img src=""media/stimuli/animate_002_right.png"" class=""coveredImage test"" style = ""width:100px; height:100px; position:fixed; top:10%;    transform: translate(-50%, -50%);left:48%""></img><img src=""media/stimuli/animate_004_right.png"" class=""coveredImage test"" style = ""width:100px; height:100px;position:fixed; top:25%;        transform: translate(-50%, -50%);left:38%""></img><img src=""media/stimuli/animate_002_right.png"" class=""coveredImage test"" style = ""width:100px; height:100px;position:fixed; top:25%;        transform: translate(-50%, -50%);left:54.5%""></img><img src=""media/stimuli/animate_002_right.png"" class=""coveredImage test"" style = ""width:100px; height:100px;position:fixed; top:25%;        transform: translate(-50%, -50%);left:61.5%""></img><img src=""media/f.png""style = ""width:30px x; height:30px;position:fixed; top:43%;    transform: translate(-50%, -50%);left:40%""></img><img src=""media/j.png""style = ""width:30px; height:30px;position:fixed; top:43%;    transform: translate(-50%, -50%);left:60%""></img>","media/stimuli/animate_002_right.png","animate","right","single","media/stimuli/animate_004_right.png","animate","right","single","media/stimuli/animate_002_right.png","animate","right","pair","identity_number","","","",""
"","","","","","html-keyboard-response","107","836859","0.0-107.0","SS1678233206766","5c3399d8cb218a000176c6c6","6406d7f26dd5b7fc1e3377bd","6407ce709f0755f289c4c72c","1920","937","","1629","","f","","","<img src=""media/stimuli/inanimate_009_left.png"" class=""coveredImage test"" style = ""width:100px; height:100px; position:fixed; top:10%;    transform: translate(-50%, -50%);left:44.5%""></img><img src=""media/stimuli/inanimate_009_left.png"" class=""coveredImage test"" style = ""width:100px; height:100px; position:fixed; top:10%;    transform: translate(-50%, -50%);left:51.5%""></img><img src=""media/stimuli/inanimate_009_left.png"" class=""coveredImage test"" style = ""width:100px; height:100px;position:fixed; top:25%;        transform: translate(-50%, -50%);left:38%""></img><img src=""media/stimuli/inanimate_009_right.png"" class=""coveredImage test"" style = ""width:100px; height:100px;position:fixed; top:25%;        transform: translate(-50%, -50%);left:54.5%""></img><img src=""media/stimuli/inanimate_009_right.png"" class=""coveredImage test"" style = ""width:100px; height:100px;position:fixed; top:25%;        transform: translate(-50%, -50%);left:61.5%""></img><img src=""media/f.png""style = ""width:30px x; height:30px;position:fixed; top:43%;    transform: translate(-50%, -50%);left:40%""></img><img src=""media/j.png""style = ""width:30px; height:30px;position:fixed; top:43%;    transform: translate(-50%, -50%);left:60%""></img>","media/stimuli/inanimate_009_left.png","inanimate","left","pair","media/stimuli/inanimate_009_left.png","inanimate","left","single","media/stimuli/inanimate_009_right.png","inanimate","right","pair","number_pose","","","",""
"","","","","","html-keyboard-response","108","840555","0.0-108.0","SS1678233206766","5c3399d8cb218a000176c6c6","6406d7f26dd5b7fc1e3377bd","6407ce709f0755f289c4c72c","1920","937","","3692","","f","","","<img src=""media/stimuli/animate_003_left.png"" class=""coveredImage test"" style = ""width:100px; height:100px; position:fixed; top:10%;    transform: translate(-50%, -50%);left:44.5%""></img><img src=""media/stimuli/animate_003_left.png"" class=""coveredImage test"" style = ""width:100px; height:100px; position:fixed; top:10%;    transform: translate(-50%, -50%);left:51.5%""></img><img src=""media/stimuli/animate_001_left.png"" class=""coveredImage test"" style = ""width:100px; height:100px;position:fixed; top:25%;        transform: translate(-50%, -50%);left:34.5%""></img><img src=""media/stimuli/animate_001_left.png"" class=""coveredImage test"" style = ""width:100px; height:100px;position:fixed; top:25%;        transform: translate(-50%, -50%);left:41.5%""></img><img src=""media/stimuli/inanimate_006_left.png"" class=""coveredImage test"" style = ""width:100px; height:100px;position:fixed; top:25%;        transform: translate(-50%, -50%);left:54.5%""></img><img src=""media/stimuli/inanimate_006_left.png"" class=""coveredImage test"" style = ""width:100px; height:100px;position:fixed; top:25%;        transform: translate(-50%, -50%);left:61.5%""></img><img src=""media/f.png""style = ""width:30px x; height:30px;position:fixed; top:43%;    transform: translate(-50%, -50%);left:40%""></img><img src=""media/j.png""style = ""width:30px; height:30px;position:fixed; top:43%;    transform: translate(-50%, -50%);left:60%""></img>","media/stimuli/animate_003_left.png","animate","left","pair","media/stimuli/animate_001_left.png","animate","left","pair","media/stimuli/inanimate_006_left.png","inanimate","left","pair","identity_animacy","","","",""
"","","","","","html-keyboard-response","109","841754","0.0-109.0","SS1678233206766","5c3399d8cb218a000176c6c6","6406d7f26dd5b7fc1e3377bd","6407ce709f0755f289c4c72c","1920","937","","1196","","f","","","<img src=""media/stimuli/animate_008_left.png"" class=""coveredImage test"" style = ""width:100px; height:100px; position:fixed; top:10%;    transform: translate(-50%, -50%);left:48%""></img><img src=""media/stimuli/animate_008_left.png"" class=""coveredImage test"" style = ""width:100px; height:100px;position:fixed; top:25%;        transform: translate(-50%, -50%);left:34.5%""></img><img src=""media/stimuli/animate_008_left.png"" class=""coveredImage test"" style = ""width:100px; height:100px;position:fixed; top:25%;        transform: translate(-50%, -50%);left:41.5%""></img><img src=""media/stimuli/inanimate_007_left.png"" class=""coveredImage test"" style = ""width:100px; height:100px;position:fixed; top:25%;        transform: translate(-50%, -50%);left:58%""></img><img src=""media/f.png""style = ""width:30px x; height:30px;position:fixed; top:43%;    transform: translate(-50%, -50%);left:40%""></img><img src=""media/j.png""style = ""width:30px; height:30px;position:fixed; top:43%;    transform: translate(-50%, -50%);left:60%""></img>","media/stimuli/animate_008_left.png","animate","left","single","media/stimuli/animate_008_left.png","animate","left","pair","media/stimuli/inanimate_007_left.png","inanimate","left","single","number_animacy","","","",""
"","","","","","html-keyboard-response","110","843251","0.0-110.0","SS1678233206766","5c3399d8cb218a000176c6c6","6406d7f26dd5b7fc1e3377bd","6407ce709f0755f289c4c72c","1920","937","","1493","","f","","","<img src=""media/stimuli/inanimate_010_left.png"" class=""coveredImage test"" style = ""width:100px; height:100px; position:fixed; top:10%;    transform: translate(-50%, -50%);left:48%""></img><img src=""media/stimuli/inanimate_010_right.png"" class=""coveredImage test"" style = ""width:100px; height:100px;position:fixed; top:25%;        transform: translate(-50%, -50%);left:38%""></img><img src=""media/stimuli/inanimate_008_left.png"" class=""coveredImage test"" style = ""width:100px; height:100px;position:fixed; top:25%;        transform: translate(-50%, -50%);left:58%""></img><img src=""media/f.png""style = ""width:30px x; height:30px;position:fixed; top:43%;    transform: translate(-50%, -50%);left:40%""></img><img src=""media/j.png""style = ""width:30px; height:30px;position:fixed; top:43%;    transform: translate(-50%, -50%);left:60%""></img>","media/stimuli/inanimate_010_left.png","inanimate","left","single","media/stimuli/inanimate_010_right.png","inanimate","right","single","media/stimuli/inanimate_008_left.png","inanimate","left","single","pose_identity","","","",""
"","","","","","html-keyboard-response","111","844183","0.0-111.0","SS1678233206766","5c3399d8cb218a000176c6c6","6406d7f26dd5b7fc1e3377bd","6407ce709f0755f289c4c72c","1920","937","","928",""," ","","","","","","","","","","","","","","","","","","","",""
"","","","","","html-keyboard-response","112","847139","0.0-112.0","SS1678233206766","5c3399d8cb218a000176c6c6","6406d7f26dd5b7fc1e3377bd","6407ce709f0755f289c4c72c","1920","937","","2952","","j","","","<img src=""media/stimuli/animate_008_left.png"" class=""coveredImage test"" style = ""width:100px; height:100px; position:fixed; top:10%;    transform: translate(-50%, -50%);left:48%""></img><img src=""media/stimuli/inanimate_011_left.png"" class=""coveredImage test"" style = ""width:100px; height:100px;position:fixed; top:25%;        transform: translate(-50%, -50%);left:38%""></img><img src=""media/stimuli/animate_010_left.png"" class=""coveredImage test"" style = ""width:100px; height:100px;position:fixed; top:25%;        transform: translate(-50%, -50%);left:58%""></img><img src=""media/f.png""style = ""width:30px x; height:30px;position:fixed; top:43%;    transform: translate(-50%, -50%);left:40%""></img><img src=""media/j.png""style = ""width:30px; height:30px;position:fixed; top:43%;    transform: translate(-50%, -50%);left:60%""></img>","media/stimuli/animate_008_left.png","animate","left","single","media/stimuli/inanimate_011_left.png","inanimate","left","single","media/stimuli/animate_010_left.png","animate","left","single","animacy_identity","","","",""
"","","","","","html-keyboard-response","113","848611","0.0-113.0","SS1678233206766","5c3399d8cb218a000176c6c6","6406d7f26dd5b7fc1e3377bd","6407ce709f0755f289c4c72c","1920","937","","1468","","j","","","<img src=""media/stimuli/animate_012_right.png"" class=""coveredImage test"" style = ""width:100px; height:100px; position:fixed; top:10%;    transform: translate(-50%, -50%);left:44.5%""></img><img src=""media/stimuli/animate_012_right.png"" class=""coveredImage test"" style = ""width:100px; height:100px; position:fixed; top:10%;    transform: translate(-50%, -50%);left:51.5%""></img><img src=""media/stimuli/animate_012_right.png"" class=""coveredImage test"" style = ""width:100px; height:100px;position:fixed; top:25%;        transform: translate(-50%, -50%);left:38%""></img><img src=""media/stimuli/animate_012_left.png"" class=""coveredImage test"" style = ""width:100px; height:100px;position:fixed; top:25%;        transform: translate(-50%, -50%);left:54.5%""></img><img src=""media/stimuli/animate_012_left.png"" class=""coveredImage test"" style = ""width:100px; height:100px;position:fixed; top:25%;        transform: translate(-50%, -50%);left:61.5%""></img><img src=""media/f.png""style = ""width:30px x; height:30px;position:fixed; top:43%;    transform: translate(-50%, -50%);left:40%""></img><img src=""media/j.png""style = ""width:30px; height:30px;position:fixed; top:43%;    transform: translate(-50%, -50%);left:60%""></img>","media/stimuli/animate_012_right.png","animate","right","pair","media/stimuli/animate_012_right.png","animate","right","single","media/stimuli/animate_012_left.png","animate","left","pair","number_pose","","","",""
"","","","","","html-keyboard-response","114","849578","0.0-114.0","SS1678233206766","5c3399d8cb218a000176c6c6","6406d7f26dd5b7fc1e3377bd","6407ce709f0755f289c4c72c","1920","937","","964","","j","","","<img src=""media/stimuli/animate_003_left.png"" class=""coveredImage test"" style = ""width:100px; height:100px; position:fixed; top:10%;    transform: translate(-50%, -50%);left:48%""></img><img src=""media/stimuli/inanimate_008_right.png"" class=""coveredImage test"" style = ""width:100px; height:100px;position:fixed; top:25%;        transform: translate(-50%, -50%);left:38%""></img><img src=""media/stimuli/animate_003_left.png"" class=""coveredImage test"" style = ""width:100px; height:100px;position:fixed; top:25%;        transform: translate(-50%, -50%);left:58%""></img><img src=""media/f.png""style = ""width:30px x; height:30px;position:fixed; top:43%;    transform: translate(-50%, -50%);left:40%""></img><img src=""media/j.png""style = ""width:30px; height:30px;position:fixed; top:43%;    transform: translate(-50%, -50%);left:60%""></img>","media/stimuli/animate_003_left.png","animate","left","single","media/stimuli/inanimate_008_right.png","inanimate","right","single","media/stimuli/animate_003_left.png","animate","left","single","animacy_pose","","","",""
