"success","timeout","failed_images","failed_audio","failed_video","trial_type","trial_index","time_elapsed","internal_node_id","subject","prolific_id","study","session","window_width","window_height","view_history","rt","stimulus_type","response","question_order","rating_type","rating_stimulus","rating_animacy","rating_number","rating_pose","stimulus","target","target_animacy","target_pose","target_number","left","left_animacy","left_pose","left_number","right","right_animacy","right_pose","right_number","comparison_type"
"true","false","[]","[]","[]","preload","0","3163","0.0-0.0","SS1678233203929","5ca3d57fa29412001687031e","6406d7f26dd5b7fc1e3377bd","6407ce6df4c0c80d9bf19b5e","1920","972","","","","","","","","","","","","","","","","","","","","","","","",""
"","","","","","instructions","1","46094","0.0-1.0","SS1678233203929","5ca3d57fa29412001687031e","6406d7f26dd5b7fc1e3377bd","6407ce6df4c0c80d9bf19b5e","1920","972","[{""page_index"":0,""viewing_time"":42926}]","42927","","","","","","","","","","","","","","","","","","","","","",""
"","","","","","instructions","2","94079","0.0-2.0","SS1678233203929","5ca3d57fa29412001687031e","6406d7f26dd5b7fc1e3377bd","6407ce6df4c0c80d9bf19b5e","1920","972","[{""page_index"":0,""viewing_time"":45974}]","45976","instructions","","","","","","","","","","","","","","","","","","","","",""
"","","","","","instructions","3","97973","0.0-3.0","SS1678233203929","5ca3d57fa29412001687031e","6406d7f26dd5b7fc1e3377bd","6407ce6df4c0c80d9bf19b5e","1920","972","[{""page_index"":0,""viewing_time"":3890}]","3891","instructions","","","","","","","","","","","","","","","","","","","","",""
"","","","","","survey-likert","4","118184","0.0-4.0","SS1678233203929","5ca3d57fa29412001687031e","6406d7f26dd5b7fc1e3377bd","6407ce6df4c0c80d9bf19b5e","1920","972","","20203","","{""Q0"":1}","[0]","anchoring","","","","","","","","","","","","","","","","","",""
"","","","","","survey-likert","5","130408","0.0-5.0","SS1678233203929","5ca3d57fa29412001687031e","6406d7f26dd5b7fc1e3377bd","6407ce6df4c0c80d9bf19b5e","1920","972","","12209","","{""Q0"":1}","[0]","anchoring","","","","","","","","","","","","","","","","","",""
"","","","","","instructions","6","133204","0.0-6.0","SS1678233203929","5ca3d57fa29412001687031e","6406d7f26dd5b7fc1e3377bd","6407ce6df4c0c80d9bf19b5e","1920","972","[{""page_index"":0,""viewing_time"":2785}]","2786","instructions","","","","","","","","","","","","","","","","","","","","",""
"true","","","","","fullscreen","7","136719","0.0-7.0","SS1678233203929","5ca3d57fa29412001687031e","6406d7f26dd5b7fc1e3377bd","6407ce6df4c0c80d9bf19b5e","1920","972","","","","","","","","","","","","","","","","","","","","","","","",""
"","","","","","survey-likert","8","147993","0.0-8.0","SS1678233203929","5ca3d57fa29412001687031e","6406d7f26dd5b7fc1e3377bd","6407ce6df4c0c80d9bf19b5e","1920","972","","11267","","{""Q0"":1}","[0]","complexity","media/stimuli/animate_008_left.png","animate","pair","left","","","","","","","","","","","","","",""
"","","","","","survey-likert","9","155404","0.0-9.0","SS1678233203929","5ca3d57fa29412001687031e","6406d7f26dd5b7fc1e3377bd","6407ce6df4c0c80d9bf19b5e","1920","972","","7394","","{""Q0"":1}","[0]","complexity","media/stimuli/inanimate_002_right.png","inanimate","pair","right","","","","","","","","","","","","","",""
"","","","","","survey-likert","10","162512","0.0-10.0","SS1678233203929","5ca3d57fa29412001687031e","6406d7f26dd5b7fc1e3377bd","6407ce6df4c0c80d9bf19b5e","1920","972","","7092","","{""Q0"":2}","[0]","complexity","media/stimuli/animate_012_right.png","animate","single","right","","","","","","","","","","","","","",""
"","","","","","survey-likert","11","168550","0.0-11.0","SS1678233203929","5ca3d57fa29412001687031e","6406d7f26dd5b7fc1e3377bd","6407ce6df4c0c80d9bf19b5e","1920","972","","6023","","{""Q0"":2}","[0]","complexity","media/stimuli/animate_010_right.png","animate","pair","right","","","","","","","","","","","","","",""
"","","","","","survey-likert","12","174216","0.0-12.0","SS1678233203929","5ca3d57fa29412001687031e","6406d7f26dd5b7fc1e3377bd","6407ce6df4c0c80d9bf19b5e","1920","972","","5648","","{""Q0"":2}","[0]","complexity","media/stimuli/inanimate_010_left.png","inanimate","pair","left","","","","","","","","","","","","","",""
"","","","","","survey-likert","13","179218","0.0-13.0","SS1678233203929","5ca3d57fa29412001687031e","6406d7f26dd5b7fc1e3377bd","6407ce6df4c0c80d9bf19b5e","1920","972","","4996","","{""Q0"":2}","[0]","complexity","media/stimuli/animate_005_left.png","animate","pair","left","","","","","","","","","","","","","",""
"","","","","","survey-likert","14","185671","0.0-14.0","SS1678233203929","5ca3d57fa29412001687031e","6406d7f26dd5b7fc1e3377bd","6407ce6df4c0c80d9bf19b5e","1920","972","","6438","","{""Q0"":2}","[0]","complexity","media/stimuli/animate_007_right.png","animate","pair","right","","","","","","","","","","","","","",""
"","","","","","survey-likert","15","198549","0.0-15.0","SS1678233203929","5ca3d57fa29412001687031e","6406d7f26dd5b7fc1e3377bd","6407ce6df4c0c80d9bf19b5e","1920","972","","12860","","{""Q0"":3}","[0]","complexity","media/stimuli/animate_004_right.png","animate","single","right","","","","","","","","","","","","","",""
"","","","","","survey-likert","16","203636","0.0-16.0","SS1678233203929","5ca3d57fa29412001687031e","6406d7f26dd5b7fc1e3377bd","6407ce6df4c0c80d9bf19b5e","1920","972","","5071","","{""Q0"":3}","[0]","complexity","media/stimuli/inanimate_011_right.png","inanimate","pair","right","","","","","","","","","","","","","",""
"","","","","","survey-likert","17","208092","0.0-17.0","SS1678233203929","5ca3d57fa29412001687031e","6406d7f26dd5b7fc1e3377bd","6407ce6df4c0c80d9bf19b5e","1920","972","","4434","","{""Q0"":3}","[0]","complexity","media/stimuli/animate_003_left.png","animate","pair","left","","","","","","","","","","","","","",""
"","","","","","survey-likert","18","214182","0.0-18.0","SS1678233203929","5ca3d57fa29412001687031e","6406d7f26dd5b7fc1e3377bd","6407ce6df4c0c80d9bf19b5e","1920","972","","6074","","{""Q0"":3}","[0]","complexity","media/stimuli/animate_005_right.png","animate","single","right","","","","","","","","","","","","","",""
"","","","","","survey-likert","19","219331","0.0-19.0","SS1678233203929","5ca3d57fa29412001687031e","6406d7f26dd5b7fc1e3377bd","6407ce6df4c0c80d9bf19b5e","1920","972","","5130","","{""Q0"":3}","[0]","complexity","media/stimuli/inanimate_009_right.png","inanimate","pair","right","","","","","","","","","","","","","",""
"","","","","","html-keyboard-response","20","223842","0.0-20.0","SS1678233203929","5ca3d57fa29412001687031e","6406d7f26dd5b7fc1e3377bd","6407ce6df4c0c80d9bf19b5e","1920","972","","4491",""," ","","","","","","","","","","","","","","","","","","","",""
"","","","","","survey-likert","21","229163","0.0-21.0","SS1678233203929","5ca3d57fa29412001687031e","6406d7f26dd5b7fc1e3377bd","6407ce6df4c0c80d9bf19b5e","1920","972","","5315","","{""Q0"":3}","[0]","complexity","media/stimuli/animate_008_right.png","animate","pair","right","","","","","","","","","","","","","",""
"","","","","","survey-likert","22","248818","0.0-22.0","SS1678233203929","5ca3d57fa29412001687031e","6406d7f26dd5b7fc1e3377bd","6407ce6df4c0c80d9bf19b5e","1920","972","","19639","","{""Q0"":3}","[0]","complexity","media/stimuli/inanimate_009_left.png","inanimate","single","left","","","","","","","","","","","","","",""
"","","","","","survey-likert","23","251764","0.0-23.0","SS1678233203929","5ca3d57fa29412001687031e","6406d7f26dd5b7fc1e3377bd","6407ce6df4c0c80d9bf19b5e","1920","972","","2927","","{""Q0"":3}","[0]","complexity","media/stimuli/animate_004_left.png","animate","pair","left","","","","","","","","","","","","","",""
"","","","","","survey-likert","24","257574","0.0-24.0","SS1678233203929","5ca3d57fa29412001687031e","6406d7f26dd5b7fc1e3377bd","6407ce6df4c0c80d9bf19b5e","1920","972","","5795","","{""Q0"":3}","[0]","complexity","media/stimuli/animate_006_right.png","animate","single","right","","","","","","","","","","","","","",""
"","","","","","survey-likert","25","260780","0.0-25.0","SS1678233203929","5ca3d57fa29412001687031e","6406d7f26dd5b7fc1e3377bd","6407ce6df4c0c80d9bf19b5e","1920","972","","3188","","{""Q0"":3}","[0]","complexity","media/stimuli/animate_005_right.png","animate","pair","right","","","","","","","","","","","","","",""
"","","","","","survey-likert","26","264218","0.0-26.0","SS1678233203929","5ca3d57fa29412001687031e","6406d7f26dd5b7fc1e3377bd","6407ce6df4c0c80d9bf19b5e","1920","972","","3429","","{""Q0"":3}","[0]","complexity","media/stimuli/animate_001_left.png","animate","single","left","","","","","","","","","","","","","",""
"","","","","","survey-likert","27","268331","0.0-27.0","SS1678233203929","5ca3d57fa29412001687031e","6406d7f26dd5b7fc1e3377bd","6407ce6df4c0c80d9bf19b5e","1920","972","","4092","","{""Q0"":3}","[0]","complexity","media/stimuli/inanimate_003_left.png","inanimate","pair","left","","","","","","","","","","","","","",""
"","","","","","survey-likert","28","272005","0.0-28.0","SS1678233203929","5ca3d57fa29412001687031e","6406d7f26dd5b7fc1e3377bd","6407ce6df4c0c80d9bf19b5e","1920","972","","3650","","{""Q0"":3}","[0]","complexity","media/stimuli/inanimate_007_right.png","inanimate","pair","right","","","","","","","","","","","","","",""
"","","","","","survey-likert","29","276716","0.0-29.0","SS1678233203929","5ca3d57fa29412001687031e","6406d7f26dd5b7fc1e3377bd","6407ce6df4c0c80d9bf19b5e","1920","972","","4695","","{""Q0"":3}","[0]","complexity","media/stimuli/inanimate_001_right.png","inanimate","single","right","","","","","","","","","","","","","",""
"","","","","","survey-likert","30","297845","0.0-30.0","SS1678233203929","5ca3d57fa29412001687031e","6406d7f26dd5b7fc1e3377bd","6407ce6df4c0c80d9bf19b5e","1920","972","","21109","","{""Q0"":3}","[0]","complexity","media/stimuli/inanimate_006_left.png","inanimate","pair","left","","","","","","","","","","","","","",""
"","","","","","survey-likert","31","301677","0.0-31.0","SS1678233203929","5ca3d57fa29412001687031e","6406d7f26dd5b7fc1e3377bd","6407ce6df4c0c80d9bf19b5e","1920","972","","3812","","{""Q0"":3}","[0]","complexity","media/stimuli/inanimate_009_left.png","inanimate","pair","left","","","","","","","","","","","","","",""
"","","","","","survey-likert","32","305926","0.0-32.0","SS1678233203929","5ca3d57fa29412001687031e","6406d7f26dd5b7fc1e3377bd","6407ce6df4c0c80d9bf19b5e","1920","972","","4229","","{""Q0"":3}","[0]","complexity","media/stimuli/inanimate_012_right.png","inanimate","pair","right","","","","","","","","","","","","","",""
"","","","","","html-keyboard-response","33","310887","0.0-33.0","SS1678233203929","5ca3d57fa29412001687031e","6406d7f26dd5b7fc1e3377bd","6407ce6df4c0c80d9bf19b5e","1920","972","","4944",""," ","","","","","","","","","","","","","","","","","","","",""
"","","","","","survey-likert","34","315840","0.0-34.0","SS1678233203929","5ca3d57fa29412001687031e","6406d7f26dd5b7fc1e3377bd","6407ce6df4c0c80d9bf19b5e","1920","972","","4948","","{""Q0"":3}","[0]","complexity","media/stimuli/inanimate_004_right.png","inanimate","pair","right","","","","","","","","","","","","","",""
"","","","","","survey-likert","35","319823","0.0-35.0","SS1678233203929","5ca3d57fa29412001687031e","6406d7f26dd5b7fc1e3377bd","6407ce6df4c0c80d9bf19b5e","1920","972","","3962","","{""Q0"":3}","[0]","complexity","media/stimuli/animate_006_left.png","animate","single","left","","","","","","","","","","","","","",""
"","","","","","survey-likert","36","323777","0.0-36.0","SS1678233203929","5ca3d57fa29412001687031e","6406d7f26dd5b7fc1e3377bd","6407ce6df4c0c80d9bf19b5e","1920","972","","3934","","{""Q0"":3}","[0]","complexity","media/stimuli/animate_010_left.png","animate","pair","left","","","","","","","","","","","","","",""
"","","","","","survey-likert","37","328224","0.0-37.0","SS1678233203929","5ca3d57fa29412001687031e","6406d7f26dd5b7fc1e3377bd","6407ce6df4c0c80d9bf19b5e","1920","972","","4433","","{""Q0"":3}","[0]","complexity","media/stimuli/animate_001_left.png","animate","pair","left","","","","","","","","","","","","","",""
"","","","","","survey-likert","38","331611","0.0-38.0","SS1678233203929","5ca3d57fa29412001687031e","6406d7f26dd5b7fc1e3377bd","6407ce6df4c0c80d9bf19b5e","1920","972","","3370","","{""Q0"":3}","[0]","complexity","media/stimuli/inanimate_005_right.png","inanimate","single","right","","","","","","","","","","","","","",""
"","","","","","survey-likert","39","334643","0.0-39.0","SS1678233203929","5ca3d57fa29412001687031e","6406d7f26dd5b7fc1e3377bd","6407ce6df4c0c80d9bf19b5e","1920","972","","3005","","{""Q0"":3}","[0]","complexity","media/stimuli/animate_003_left.png","animate","single","left","","","","","","","","","","","","","",""
"","","","","","survey-likert","40","337960","0.0-40.0","SS1678233203929","5ca3d57fa29412001687031e","6406d7f26dd5b7fc1e3377bd","6407ce6df4c0c80d9bf19b5e","1920","972","","3298","","{""Q0"":3}","[0]","complexity","media/stimuli/inanimate_010_left.png","inanimate","single","left","","","","","","","","","","","","","",""
"","","","","","survey-likert","41","340691","0.0-41.0","SS1678233203929","5ca3d57fa29412001687031e","6406d7f26dd5b7fc1e3377bd","6407ce6df4c0c80d9bf19b5e","1920","972","","2708","","{""Q0"":3}","[0]","complexity","media/stimuli/animate_009_right.png","animate","single","right","","","","","","","","","","","","","",""
"","","","","","survey-likert","42","346334","0.0-42.0","SS1678233203929","5ca3d57fa29412001687031e","6406d7f26dd5b7fc1e3377bd","6407ce6df4c0c80d9bf19b5e","1920","972","","5624","","{""Q0"":3}","[0]","complexity","media/stimuli/animate_007_left.png","animate","single","left","","","","","","","","","","","","","",""
"","","","","","survey-likert","43","349980","0.0-43.0","SS1678233203929","5ca3d57fa29412001687031e","6406d7f26dd5b7fc1e3377bd","6407ce6df4c0c80d9bf19b5e","1920","972","","3624","","{""Q0"":3}","[0]","complexity","media/stimuli/animate_002_left.png","animate","single","left","","","","","","","","","","","","","",""
"","","","","","survey-likert","44","352810","0.0-44.0","SS1678233203929","5ca3d57fa29412001687031e","6406d7f26dd5b7fc1e3377bd","6407ce6df4c0c80d9bf19b5e","1920","972","","2810","","{""Q0"":3}","[0]","complexity","media/stimuli/inanimate_005_left.png","inanimate","single","left","","","","","","","","","","","","","",""
"","","","","","survey-likert","45","355866","0.0-45.0","SS1678233203929","5ca3d57fa29412001687031e","6406d7f26dd5b7fc1e3377bd","6407ce6df4c0c80d9bf19b5e","1920","972","","3040","","{""Q0"":3}","[0]","complexity","media/stimuli/inanimate_008_right.png","inanimate","pair","right","","","","","","","","","","","","","",""
"","","","","","html-keyboard-response","46","357909","0.0-46.0","SS1678233203929","5ca3d57fa29412001687031e","6406d7f26dd5b7fc1e3377bd","6407ce6df4c0c80d9bf19b5e","1920","972","","2028",""," ","","","","","","","","","","","","","","","","","","","",""
"","","","","","survey-likert","47","367221","0.0-47.0","SS1678233203929","5ca3d57fa29412001687031e","6406d7f26dd5b7fc1e3377bd","6407ce6df4c0c80d9bf19b5e","1920","972","","9307","","{""Q0"":4}","[0]","complexity","media/stimuli/inanimate_012_right.png","inanimate","single","right","","","","","","","","","","","","","",""
"","","","","","survey-likert","48","370550","0.0-48.0","SS1678233203929","5ca3d57fa29412001687031e","6406d7f26dd5b7fc1e3377bd","6407ce6df4c0c80d9bf19b5e","1920","972","","3309","","{""Q0"":4}","[0]","complexity","media/stimuli/inanimate_001_right.png","inanimate","pair","right","","","","","","","","","","","","","",""
"","","","","","survey-likert","49","373317","0.0-49.0","SS1678233203929","5ca3d57fa29412001687031e","6406d7f26dd5b7fc1e3377bd","6407ce6df4c0c80d9bf19b5e","1920","972","","2749","","{""Q0"":4}","[0]","complexity","media/stimuli/inanimate_002_left.png","inanimate","single","left","","","","","","","","","","","","","",""
"","","","","","survey-likert","50","376703","0.0-50.0","SS1678233203929","5ca3d57fa29412001687031e","6406d7f26dd5b7fc1e3377bd","6407ce6df4c0c80d9bf19b5e","1920","972","","3366","","{""Q0"":4}","[0]","complexity","media/stimuli/inanimate_008_left.png","inanimate","single","left","","","","","","","","","","","","","",""
"","","","","","survey-likert","51","380395","0.0-51.0","SS1678233203929","5ca3d57fa29412001687031e","6406d7f26dd5b7fc1e3377bd","6407ce6df4c0c80d9bf19b5e","1920","972","","3682","","{""Q0"":4}","[0]","complexity","media/stimuli/inanimate_006_right.png","inanimate","single","right","","","","","","","","","","","","","",""
"","","","","","survey-likert","52","386228","0.0-52.0","SS1678233203929","5ca3d57fa29412001687031e","6406d7f26dd5b7fc1e3377bd","6407ce6df4c0c80d9bf19b5e","1920","972","","5808","","{""Q0"":4}","[0]","complexity","media/stimuli/animate_011_left.png","animate","pair","left","","","","","","","","","","","","","",""
"","","","","","survey-likert","53","389122","0.0-53.0","SS1678233203929","5ca3d57fa29412001687031e","6406d7f26dd5b7fc1e3377bd","6407ce6df4c0c80d9bf19b5e","1920","972","","2876","","{""Q0"":4}","[0]","complexity","media/stimuli/inanimate_004_right.png","inanimate","single","right","","","","","","","","","","","","","",""
"","","","","","survey-likert","54","392795","0.0-54.0","SS1678233203929","5ca3d57fa29412001687031e","6406d7f26dd5b7fc1e3377bd","6407ce6df4c0c80d9bf19b5e","1920","972","","3654","","{""Q0"":4}","[0]","complexity","media/stimuli/animate_009_right.png","animate","pair","right","","","","","","","","","","","","","",""
"","","","","","survey-likert","55","397149","0.0-55.0","SS1678233203929","5ca3d57fa29412001687031e","6406d7f26dd5b7fc1e3377bd","6407ce6df4c0c80d9bf19b5e","1920","972","","4337","","{""Q0"":4}","[0]","complexity","media/stimuli/animate_011_right.png","animate","pair","right","","","","","","","","","","","","","",""
"","","","","","survey-likert","56","400626","0.0-56.0","SS1678233203929","5ca3d57fa29412001687031e","6406d7f26dd5b7fc1e3377bd","6407ce6df4c0c80d9bf19b5e","1920","972","","3457","","{""Q0"":4}","[0]","complexity","media/stimuli/inanimate_011_left.png","inanimate","pair","left","","","","","","","","","","","","","",""
"","","","","","survey-likert","57","403771","0.0-57.0","SS1678233203929","5ca3d57fa29412001687031e","6406d7f26dd5b7fc1e3377bd","6407ce6df4c0c80d9bf19b5e","1920","972","","3121","","{""Q0"":4}","[0]","complexity","media/stimuli/animate_002_right.png","animate","single","right","","","","","","","","","","","","","",""
"","","","","","survey-likert","58","407033","0.0-58.0","SS1678233203929","5ca3d57fa29412001687031e","6406d7f26dd5b7fc1e3377bd","6407ce6df4c0c80d9bf19b5e","1920","972","","3241","","{""Q0"":4}","[0]","complexity","media/stimuli/inanimate_009_right.png","inanimate","single","right","","","","","","","","","","","","","",""
"","","","","","html-keyboard-response","59","408511","0.0-59.0","SS1678233203929","5ca3d57fa29412001687031e","6406d7f26dd5b7fc1e3377bd","6407ce6df4c0c80d9bf19b5e","1920","972","","1456",""," ","","","","","","","","","","","","","","","","","","","",""
"","","","","","html-keyboard-response","60","416420","0.0-60.0","SS1678233203929","5ca3d57fa29412001687031e","6406d7f26dd5b7fc1e3377bd","6407ce6df4c0c80d9bf19b5e","1920","972","","7903","","j","","","","","","","<img src=""media/stimuli/animate_004_right.png"" class=""coveredImage test"" style = ""width:100px; height:100px; position:fixed; top:10%;    transform: translate(-50%, -50%);left:44.5%""></img><img src=""media/stimuli/animate_004_right.png"" class=""coveredImage test"" style = ""width:100px; height:100px; position:fixed; top:10%;    transform: translate(-50%, -50%);left:51.5%""></img><img src=""media/stimuli/animate_002_right.png"" class=""coveredImage test"" style = ""width:100px; height:100px;position:fixed; top:25%;        transform: translate(-50%, -50%);left:34.5%""></img><img src=""media/stimuli/animate_002_right.png"" class=""coveredImage test"" style = ""width:100px; height:100px;position:fixed; top:25%;        transform: translate(-50%, -50%);left:41.5%""></img><img src=""media/stimuli/animate_004_left.png"" class=""coveredImage test"" style = ""width:100px; height:100px;position:fixed; top:25%;        transform: translate(-50%, -50%);left:54.5%""></img><img src=""media/stimuli/animate_004_left.png"" class=""coveredImage test"" style = ""width:100px; height:100px;position:fixed; top:25%;        transform: translate(-50%, -50%);left:61.5%""></img><img src=""media/f.png""style = ""width:30px x; height:30px;position:fixed; top:43%;    transform: translate(-50%, -50%);left:40%""></img><img src=""media/j.png""style = ""width:30px; height:30px;position:fixed; top:43%;    transform: translate(-50%, -50%);left:60%""></img>","media/stimuli/animate_004_right.png","animate","right","pair","media/stimuli/animate_002_right.png","animate","right","pair","media/stimuli/animate_004_left.png","animate","left","pair","identity_pose"
"","","","","","html-keyboard-response","61","432818","0.0-61.0","SS1678233203929","5ca3d57fa29412001687031e","6406d7f26dd5b7fc1e3377bd","6407ce6df4c0c80d9bf19b5e","1920","972","","16386","","f","","","","","","","<img src=""media/stimuli/inanimate_006_left.png"" class=""coveredImage test"" style = ""width:100px; height:100px; position:fixed; top:10%;    transform: translate(-50%, -50%);left:48%""></img><img src=""media/stimuli/inanimate_011_left.png"" class=""coveredImage test"" style = ""width:100px; height:100px;position:fixed; top:25%;        transform: translate(-50%, -50%);left:38%""></img><img src=""media/stimuli/animate_007_left.png"" class=""coveredImage test"" style = ""width:100px; height:100px;position:fixed; top:25%;        transform: translate(-50%, -50%);left:58%""></img><img src=""media/f.png""style = ""width:30px x; height:30px;position:fixed; top:43%;    transform: translate(-50%, -50%);left:40%""></img><img src=""media/j.png""style = ""width:30px; height:30px;position:fixed; top:43%;    transform: translate(-50%, -50%);left:60%""></img>","media/stimuli/inanimate_006_left.png","inanimate","left","single","media/stimuli/inanimate_011_left.png","inanimate","left","single","media/stimuli/animate_007_left.png","animate","left","single","identity_animacy"
"","","","","","html-keyboard-response","62","438965","0.0-62.0","SS1678233203929","5ca3d57fa29412001687031e","6406d7f26dd5b7fc1e3377bd","6407ce6df4c0c80d9bf19b5e","1920","972","","6139","","f","","","","","","","<img src=""media/stimuli/inanimate_009_right.png"" class=""coveredImage test"" style = ""width:100px; height:100px; position:fixed; top:10%;    transform: translate(-50%, -50%);left:44.5%""></img><img src=""media/stimuli/inanimate_009_right.png"" class=""coveredImage test"" style = ""width:100px; height:100px; position:fixed; top:10%;    transform: translate(-50%, -50%);left:51.5%""></img><img src=""media/stimuli/inanimate_010_right.png"" class=""coveredImage test"" style = ""width:100px; height:100px;position:fixed; top:25%;        transform: translate(-50%, -50%);left:34.5%""></img><img src=""media/stimuli/inanimate_010_right.png"" class=""coveredImage test"" style = ""width:100px; height:100px;position:fixed; top:25%;        transform: translate(-50%, -50%);left:41.5%""></img><img src=""media/stimuli/animate_005_right.png"" class=""coveredImage test"" style = ""width:100px; height:100px;position:fixed; top:25%;        transform: translate(-50%, -50%);left:54.5%""></img><img src=""media/stimuli/animate_005_right.png"" class=""coveredImage test"" style = ""width:100px; height:100px;position:fixed; top:25%;        transform: translate(-50%, -50%);left:61.5%""></img><img src=""media/f.png""style = ""width:30px x; height:30px;position:fixed; top:43%;    transform: translate(-50%, -50%);left:40%""></img><img src=""media/j.png""style = ""width:30px; height:30px;position:fixed; top:43%;    transform: translate(-50%, -50%);left:60%""></img>","media/stimuli/inanimate_009_right.png","inanimate","right","pair","media/stimuli/inanimate_010_right.png","inanimate","right","pair","media/stimuli/animate_005_right.png","animate","right","pair","identity_animacy"
"","","","","","html-keyboard-response","63","445243","0.0-63.0","SS1678233203929","5ca3d57fa29412001687031e","6406d7f26dd5b7fc1e3377bd","6407ce6df4c0c80d9bf19b5e","1920","972","","6258","","j","","","","","","","<img src=""media/stimuli/inanimate_012_right.png"" class=""coveredImage test"" style = ""width:100px; height:100px; position:fixed; top:10%;    transform: translate(-50%, -50%);left:48%""></img><img src=""media/stimuli/inanimate_012_left.png"" class=""coveredImage test"" style = ""width:100px; height:100px;position:fixed; top:25%;        transform: translate(-50%, -50%);left:38%""></img><img src=""media/stimuli/inanimate_012_right.png"" class=""coveredImage test"" style = ""width:100px; height:100px;position:fixed; top:25%;        transform: translate(-50%, -50%);left:54.5%""></img><img src=""media/stimuli/inanimate_012_right.png"" class=""coveredImage test"" style = ""width:100px; height:100px;position:fixed; top:25%;        transform: translate(-50%, -50%);left:61.5%""></img><img src=""media/f.png""style = ""width:30px x; height:30px;position:fixed; top:43%;    transform: translate(-50%, -50%);left:40%""></img><img src=""media/j.png""style = ""width:30px; height:30px;position:fixed; top:43%;    transform: translate(-50%, -50%);left:60%""></img>","media/stimuli/inanimate_012_right.png","inanimate","right","single","media/stimuli/inanimate_012_left.png","inanimate","left","single","media/stimuli/inanimate_012_right.png","inanimate","right","pair","pose_number"
"","","","","","html-keyboard-response","64","447045","0.0-64.0","SS1678233203929","5ca3d57fa29412001687031e","6406d7f26dd5b7fc1e3377bd","6407ce6df4c0c80d9bf19b5e","1920","972","","1785","","j","","","","","","","<img src=""media/stimuli/animate_003_right.png"" class=""coveredImage test"" style = ""width:100px; height:100px; position:fixed; top:10%;    transform: translate(-50%, -50%);left:44.5%""></img><img src=""media/stimuli/animate_003_right.png"" class=""coveredImage test"" style = ""width:100px; height:100px; position:fixed; top:10%;    transform: translate(-50%, -50%);left:51.5%""></img><img src=""media/stimuli/animate_003_left.png"" class=""coveredImage test"" style = ""width:100px; height:100px;position:fixed; top:25%;        transform: translate(-50%, -50%);left:34.5%""></img><img src=""media/stimuli/animate_003_left.png"" class=""coveredImage test"" style = ""width:100px; height:100px;position:fixed; top:25%;        transform: translate(-50%, -50%);left:41.5%""></img><img src=""media/stimuli/animate_011_right.png"" class=""coveredImage test"" style = ""width:100px; height:100px;position:fixed; top:25%;        transform: translate(-50%, -50%);left:54.5%""></img><img src=""media/stimuli/animate_011_right.png"" class=""coveredImage test"" style = ""width:100px; height:100px;position:fixed; top:25%;        transform: translate(-50%, -50%);left:61.5%""></img><img src=""media/f.png""style = ""width:30px x; height:30px;position:fixed; top:43%;    transform: translate(-50%, -50%);left:40%""></img><img src=""media/j.png""style = ""width:30px; height:30px;position:fixed; top:43%;    transform: translate(-50%, -50%);left:60%""></img>","media/stimuli/animate_003_right.png","animate","right","pair","media/stimuli/animate_003_left.png","animate","left","pair","media/stimuli/animate_011_right.png","animate","right","pair","pose_identity"
"","","","","","html-keyboard-response","65","448491","0.0-65.0","SS1678233203929","5ca3d57fa29412001687031e","6406d7f26dd5b7fc1e3377bd","6407ce6df4c0c80d9bf19b5e","1920","972","","1419","","j","","","","","","","<img src=""media/stimuli/inanimate_010_left.png"" class=""coveredImage test"" style = ""width:100px; height:100px; position:fixed; top:10%;    transform: translate(-50%, -50%);left:44.5%""></img><img src=""media/stimuli/inanimate_010_left.png"" class=""coveredImage test"" style = ""width:100px; height:100px; position:fixed; top:10%;    transform: translate(-50%, -50%);left:51.5%""></img><img src=""media/stimuli/inanimate_002_left.png"" class=""coveredImage test"" style = ""width:100px; height:100px;position:fixed; top:25%;        transform: translate(-50%, -50%);left:34.5%""></img><img src=""media/stimuli/inanimate_002_left.png"" class=""coveredImage test"" style = ""width:100px; height:100px;position:fixed; top:25%;        transform: translate(-50%, -50%);left:41.5%""></img><img src=""media/stimuli/inanimate_010_left.png"" class=""coveredImage test"" style = ""width:100px; height:100px;position:fixed; top:25%;        transform: translate(-50%, -50%);left:54.5%""></img><img src=""media/stimuli/inanimate_010_left.png"" class=""coveredImage test"" style = ""width:100px; height:100px;position:fixed; top:25%;        transform: translate(-50%, -50%);left:61.5%""></img><img src=""media/f.png""style = ""width:30px x; height:30px;position:fixed; top:43%;    transform: translate(-50%, -50%);left:40%""></img><img src=""media/j.png""style = ""width:30px; height:30px;position:fixed; top:43%;    transform: translate(-50%, -50%);left:60%""></img>","media/stimuli/inanimate_010_left.png","inanimate","left","pair","media/stimuli/inanimate_002_left.png","inanimate","left","pair","media/stimuli/inanimate_010_left.png","inanimate","left","pair","identity_filler"
"","","","","","html-keyboard-response","66","451513","0.0-66.0","SS1678233203929","5ca3d57fa29412001687031e","6406d7f26dd5b7fc1e3377bd","6407ce6df4c0c80d9bf19b5e","1920","972","","2998","","j","","","","","","","<img src=""media/stimuli/inanimate_001_right.png"" class=""coveredImage test"" style = ""width:100px; height:100px; position:fixed; top:10%;    transform: translate(-50%, -50%);left:48%""></img><img src=""media/stimuli/inanimate_001_left.png"" class=""coveredImage test"" style = ""width:100px; height:100px;position:fixed; top:25%;        transform: translate(-50%, -50%);left:38%""></img><img src=""media/stimuli/inanimate_005_right.png"" class=""coveredImage test"" style = ""width:100px; height:100px;position:fixed; top:25%;        transform: translate(-50%, -50%);left:58%""></img><img src=""media/f.png""style = ""width:30px x; height:30px;position:fixed; top:43%;    transform: translate(-50%, -50%);left:40%""></img><img src=""media/j.png""style = ""width:30px; height:30px;position:fixed; top:43%;    transform: translate(-50%, -50%);left:60%""></img>","media/stimuli/inanimate_001_right.png","inanimate","right","single","media/stimuli/inanimate_001_left.png","inanimate","left","single","media/stimuli/inanimate_005_right.png","inanimate","right","single","pose_identity"
"","","","","","html-keyboard-response","67","453028","0.0-67.0","SS1678233203929","5ca3d57fa29412001687031e","6406d7f26dd5b7fc1e3377bd","6407ce6df4c0c80d9bf19b5e","1920","972","","1500","","f","","","","","","","<img src=""media/stimuli/animate_009_right.png"" class=""coveredImage test"" style = ""width:100px; height:100px; position:fixed; top:10%;    transform: translate(-50%, -50%);left:48%""></img><img src=""media/stimuli/animate_009_right.png"" class=""coveredImage test"" style = ""width:100px; height:100px;position:fixed; top:25%;        transform: translate(-50%, -50%);left:34.5%""></img><img src=""media/stimuli/animate_009_right.png"" class=""coveredImage test"" style = ""width:100px; height:100px;position:fixed; top:25%;        transform: translate(-50%, -50%);left:41.5%""></img><img src=""media/stimuli/animate_009_left.png"" class=""coveredImage test"" style = ""width:100px; height:100px;position:fixed; top:25%;        transform: translate(-50%, -50%);left:58%""></img><img src=""media/f.png""style = ""width:30px x; height:30px;position:fixed; top:43%;    transform: translate(-50%, -50%);left:40%""></img><img src=""media/j.png""style = ""width:30px; height:30px;position:fixed; top:43%;    transform: translate(-50%, -50%);left:60%""></img>","media/stimuli/animate_009_right.png","animate","right","single","media/stimuli/animate_009_right.png","animate","right","pair","media/stimuli/animate_009_left.png","animate","left","single","number_pose"
"","","","","","html-keyboard-response","68","454533","0.0-68.0","SS1678233203929","5ca3d57fa29412001687031e","6406d7f26dd5b7fc1e3377bd","6407ce6df4c0c80d9bf19b5e","1920","972","","1493","","j","","","","","","","<img src=""media/stimuli/inanimate_012_right.png"" class=""coveredImage test"" style = ""width:100px; height:100px; position:fixed; top:10%;    transform: translate(-50%, -50%);left:48%""></img><img src=""media/stimuli/inanimate_004_right.png"" class=""coveredImage test"" style = ""width:100px; height:100px;position:fixed; top:25%;        transform: translate(-50%, -50%);left:38%""></img><img src=""media/stimuli/inanimate_012_right.png"" class=""coveredImage test"" style = ""width:100px; height:100px;position:fixed; top:25%;        transform: translate(-50%, -50%);left:54.5%""></img><img src=""media/stimuli/inanimate_012_right.png"" class=""coveredImage test"" style = ""width:100px; height:100px;position:fixed; top:25%;        transform: translate(-50%, -50%);left:61.5%""></img><img src=""media/f.png""style = ""width:30px x; height:30px;position:fixed; top:43%;    transform: translate(-50%, -50%);left:40%""></img><img src=""media/j.png""style = ""width:30px; height:30px;position:fixed; top:43%;    transform: translate(-50%, -50%);left:60%""></img>","media/stimuli/inanimate_012_right.png","inanimate","right","single","media/stimuli/inanimate_004_right.png","inanimate","right","single","media/stimuli/inanimate_012_right.png","inanimate","right","pair","identity_number"
"","","","","","html-keyboard-response","69","456505","0.0-69.0","SS1678233203929","5ca3d57fa29412001687031e","6406d7f26dd5b7fc1e3377bd","6407ce6df4c0c80d9bf19b5e","1920","972","","1961","","f","","","","","","","<img src=""media/stimuli/inanimate_008_right.png"" class=""coveredImage test"" style = ""width:100px; height:100px; position:fixed; top:10%;    transform: translate(-50%, -50%);left:48%""></img><img src=""media/stimuli/inanimate_010_right.png"" class=""coveredImage test"" style = ""width:100px; height:100px;position:fixed; top:25%;        transform: translate(-50%, -50%);left:38%""></img><img src=""media/stimuli/animate_010_right.png"" class=""coveredImage test"" style = ""width:100px; height:100px;position:fixed; top:25%;        transform: translate(-50%, -50%);left:58%""></img><img src=""media/f.png""style = ""width:30px x; height:30px;position:fixed; top:43%;    transform: translate(-50%, -50%);left:40%""></img><img src=""media/j.png""style = ""width:30px; height:30px;position:fixed; top:43%;    transform: translate(-50%, -50%);left:60%""></img>","media/stimuli/inanimate_008_right.png","inanimate","right","single","media/stimuli/inanimate_010_right.png","inanimate","right","single","media/stimuli/animate_010_right.png","animate","right","single","identity_animacy"
"","","","","","html-keyboard-response","70","458153","0.0-70.0","SS1678233203929","5ca3d57fa29412001687031e","6406d7f26dd5b7fc1e3377bd","6407ce6df4c0c80d9bf19b5e","1920","972","","1631","","f","","","","","","","<img src=""media/stimuli/inanimate_009_right.png"" class=""coveredImage test"" style = ""width:100px; height:100px; position:fixed; top:10%;    transform: translate(-50%, -50%);left:48%""></img><img src=""media/stimuli/inanimate_009_right.png"" class=""coveredImage test"" style = ""width:100px; height:100px;position:fixed; top:25%;        transform: translate(-50%, -50%);left:38%""></img><img src=""media/stimuli/animate_012_left.png"" class=""coveredImage test"" style = ""width:100px; height:100px;position:fixed; top:25%;        transform: translate(-50%, -50%);left:58%""></img><img src=""media/f.png""style = ""width:30px x; height:30px;position:fixed; top:43%;    transform: translate(-50%, -50%);left:40%""></img><img src=""media/j.png""style = ""width:30px; height:30px;position:fixed; top:43%;    transform: translate(-50%, -50%);left:60%""></img>","media/stimuli/inanimate_009_right.png","inanimate","right","single","media/stimuli/inanimate_009_right.png","inanimate","right","single","media/stimuli/animate_012_left.png","animate","left","single","pose_animacy"
"","","","","","html-keyboard-response","71","459970","0.0-71.0","SS1678233203929","5ca3d57fa29412001687031e","6406d7f26dd5b7fc1e3377bd","6407ce6df4c0c80d9bf19b5e","1920","972","","1802","","f","","","","","","","<img src=""media/stimuli/animate_004_right.png"" class=""coveredImage test"" style = ""width:100px; height:100px; position:fixed; top:10%;    transform: translate(-50%, -50%);left:48%""></img><img src=""media/stimuli/animate_004_right.png"" class=""coveredImage test"" style = ""width:100px; height:100px;position:fixed; top:25%;        transform: translate(-50%, -50%);left:38%""></img><img src=""media/stimuli/inanimate_006_left.png"" class=""coveredImage test"" style = ""width:100px; height:100px;position:fixed; top:25%;        transform: translate(-50%, -50%);left:58%""></img><img src=""media/f.png""style = ""width:30px x; height:30px;position:fixed; top:43%;    transform: translate(-50%, -50%);left:40%""></img><img src=""media/j.png""style = ""width:30px; height:30px;position:fixed; top:43%;    transform: translate(-50%, -50%);left:60%""></img>","media/stimuli/animate_004_right.png","animate","right","single","media/stimuli/animate_004_right.png","animate","right","single","media/stimuli/inanimate_006_left.png","inanimate","left","single","pose_animacy"
"","","","","","html-keyboard-response","72","461511","0.0-72.0","SS1678233203929","5ca3d57fa29412001687031e","6406d7f26dd5b7fc1e3377bd","6407ce6df4c0c80d9bf19b5e","1920","972","","1525",""," ","","","","","","","","","","","","","","","","","","","",""
"","","","","","html-keyboard-response","73","463640","0.0-73.0","SS1678233203929","5ca3d57fa29412001687031e","6406d7f26dd5b7fc1e3377bd","6407ce6df4c0c80d9bf19b5e","1920","972","","2119","","j","","","","","","","<img src=""media/stimuli/animate_001_left.png"" class=""coveredImage test"" style = ""width:100px; height:100px; position:fixed; top:10%;    transform: translate(-50%, -50%);left:48%""></img><img src=""media/stimuli/inanimate_012_left.png"" class=""coveredImage test"" style = ""width:100px; height:100px;position:fixed; top:25%;        transform: translate(-50%, -50%);left:38%""></img><img src=""media/stimuli/animate_001_left.png"" class=""coveredImage test"" style = ""width:100px; height:100px;position:fixed; top:25%;        transform: translate(-50%, -50%);left:54.5%""></img><img src=""media/stimuli/animate_001_left.png"" class=""coveredImage test"" style = ""width:100px; height:100px;position:fixed; top:25%;        transform: translate(-50%, -50%);left:61.5%""></img><img src=""media/f.png""style = ""width:30px x; height:30px;position:fixed; top:43%;    transform: translate(-50%, -50%);left:40%""></img><img src=""media/j.png""style = ""width:30px; height:30px;position:fixed; top:43%;    transform: translate(-50%, -50%);left:60%""></img>","media/stimuli/animate_001_left.png","animate","left","single","media/stimuli/inanimate_012_left.png","inanimate","left","single","media/stimuli/animate_001_left.png","animate","left","pair","animacy_number"
"","","","","","html-keyboard-response","74","465319","0.0-74.0","SS1678233203929","5ca3d57fa29412001687031e","6406d7f26dd5b7fc1e3377bd","6407ce6df4c0c80d9bf19b5e","1920","972","","1661","","j","","","","","","","<img src=""media/stimuli/inanimate_008_right.png"" class=""coveredImage test"" style = ""width:100px; height:100px; position:fixed; top:10%;    transform: translate(-50%, -50%);left:48%""></img><img src=""media/stimuli/inanimate_008_left.png"" class=""coveredImage test"" style = ""width:100px; height:100px;position:fixed; top:25%;        transform: translate(-50%, -50%);left:38%""></img><img src=""media/stimuli/inanimate_008_right.png"" class=""coveredImage test"" style = ""width:100px; height:100px;position:fixed; top:25%;        transform: translate(-50%, -50%);left:54.5%""></img><img src=""media/stimuli/inanimate_008_right.png"" class=""coveredImage test"" style = ""width:100px; height:100px;position:fixed; top:25%;        transform: translate(-50%, -50%);left:61.5%""></img><img src=""media/f.png""style = ""width:30px x; height:30px;position:fixed; top:43%;    transform: translate(-50%, -50%);left:40%""></img><img src=""media/j.png""style = ""width:30px; height:30px;position:fixed; top:43%;    transform: translate(-50%, -50%);left:60%""></img>","media/stimuli/inanimate_008_right.png","inanimate","right","single","media/stimuli/inanimate_008_left.png","inanimate","left","single","media/stimuli/inanimate_008_right.png","inanimate","right","pair","pose_number"
"","","","","","html-keyboard-response","75","467312","0.0-75.0","SS1678233203929","5ca3d57fa29412001687031e","6406d7f26dd5b7fc1e3377bd","6407ce6df4c0c80d9bf19b5e","1920","972","","1977","","j","","","","","","","<img src=""media/stimuli/animate_012_right.png"" class=""coveredImage test"" style = ""width:100px; height:100px; position:fixed; top:10%;    transform: translate(-50%, -50%);left:44.5%""></img><img src=""media/stimuli/animate_012_right.png"" class=""coveredImage test"" style = ""width:100px; height:100px; position:fixed; top:10%;    transform: translate(-50%, -50%);left:51.5%""></img><img src=""media/stimuli/inanimate_009_right.png"" class=""coveredImage test"" style = ""width:100px; height:100px;position:fixed; top:25%;        transform: translate(-50%, -50%);left:34.5%""></img><img src=""media/stimuli/inanimate_009_right.png"" class=""coveredImage test"" style = ""width:100px; height:100px;position:fixed; top:25%;        transform: translate(-50%, -50%);left:41.5%""></img><img src=""media/stimuli/animate_012_right.png"" class=""coveredImage test"" style = ""width:100px; height:100px;position:fixed; top:25%;        transform: translate(-50%, -50%);left:54.5%""></img><img src=""media/stimuli/animate_012_right.png"" class=""coveredImage test"" style = ""width:100px; height:100px;position:fixed; top:25%;        transform: translate(-50%, -50%);left:61.5%""></img><img src=""media/f.png""style = ""width:30px x; height:30px;position:fixed; top:43%;    transform: translate(-50%, -50%);left:40%""></img><img src=""media/j.png""style = ""width:30px; height:30px;position:fixed; top:43%;    transform: translate(-50%, -50%);left:60%""></img>","media/stimuli/animate_012_right.png","animate","right","pair","media/stimuli/inanimate_009_right.png","inanimate","right","pair","media/stimuli/animate_012_right.png","animate","right","pair","animacy_filler"
"","","","","","html-keyboard-response","76","476364","0.0-76.0","SS1678233203929","5ca3d57fa29412001687031e","6406d7f26dd5b7fc1e3377bd","6407ce6df4c0c80d9bf19b5e","1920","972","","9026","","f","","","","","","","<img src=""media/stimuli/animate_005_right.png"" class=""coveredImage test"" style = ""width:100px; height:100px; position:fixed; top:10%;    transform: translate(-50%, -50%);left:48%""></img><img src=""media/stimuli/animate_005_left.png"" class=""coveredImage test"" style = ""width:100px; height:100px;position:fixed; top:25%;        transform: translate(-50%, -50%);left:38%""></img><img src=""media/stimuli/inanimate_012_right.png"" class=""coveredImage test"" style = ""width:100px; height:100px;position:fixed; top:25%;        transform: translate(-50%, -50%);left:58%""></img><img src=""media/f.png""style = ""width:30px x; height:30px;position:fixed; top:43%;    transform: translate(-50%, -50%);left:40%""></img><img src=""media/j.png""style = ""width:30px; height:30px;position:fixed; top:43%;    transform: translate(-50%, -50%);left:60%""></img>","media/stimuli/animate_005_right.png","animate","right","single","media/stimuli/animate_005_left.png","animate","left","single","media/stimuli/inanimate_012_right.png","inanimate","right","single","pose_animacy"
"","","","","","html-keyboard-response","77","481999","0.0-77.0","SS1678233203929","5ca3d57fa29412001687031e","6406d7f26dd5b7fc1e3377bd","6407ce6df4c0c80d9bf19b5e","1920","972","","5620","","f","","","","","","","<img src=""media/stimuli/inanimate_004_right.png"" class=""coveredImage test"" style = ""width:100px; height:100px; position:fixed; top:10%;    transform: translate(-50%, -50%);left:44.5%""></img><img src=""media/stimuli/inanimate_004_right.png"" class=""coveredImage test"" style = ""width:100px; height:100px; position:fixed; top:10%;    transform: translate(-50%, -50%);left:51.5%""></img><img src=""media/stimuli/inanimate_004_left.png"" class=""coveredImage test"" style = ""width:100px; height:100px;position:fixed; top:25%;        transform: translate(-50%, -50%);left:34.5%""></img><img src=""media/stimuli/inanimate_004_left.png"" class=""coveredImage test"" style = ""width:100px; height:100px;position:fixed; top:25%;        transform: translate(-50%, -50%);left:41.5%""></img><img src=""media/stimuli/animate_008_right.png"" class=""coveredImage test"" style = ""width:100px; height:100px;position:fixed; top:25%;        transform: translate(-50%, -50%);left:54.5%""></img><img src=""media/stimuli/animate_008_right.png"" class=""coveredImage test"" style = ""width:100px; height:100px;position:fixed; top:25%;        transform: translate(-50%, -50%);left:61.5%""></img><img src=""media/f.png""style = ""width:30px x; height:30px;position:fixed; top:43%;    transform: translate(-50%, -50%);left:40%""></img><img src=""media/j.png""style = ""width:30px; height:30px;position:fixed; top:43%;    transform: translate(-50%, -50%);left:60%""></img>","media/stimuli/inanimate_004_right.png","inanimate","right","pair","media/stimuli/inanimate_004_left.png","inanimate","left","pair","media/stimuli/animate_008_right.png","animate","right","pair","pose_animacy"
"","","","","","html-keyboard-response","78","483192","0.0-78.0","SS1678233203929","5ca3d57fa29412001687031e","6406d7f26dd5b7fc1e3377bd","6407ce6df4c0c80d9bf19b5e","1920","972","","1180","","j","","","","","","","<img src=""media/stimuli/animate_010_right.png"" class=""coveredImage test"" style = ""width:100px; height:100px; position:fixed; top:10%;    transform: translate(-50%, -50%);left:48%""></img><img src=""media/stimuli/inanimate_009_left.png"" class=""coveredImage test"" style = ""width:100px; height:100px;position:fixed; top:25%;        transform: translate(-50%, -50%);left:38%""></img><img src=""media/stimuli/animate_010_right.png"" class=""coveredImage test"" style = ""width:100px; height:100px;position:fixed; top:25%;        transform: translate(-50%, -50%);left:58%""></img><img src=""media/f.png""style = ""width:30px x; height:30px;position:fixed; top:43%;    transform: translate(-50%, -50%);left:40%""></img><img src=""media/j.png""style = ""width:30px; height:30px;position:fixed; top:43%;    transform: translate(-50%, -50%);left:60%""></img>","media/stimuli/animate_010_right.png","animate","right","single","media/stimuli/inanimate_009_left.png","inanimate","left","single","media/stimuli/animate_010_right.png","animate","right","single","animacy_pose"
"","","","","","html-keyboard-response","79","485253","0.0-79.0","SS1678233203929","5ca3d57fa29412001687031e","6406d7f26dd5b7fc1e3377bd","6407ce6df4c0c80d9bf19b5e","1920","972","","2043","","f","","","","","","","<img src=""media/stimuli/animate_012_right.png"" class=""coveredImage test"" style = ""width:100px; height:100px; position:fixed; top:10%;    transform: translate(-50%, -50%);left:44.5%""></img><img src=""media/stimuli/animate_012_right.png"" class=""coveredImage test"" style = ""width:100px; height:100px; position:fixed; top:10%;    transform: translate(-50%, -50%);left:51.5%""></img><img src=""media/stimuli/animate_012_right.png"" class=""coveredImage test"" style = ""width:100px; height:100px;position:fixed; top:25%;        transform: translate(-50%, -50%);left:38%""></img><img src=""media/stimuli/inanimate_005_right.png"" class=""coveredImage test"" style = ""width:100px; height:100px;position:fixed; top:25%;        transform: translate(-50%, -50%);left:54.5%""></img><img src=""media/stimuli/inanimate_005_right.png"" class=""coveredImage test"" style = ""width:100px; height:100px;position:fixed; top:25%;        transform: translate(-50%, -50%);left:61.5%""></img><img src=""media/f.png""style = ""width:30px x; height:30px;position:fixed; top:43%;    transform: translate(-50%, -50%);left:40%""></img><img src=""media/j.png""style = ""width:30px; height:30px;position:fixed; top:43%;    transform: translate(-50%, -50%);left:60%""></img>","media/stimuli/animate_012_right.png","animate","right","pair","media/stimuli/animate_012_right.png","animate","right","single","media/stimuli/inanimate_005_right.png","inanimate","right","pair","number_animacy"
"","","","","","html-keyboard-response","80","487697","0.0-80.0","SS1678233203929","5ca3d57fa29412001687031e","6406d7f26dd5b7fc1e3377bd","6407ce6df4c0c80d9bf19b5e","1920","972","","2422","","f","","","","","","","<img src=""media/stimuli/inanimate_007_left.png"" class=""coveredImage test"" style = ""width:100px; height:100px; position:fixed; top:10%;    transform: translate(-50%, -50%);left:48%""></img><img src=""media/stimuli/inanimate_009_left.png"" class=""coveredImage test"" style = ""width:100px; height:100px;position:fixed; top:25%;        transform: translate(-50%, -50%);left:38%""></img><img src=""media/stimuli/animate_005_left.png"" class=""coveredImage test"" style = ""width:100px; height:100px;position:fixed; top:25%;        transform: translate(-50%, -50%);left:58%""></img><img src=""media/f.png""style = ""width:30px x; height:30px;position:fixed; top:43%;    transform: translate(-50%, -50%);left:40%""></img><img src=""media/j.png""style = ""width:30px; height:30px;position:fixed; top:43%;    transform: translate(-50%, -50%);left:60%""></img>","media/stimuli/inanimate_007_left.png","inanimate","left","single","media/stimuli/inanimate_009_left.png","inanimate","left","single","media/stimuli/animate_005_left.png","animate","left","single","identity_animacy"
"","","","","","html-keyboard-response","81","489475","0.0-81.0","SS1678233203929","5ca3d57fa29412001687031e","6406d7f26dd5b7fc1e3377bd","6407ce6df4c0c80d9bf19b5e","1920","972","","1764","","j","","","","","","","<img src=""media/stimuli/animate_004_left.png"" class=""coveredImage test"" style = ""width:100px; height:100px; position:fixed; top:10%;    transform: translate(-50%, -50%);left:48%""></img><img src=""media/stimuli/animate_004_right.png"" class=""coveredImage test"" style = ""width:100px; height:100px;position:fixed; top:25%;        transform: translate(-50%, -50%);left:38%""></img><img src=""media/stimuli/animate_004_left.png"" class=""coveredImage test"" style = ""width:100px; height:100px;position:fixed; top:25%;        transform: translate(-50%, -50%);left:54.5%""></img><img src=""media/stimuli/animate_004_left.png"" class=""coveredImage test"" style = ""width:100px; height:100px;position:fixed; top:25%;        transform: translate(-50%, -50%);left:61.5%""></img><img src=""media/f.png""style = ""width:30px x; height:30px;position:fixed; top:43%;    transform: translate(-50%, -50%);left:40%""></img><img src=""media/j.png""style = ""width:30px; height:30px;position:fixed; top:43%;    transform: translate(-50%, -50%);left:60%""></img>","media/stimuli/animate_004_left.png","animate","left","single","media/stimuli/animate_004_right.png","animate","right","single","media/stimuli/animate_004_left.png","animate","left","pair","pose_number"
"","","","","","html-keyboard-response","82","492567","0.0-82.0","SS1678233203929","5ca3d57fa29412001687031e","6406d7f26dd5b7fc1e3377bd","6407ce6df4c0c80d9bf19b5e","1920","972","","3075","","j","","","","","","","<img src=""media/stimuli/animate_005_right.png"" class=""coveredImage test"" style = ""width:100px; height:100px; position:fixed; top:10%;    transform: translate(-50%, -50%);left:48%""></img><img src=""media/stimuli/inanimate_011_right.png"" class=""coveredImage test"" style = ""width:100px; height:100px;position:fixed; top:25%;        transform: translate(-50%, -50%);left:38%""></img><img src=""media/stimuli/animate_005_left.png"" class=""coveredImage test"" style = ""width:100px; height:100px;position:fixed; top:25%;        transform: translate(-50%, -50%);left:58%""></img><img src=""media/f.png""style = ""width:30px x; height:30px;position:fixed; top:43%;    transform: translate(-50%, -50%);left:40%""></img><img src=""media/j.png""style = ""width:30px; height:30px;position:fixed; top:43%;    transform: translate(-50%, -50%);left:60%""></img>","media/stimuli/animate_005_right.png","animate","right","single","media/stimuli/inanimate_011_right.png","inanimate","right","single","media/stimuli/animate_005_left.png","animate","left","single","animacy_pose"
"","","","","","html-keyboard-response","83","493803","0.0-83.0","SS1678233203929","5ca3d57fa29412001687031e","6406d7f26dd5b7fc1e3377bd","6407ce6df4c0c80d9bf19b5e","1920","972","","1217","","j","","","","","","","<img src=""media/stimuli/inanimate_008_right.png"" class=""coveredImage test"" style = ""width:100px; height:100px; position:fixed; top:10%;    transform: translate(-50%, -50%);left:48%""></img><img src=""media/stimuli/animate_002_right.png"" class=""coveredImage test"" style = ""width:100px; height:100px;position:fixed; top:25%;        transform: translate(-50%, -50%);left:38%""></img><img src=""media/stimuli/inanimate_008_right.png"" class=""coveredImage test"" style = ""width:100px; height:100px;position:fixed; top:25%;        transform: translate(-50%, -50%);left:54.5%""></img><img src=""media/stimuli/inanimate_008_right.png"" class=""coveredImage test"" style = ""width:100px; height:100px;position:fixed; top:25%;        transform: translate(-50%, -50%);left:61.5%""></img><img src=""media/f.png""style = ""width:30px x; height:30px;position:fixed; top:43%;    transform: translate(-50%, -50%);left:40%""></img><img src=""media/j.png""style = ""width:30px; height:30px;position:fixed; top:43%;    transform: translate(-50%, -50%);left:60%""></img>","media/stimuli/inanimate_008_right.png","inanimate","right","single","media/stimuli/animate_002_right.png","animate","right","single","media/stimuli/inanimate_008_right.png","inanimate","right","pair","animacy_number"
"","","","","","html-keyboard-response","84","496023","0.0-84.0","SS1678233203929","5ca3d57fa29412001687031e","6406d7f26dd5b7fc1e3377bd","6407ce6df4c0c80d9bf19b5e","1920","972","","2204","","j","","","","","","","<img src=""media/stimuli/animate_007_right.png"" class=""coveredImage test"" style = ""width:100px; height:100px; position:fixed; top:10%;    transform: translate(-50%, -50%);left:48%""></img><img src=""media/stimuli/animate_010_right.png"" class=""coveredImage test"" style = ""width:100px; height:100px;position:fixed; top:25%;        transform: translate(-50%, -50%);left:38%""></img><img src=""media/stimuli/animate_007_right.png"" class=""coveredImage test"" style = ""width:100px; height:100px;position:fixed; top:25%;        transform: translate(-50%, -50%);left:54.5%""></img><img src=""media/stimuli/animate_007_right.png"" class=""coveredImage test"" style = ""width:100px; height:100px;position:fixed; top:25%;        transform: translate(-50%, -50%);left:61.5%""></img><img src=""media/f.png""style = ""width:30px x; height:30px;position:fixed; top:43%;    transform: translate(-50%, -50%);left:40%""></img><img src=""media/j.png""style = ""width:30px; height:30px;position:fixed; top:43%;    transform: translate(-50%, -50%);left:60%""></img>","media/stimuli/animate_007_right.png","animate","right","single","media/stimuli/animate_010_right.png","animate","right","single","media/stimuli/animate_007_right.png","animate","right","pair","identity_number"
"","","","","","html-keyboard-response","85","498302","0.0-85.0","SS1678233203929","5ca3d57fa29412001687031e","6406d7f26dd5b7fc1e3377bd","6407ce6df4c0c80d9bf19b5e","1920","972","","2259","","j","","","","","","","<img src=""media/stimuli/inanimate_009_right.png"" class=""coveredImage test"" style = ""width:100px; height:100px; position:fixed; top:10%;    transform: translate(-50%, -50%);left:48%""></img><img src=""media/stimuli/animate_011_left.png"" class=""coveredImage test"" style = ""width:100px; height:100px;position:fixed; top:25%;        transform: translate(-50%, -50%);left:38%""></img><img src=""media/stimuli/inanimate_009_right.png"" class=""coveredImage test"" style = ""width:100px; height:100px;position:fixed; top:25%;        transform: translate(-50%, -50%);left:58%""></img><img src=""media/f.png""style = ""width:30px x; height:30px;position:fixed; top:43%;    transform: translate(-50%, -50%);left:40%""></img><img src=""media/j.png""style = ""width:30px; height:30px;position:fixed; top:43%;    transform: translate(-50%, -50%);left:60%""></img>","media/stimuli/inanimate_009_right.png","inanimate","right","single","media/stimuli/animate_011_left.png","animate","left","single","media/stimuli/inanimate_009_right.png","inanimate","right","single","animacy_pose"
"","","","","","html-keyboard-response","86","501435","0.0-86.0","SS1678233203929","5ca3d57fa29412001687031e","6406d7f26dd5b7fc1e3377bd","6407ce6df4c0c80d9bf19b5e","1920","972","","3112","","f","","","","","","","<img src=""media/stimuli/inanimate_003_left.png"" class=""coveredImage test"" style = ""width:100px; height:100px; position:fixed; top:10%;    transform: translate(-50%, -50%);left:44.5%""></img><img src=""media/stimuli/inanimate_003_left.png"" class=""coveredImage test"" style = ""width:100px; height:100px; position:fixed; top:10%;    transform: translate(-50%, -50%);left:51.5%""></img><img src=""media/stimuli/inanimate_003_left.png"" class=""coveredImage test"" style = ""width:100px; height:100px;position:fixed; top:25%;        transform: translate(-50%, -50%);left:34.5%""></img><img src=""media/stimuli/inanimate_003_left.png"" class=""coveredImage test"" style = ""width:100px; height:100px;position:fixed; top:25%;        transform: translate(-50%, -50%);left:41.5%""></img><img src=""media/stimuli/inanimate_003_right.png"" class=""coveredImage test"" style = ""width:100px; height:100px;position:fixed; top:25%;        transform: translate(-50%, -50%);left:54.5%""></img><img src=""media/stimuli/inanimate_003_right.png"" class=""coveredImage test"" style = ""width:100px; height:100px;position:fixed; top:25%;        transform: translate(-50%, -50%);left:61.5%""></img><img src=""media/f.png""style = ""width:30px x; height:30px;position:fixed; top:43%;    transform: translate(-50%, -50%);left:40%""></img><img src=""media/j.png""style = ""width:30px; height:30px;position:fixed; top:43%;    transform: translate(-50%, -50%);left:60%""></img>","media/stimuli/inanimate_003_left.png","inanimate","left","pair","media/stimuli/inanimate_003_left.png","inanimate","left","pair","media/stimuli/inanimate_003_right.png","inanimate","right","pair","filler_pose"
"","","","","","html-keyboard-response","87","502882","0.0-87.0","SS1678233203929","5ca3d57fa29412001687031e","6406d7f26dd5b7fc1e3377bd","6407ce6df4c0c80d9bf19b5e","1920","972","","1430","","j","","","","","","","<img src=""media/stimuli/animate_002_left.png"" class=""coveredImage test"" style = ""width:100px; height:100px; position:fixed; top:10%;    transform: translate(-50%, -50%);left:48%""></img><img src=""media/stimuli/inanimate_010_left.png"" class=""coveredImage test"" style = ""width:100px; height:100px;position:fixed; top:25%;        transform: translate(-50%, -50%);left:38%""></img><img src=""media/stimuli/animate_002_left.png"" class=""coveredImage test"" style = ""width:100px; height:100px;position:fixed; top:25%;        transform: translate(-50%, -50%);left:54.5%""></img><img src=""media/stimuli/animate_002_left.png"" class=""coveredImage test"" style = ""width:100px; height:100px;position:fixed; top:25%;        transform: translate(-50%, -50%);left:61.5%""></img><img src=""media/f.png""style = ""width:30px x; height:30px;position:fixed; top:43%;    transform: translate(-50%, -50%);left:40%""></img><img src=""media/j.png""style = ""width:30px; height:30px;position:fixed; top:43%;    transform: translate(-50%, -50%);left:60%""></img>","media/stimuli/animate_002_left.png","animate","left","single","media/stimuli/inanimate_010_left.png","inanimate","left","single","media/stimuli/animate_002_left.png","animate","left","pair","animacy_number"
"","","","","","html-keyboard-response","88","508614","0.0-88.0","SS1678233203929","5ca3d57fa29412001687031e","6406d7f26dd5b7fc1e3377bd","6407ce6df4c0c80d9bf19b5e","1920","972","","5715","","j","","","","","","","<img src=""media/stimuli/animate_005_left.png"" class=""coveredImage test"" style = ""width:100px; height:100px; position:fixed; top:10%;    transform: translate(-50%, -50%);left:44.5%""></img><img src=""media/stimuli/animate_005_left.png"" class=""coveredImage test"" style = ""width:100px; height:100px; position:fixed; top:10%;    transform: translate(-50%, -50%);left:51.5%""></img><img src=""media/stimuli/animate_005_right.png"" class=""coveredImage test"" style = ""width:100px; height:100px;position:fixed; top:25%;        transform: translate(-50%, -50%);left:34.5%""></img><img src=""media/stimuli/animate_005_right.png"" class=""coveredImage test"" style = ""width:100px; height:100px;position:fixed; top:25%;        transform: translate(-50%, -50%);left:41.5%""></img><img src=""media/stimuli/animate_005_left.png"" class=""coveredImage test"" style = ""width:100px; height:100px;position:fixed; top:25%;        transform: translate(-50%, -50%);left:58%""></img><img src=""media/f.png""style = ""width:30px x; height:30px;position:fixed; top:43%;    transform: translate(-50%, -50%);left:40%""></img><img src=""media/j.png""style = ""width:30px; height:30px;position:fixed; top:43%;    transform: translate(-50%, -50%);left:60%""></img>","media/stimuli/animate_005_left.png","animate","left","pair","media/stimuli/animate_005_right.png","animate","right","pair","media/stimuli/animate_005_left.png","animate","left","single","pose_number"
"","","","","","html-keyboard-response","89","510029","0.0-89.0","SS1678233203929","5ca3d57fa29412001687031e","6406d7f26dd5b7fc1e3377bd","6407ce6df4c0c80d9bf19b5e","1920","972","","1399",""," ","","","","","","","","","","","","","","","","","","","",""
"","","","","","survey-likert","90","521227","0.0-90.0","SS1678233203929","5ca3d57fa29412001687031e","6406d7f26dd5b7fc1e3377bd","6407ce6df4c0c80d9bf19b5e","1920","972","","11191","","{""Q0"":4}","[0]","complexity","media/stimuli/animate_011_right.png","animate","single","right","","","","","","","","","","","","","",""
"","","","","","survey-likert","91","527675","0.0-91.0","SS1678233203929","5ca3d57fa29412001687031e","6406d7f26dd5b7fc1e3377bd","6407ce6df4c0c80d9bf19b5e","1920","972","","6423","","{""Q0"":4}","[0]","complexity","media/stimuli/animate_006_left.png","animate","pair","left","","","","","","","","","","","","","",""
"","","","","","survey-likert","92","535607","0.0-92.0","SS1678233203929","5ca3d57fa29412001687031e","6406d7f26dd5b7fc1e3377bd","6407ce6df4c0c80d9bf19b5e","1920","972","","7899","","{""Q0"":4}","[0]","complexity","media/stimuli/inanimate_005_right.png","inanimate","pair","right","","","","","","","","","","","","","",""
"","","","","","survey-likert","93","542960","0.0-93.0","SS1678233203929","5ca3d57fa29412001687031e","6406d7f26dd5b7fc1e3377bd","6407ce6df4c0c80d9bf19b5e","1920","972","","7313","","{""Q0"":4}","[0]","complexity","media/stimuli/inanimate_002_right.png","inanimate","single","right","","","","","","","","","","","","","",""
"","","","","","survey-likert","94","552007","0.0-94.0","SS1678233203929","5ca3d57fa29412001687031e","6406d7f26dd5b7fc1e3377bd","6407ce6df4c0c80d9bf19b5e","1920","972","","9020","","{""Q0"":4}","[0]","complexity","media/stimuli/animate_004_right.png","animate","pair","right","","","","","","","","","","","","","",""
"","","","","","survey-likert","95","556363","0.0-95.0","SS1678233203929","5ca3d57fa29412001687031e","6406d7f26dd5b7fc1e3377bd","6407ce6df4c0c80d9bf19b5e","1920","972","","4329","","{""Q0"":4}","[0]","complexity","media/stimuli/inanimate_004_left.png","inanimate","single","left","","","","","","","","","","","","","",""
"","","","","","survey-likert","96","564285","0.0-96.0","SS1678233203929","5ca3d57fa29412001687031e","6406d7f26dd5b7fc1e3377bd","6407ce6df4c0c80d9bf19b5e","1920","972","","7898","","{""Q0"":4}","[0]","complexity","media/stimuli/animate_009_left.png","animate","pair","left","","","","","","","","","","","","","",""
"","","","","","survey-likert","97","568485","0.0-97.0","SS1678233203929","5ca3d57fa29412001687031e","6406d7f26dd5b7fc1e3377bd","6407ce6df4c0c80d9bf19b5e","1920","972","","4166","","{""Q0"":4}","[0]","complexity","media/stimuli/inanimate_011_left.png","inanimate","single","left","","","","","","","","","","","","","",""
"","","","","","survey-likert","98","573569","0.0-98.0","SS1678233203929","5ca3d57fa29412001687031e","6406d7f26dd5b7fc1e3377bd","6407ce6df4c0c80d9bf19b5e","1920","972","","5056","","{""Q0"":4}","[0]","complexity","media/stimuli/animate_007_left.png","animate","pair","left","","","","","","","","","","","","","",""
"","","","","","survey-likert","99","577833","0.0-99.0","SS1678233203929","5ca3d57fa29412001687031e","6406d7f26dd5b7fc1e3377bd","6407ce6df4c0c80d9bf19b5e","1920","972","","4239","","{""Q0"":4}","[0]","complexity","media/stimuli/animate_006_right.png","animate","pair","right","","","","","","","","","","","","","",""
"","","","","","survey-likert","100","582778","0.0-100.0","SS1678233203929","5ca3d57fa29412001687031e","6406d7f26dd5b7fc1e3377bd","6407ce6df4c0c80d9bf19b5e","1920","972","","4912","","{""Q0"":4}","[0]","complexity","media/stimuli/animate_002_right.png","animate","pair","right","","","","","","","","","","","","","",""
"","","","","","survey-likert","101","585893","0.0-101.0","SS1678233203929","5ca3d57fa29412001687031e","6406d7f26dd5b7fc1e3377bd","6407ce6df4c0c80d9bf19b5e","1920","972","","3094","","{""Q0"":4}","[0]","complexity","media/stimuli/inanimate_012_left.png","inanimate","pair","left","","","","","","","","","","","","","",""
"","","","","","html-keyboard-response","102","587569","0.0-102.0","SS1678233203929","5ca3d57fa29412001687031e","6406d7f26dd5b7fc1e3377bd","6407ce6df4c0c80d9bf19b5e","1920","972","","1655",""," ","","","","","","","","","","","","","","","","","","","",""
"","","","","","survey-likert","103","591772","0.0-103.0","SS1678233203929","5ca3d57fa29412001687031e","6406d7f26dd5b7fc1e3377bd","6407ce6df4c0c80d9bf19b5e","1920","972","","4195","","{""Q0"":4}","[0]","complexity","media/stimuli/inanimate_006_right.png","inanimate","pair","right","","","","","","","","","","","","","",""
"","","","","","survey-likert","104","596331","0.0-104.0","SS1678233203929","5ca3d57fa29412001687031e","6406d7f26dd5b7fc1e3377bd","6407ce6df4c0c80d9bf19b5e","1920","972","","4534","","{""Q0"":4}","[0]","complexity","media/stimuli/inanimate_008_left.png","inanimate","pair","left","","","","","","","","","","","","","",""
"","","","","","survey-likert","105","605609","0.0-105.0","SS1678233203929","5ca3d57fa29412001687031e","6406d7f26dd5b7fc1e3377bd","6407ce6df4c0c80d9bf19b5e","1920","972","","9246","","{""Q0"":4}","[0]","complexity","media/stimuli/animate_012_left.png","animate","pair","left","","","","","","","","","","","","","",""
"","","","","","survey-likert","106","612735","0.0-106.0","SS1678233203929","5ca3d57fa29412001687031e","6406d7f26dd5b7fc1e3377bd","6407ce6df4c0c80d9bf19b5e","1920","972","","7092","","{""Q0"":3}","[0]","complexity","media/stimuli/inanimate_002_left.png","inanimate","pair","left","","","","","","","","","","","","","",""
"","","","","","survey-likert","107","617667","0.0-107.0","SS1678233203929","5ca3d57fa29412001687031e","6406d7f26dd5b7fc1e3377bd","6407ce6df4c0c80d9bf19b5e","1920","972","","4914","","{""Q0"":4}","[0]","complexity","media/stimuli/animate_007_right.png","animate","single","right","","","","","","","","","","","","","",""
"","","","","","survey-likert","108","622169","0.0-108.0","SS1678233203929","5ca3d57fa29412001687031e","6406d7f26dd5b7fc1e3377bd","6407ce6df4c0c80d9bf19b5e","1920","972","","4479","","{""Q0"":4}","[0]","complexity","media/stimuli/animate_010_right.png","animate","single","right","","","","","","","","","","","","","",""
"","","","","","survey-likert","109","628195","0.0-109.0","SS1678233203929","5ca3d57fa29412001687031e","6406d7f26dd5b7fc1e3377bd","6407ce6df4c0c80d9bf19b5e","1920","972","","6000","","{""Q0"":4}","[0]","complexity","media/stimuli/inanimate_001_left.png","inanimate","pair","left","","","","","","","","","","","","","",""
"","","","","","survey-likert","110","640838","0.0-110.0","SS1678233203929","5ca3d57fa29412001687031e","6406d7f26dd5b7fc1e3377bd","6407ce6df4c0c80d9bf19b5e","1920","972","","12617","","{""Q0"":4}","[0]","complexity","media/stimuli/animate_008_left.png","animate","single","left","","","","","","","","","","","","","",""
"","","","","","survey-likert","111","647517","0.0-111.0","SS1678233203929","5ca3d57fa29412001687031e","6406d7f26dd5b7fc1e3377bd","6407ce6df4c0c80d9bf19b5e","1920","972","","6651","","{""Q0"":4}","[0]","complexity","media/stimuli/animate_009_left.png","animate","single","left","","","","","","","","","","","","","",""
"","","","","","survey-likert","112","651157","0.0-112.0","SS1678233203929","5ca3d57fa29412001687031e","6406d7f26dd5b7fc1e3377bd","6407ce6df4c0c80d9bf19b5e","1920","972","","3598","","{""Q0"":4}","[0]","complexity","media/stimuli/inanimate_005_left.png","inanimate","pair","left","","","","","","","","","","","","","",""
"","","","","","survey-likert","113","654410","0.0-113.0","SS1678233203929","5ca3d57fa29412001687031e","6406d7f26dd5b7fc1e3377bd","6407ce6df4c0c80d9bf19b5e","1920","972","","3226","","{""Q0"":4}","[0]","complexity","media/stimuli/animate_012_left.png","animate","single","left","","","","","","","","","","","","","",""
"","","","","","survey-likert","114","658381","0.0-114.0","SS1678233203929","5ca3d57fa29412001687031e","6406d7f26dd5b7fc1e3377bd","6407ce6df4c0c80d9bf19b5e","1920","972","","3948","","{""Q0"":4}","[0]","complexity","media/stimuli/animate_011_left.png","animate","single","left","","","","","","","","","","","","","",""
"","","","","","html-keyboard-response","115","659589","0.0-115.0","SS1678233203929","5ca3d57fa29412001687031e","6406d7f26dd5b7fc1e3377bd","6407ce6df4c0c80d9bf19b5e","1920","972","","1176",""," ","","","","","","","","","","","","","","","","","","","",""
"","","","","","html-keyboard-response","116","662816","0.0-116.0","SS1678233203929","5ca3d57fa29412001687031e","6406d7f26dd5b7fc1e3377bd","6407ce6df4c0c80d9bf19b5e","1920","972","","3214","","j","","","","","","","<img src=""media/stimuli/inanimate_010_left.png"" class=""coveredImage test"" style = ""width:100px; height:100px; position:fixed; top:10%;    transform: translate(-50%, -50%);left:44.5%""></img><img src=""media/stimuli/inanimate_010_left.png"" class=""coveredImage test"" style = ""width:100px; height:100px; position:fixed; top:10%;    transform: translate(-50%, -50%);left:51.5%""></img><img src=""media/stimuli/animate_006_right.png"" class=""coveredImage test"" style = ""width:100px; height:100px;position:fixed; top:25%;        transform: translate(-50%, -50%);left:38%""></img><img src=""media/stimuli/inanimate_010_left.png"" class=""coveredImage test"" style = ""width:100px; height:100px;position:fixed; top:25%;        transform: translate(-50%, -50%);left:58%""></img><img src=""media/f.png""style = ""width:30px x; height:30px;position:fixed; top:43%;    transform: translate(-50%, -50%);left:40%""></img><img src=""media/j.png""style = ""width:30px; height:30px;position:fixed; top:43%;    transform: translate(-50%, -50%);left:60%""></img>","media/stimuli/inanimate_010_left.png","inanimate","left","pair","media/stimuli/animate_006_right.png","animate","right","single","media/stimuli/inanimate_010_left.png","inanimate","left","single","animacy_pose"
"","","","","","html-keyboard-response","117","665802","0.0-117.0","SS1678233203929","5ca3d57fa29412001687031e","6406d7f26dd5b7fc1e3377bd","6407ce6df4c0c80d9bf19b5e","1920","972","","2976","","f","","","","","","","<img src=""media/stimuli/animate_006_right.png"" class=""coveredImage test"" style = ""width:100px; height:100px; position:fixed; top:10%;    transform: translate(-50%, -50%);left:44.5%""></img><img src=""media/stimuli/animate_006_right.png"" class=""coveredImage test"" style = ""width:100px; height:100px; position:fixed; top:10%;    transform: translate(-50%, -50%);left:51.5%""></img><img src=""media/stimuli/animate_006_right.png"" class=""coveredImage test"" style = ""width:100px; height:100px;position:fixed; top:25%;        transform: translate(-50%, -50%);left:38%""></img><img src=""media/stimuli/animate_010_right.png"" class=""coveredImage test"" style = ""width:100px; height:100px;position:fixed; top:25%;        transform: translate(-50%, -50%);left:54.5%""></img><img src=""media/stimuli/animate_010_right.png"" class=""coveredImage test"" style = ""width:100px; height:100px;position:fixed; top:25%;        transform: translate(-50%, -50%);left:61.5%""></img><img src=""media/f.png""style = ""width:30px x; height:30px;position:fixed; top:43%;    transform: translate(-50%, -50%);left:40%""></img><img src=""media/j.png""style = ""width:30px; height:30px;position:fixed; top:43%;    transform: translate(-50%, -50%);left:60%""></img>","media/stimuli/animate_006_right.png","animate","right","pair","media/stimuli/animate_006_right.png","animate","right","single","media/stimuli/animate_010_right.png","animate","right","pair","number_identity"
"","","","","","html-keyboard-response","118","668125","0.0-118.0","SS1678233203929","5ca3d57fa29412001687031e","6406d7f26dd5b7fc1e3377bd","6407ce6df4c0c80d9bf19b5e","1920","972","","2298","","f","","","","","","","<img src=""media/stimuli/inanimate_005_left.png"" class=""coveredImage test"" style = ""width:100px; height:100px; position:fixed; top:10%;    transform: translate(-50%, -50%);left:48%""></img><img src=""media/stimuli/inanimate_005_right.png"" class=""coveredImage test"" style = ""width:100px; height:100px;position:fixed; top:25%;        transform: translate(-50%, -50%);left:34.5%""></img><img src=""media/stimuli/inanimate_005_right.png"" class=""coveredImage test"" style = ""width:100px; height:100px;position:fixed; top:25%;        transform: translate(-50%, -50%);left:41.5%""></img><img src=""media/stimuli/animate_005_left.png"" class=""coveredImage test"" style = ""width:100px; height:100px;position:fixed; top:25%;        transform: translate(-50%, -50%);left:54.5%""></img><img src=""media/stimuli/animate_005_left.png"" class=""coveredImage test"" style = ""width:100px; height:100px;position:fixed; top:25%;        transform: translate(-50%, -50%);left:61.5%""></img><img src=""media/f.png""style = ""width:30px x; height:30px;position:fixed; top:43%;    transform: translate(-50%, -50%);left:40%""></img><img src=""media/j.png""style = ""width:30px; height:30px;position:fixed; top:43%;    transform: translate(-50%, -50%);left:60%""></img>","media/stimuli/inanimate_005_left.png","inanimate","left","single","media/stimuli/inanimate_005_right.png","inanimate","right","pair","media/stimuli/animate_005_left.png","animate","left","pair","pose_animacy"
"","","","","","html-keyboard-response","119","670607","0.0-119.0","SS1678233203929","5ca3d57fa29412001687031e","6406d7f26dd5b7fc1e3377bd","6407ce6df4c0c80d9bf19b5e","1920","972","","2463","","f","","","","","","","<img src=""media/stimuli/animate_003_right.png"" class=""coveredImage test"" style = ""width:100px; height:100px; position:fixed; top:10%;    transform: translate(-50%, -50%);left:44.5%""></img><img src=""media/stimuli/animate_003_right.png"" class=""coveredImage test"" style = ""width:100px; height:100px; position:fixed; top:10%;    transform: translate(-50%, -50%);left:51.5%""></img><img src=""media/stimuli/animate_003_left.png"" class=""coveredImage test"" style = ""width:100px; height:100px;position:fixed; top:25%;        transform: translate(-50%, -50%);left:34.5%""></img><img src=""media/stimuli/animate_003_left.png"" class=""coveredImage test"" style = ""width:100px; height:100px;position:fixed; top:25%;        transform: translate(-50%, -50%);left:41.5%""></img><img src=""media/stimuli/animate_008_right.png"" class=""coveredImage test"" style = ""width:100px; height:100px;position:fixed; top:25%;        transform: translate(-50%, -50%);left:54.5%""></img><img src=""media/stimuli/animate_008_right.png"" class=""coveredImage test"" style = ""width:100px; height:100px;position:fixed; top:25%;        transform: translate(-50%, -50%);left:61.5%""></img><img src=""media/f.png""style = ""width:30px x; height:30px;position:fixed; top:43%;    transform: translate(-50%, -50%);left:40%""></img><img src=""media/j.png""style = ""width:30px; height:30px;position:fixed; top:43%;    transform: translate(-50%, -50%);left:60%""></img>","media/stimuli/animate_003_right.png","animate","right","pair","media/stimuli/animate_003_left.png","animate","left","pair","media/stimuli/animate_008_right.png","animate","right","pair","pose_identity"
"","","","","","html-keyboard-response","120","671662","0.0-120.0","SS1678233203929","5ca3d57fa29412001687031e","6406d7f26dd5b7fc1e3377bd","6407ce6df4c0c80d9bf19b5e","1920","972","","1019","","j","","","","","","","<img src=""media/stimuli/animate_002_right.png"" class=""coveredImage test"" style = ""width:100px; height:100px; position:fixed; top:10%;    transform: translate(-50%, -50%);left:48%""></img><img src=""media/stimuli/animate_006_right.png"" class=""coveredImage test"" style = ""width:100px; height:100px;position:fixed; top:25%;        transform: translate(-50%, -50%);left:38%""></img><img src=""media/stimuli/animate_002_right.png"" class=""coveredImage test"" style = ""width:100px; height:100px;position:fixed; top:25%;        transform: translate(-50%, -50%);left:54.5%""></img><img src=""media/stimuli/animate_002_right.png"" class=""coveredImage test"" style = ""width:100px; height:100px;position:fixed; top:25%;        transform: translate(-50%, -50%);left:61.5%""></img><img src=""media/f.png""style = ""width:30px x; height:30px;position:fixed; top:43%;    transform: translate(-50%, -50%);left:40%""></img><img src=""media/j.png""style = ""width:30px; height:30px;position:fixed; top:43%;    transform: translate(-50%, -50%);left:60%""></img>","media/stimuli/animate_002_right.png","animate","right","single","media/stimuli/animate_006_right.png","animate","right","single","media/stimuli/animate_002_right.png","animate","right","pair","identity_number"
"","","","","","html-keyboard-response","121","674068","0.0-121.0","SS1678233203929","5ca3d57fa29412001687031e","6406d7f26dd5b7fc1e3377bd","6407ce6df4c0c80d9bf19b5e","1920","972","","2363","","j","","","","","","","<img src=""media/stimuli/inanimate_006_left.png"" class=""coveredImage test"" style = ""width:100px; height:100px; position:fixed; top:10%;    transform: translate(-50%, -50%);left:48%""></img><img src=""media/stimuli/animate_003_left.png"" class=""coveredImage test"" style = ""width:100px; height:100px;position:fixed; top:25%;        transform: translate(-50%, -50%);left:38%""></img><img src=""media/stimuli/inanimate_002_left.png"" class=""coveredImage test"" style = ""width:100px; height:100px;position:fixed; top:25%;        transform: translate(-50%, -50%);left:58%""></img><img src=""media/f.png""style = ""width:30px x; height:30px;position:fixed; top:43%;    transform: translate(-50%, -50%);left:40%""></img><img src=""media/j.png""style = ""width:30px; height:30px;position:fixed; top:43%;    transform: translate(-50%, -50%);left:60%""></img>","media/stimuli/inanimate_006_left.png","inanimate","left","single","media/stimuli/animate_003_left.png","animate","left","single","media/stimuli/inanimate_002_left.png","inanimate","left","single","animacy_identity"
"","","","","","html-keyboard-response","122","675434","0.0-122.0","SS1678233203929","5ca3d57fa29412001687031e","6406d7f26dd5b7fc1e3377bd","6407ce6df4c0c80d9bf19b5e","1920","972","","1342","","f","","","","","","","<img src=""media/stimuli/inanimate_011_right.png"" class=""coveredImage test"" style = ""width:100px; height:100px; position:fixed; top:10%;    transform: translate(-50%, -50%);left:48%""></img><img src=""media/stimuli/inanimate_001_right.png"" class=""coveredImage test"" style = ""width:100px; height:100px;position:fixed; top:25%;        transform: translate(-50%, -50%);left:38%""></img><img src=""media/stimuli/animate_007_right.png"" class=""coveredImage test"" style = ""width:100px; height:100px;position:fixed; top:25%;        transform: translate(-50%, -50%);left:58%""></img><img src=""media/f.png""style = ""width:30px x; height:30px;position:fixed; top:43%;    transform: translate(-50%, -50%);left:40%""></img><img src=""media/j.png""style = ""width:30px; height:30px;position:fixed; top:43%;    transform: translate(-50%, -50%);left:60%""></img>","media/stimuli/inanimate_011_right.png","inanimate","right","single","media/stimuli/inanimate_001_right.png","inanimate","right","single","media/stimuli/animate_007_right.png","animate","right","single","identity_animacy"
"","","","","","html-keyboard-response","123","679328","0.0-123.0","SS1678233203929","5ca3d57fa29412001687031e","6406d7f26dd5b7fc1e3377bd","6407ce6df4c0c80d9bf19b5e","1920","972","","3871","","j","","","","","","","<img src=""media/stimuli/inanimate_005_right.png"" class=""coveredImage test"" style = ""width:100px; height:100px; position:fixed; top:10%;    transform: translate(-50%, -50%);left:44.5%""></img><img src=""media/stimuli/inanimate_005_right.png"" class=""coveredImage test"" style = ""width:100px; height:100px; position:fixed; top:10%;    transform: translate(-50%, -50%);left:51.5%""></img><img src=""media/stimuli/inanimate_005_left.png"" class=""coveredImage test"" style = ""width:100px; height:100px;position:fixed; top:25%;        transform: translate(-50%, -50%);left:34.5%""></img><img src=""media/stimuli/inanimate_005_left.png"" class=""coveredImage test"" style = ""width:100px; height:100px;position:fixed; top:25%;        transform: translate(-50%, -50%);left:41.5%""></img><img src=""media/stimuli/inanimate_005_right.png"" class=""coveredImage test"" style = ""width:100px; height:100px;position:fixed; top:25%;        transform: translate(-50%, -50%);left:58%""></img><img src=""media/f.png""style = ""width:30px x; height:30px;position:fixed; top:43%;    transform: translate(-50%, -50%);left:40%""></img><img src=""media/j.png""style = ""width:30px; height:30px;position:fixed; top:43%;    transform: translate(-50%, -50%);left:60%""></img>","media/stimuli/inanimate_005_right.png","inanimate","right","pair","media/stimuli/inanimate_005_left.png","inanimate","left","pair","media/stimuli/inanimate_005_right.png","inanimate","right","single","pose_number"
"","","","","","html-keyboard-response","124","681114","0.0-124.0","SS1678233203929","5ca3d57fa29412001687031e","6406d7f26dd5b7fc1e3377bd","6407ce6df4c0c80d9bf19b5e","1920","972","","1765","","j","","","","","","","<img src=""media/stimuli/animate_001_right.png"" class=""coveredImage test"" style = ""width:100px; height:100px; position:fixed; top:10%;    transform: translate(-50%, -50%);left:48%""></img><img src=""media/stimuli/inanimate_010_right.png"" class=""coveredImage test"" style = ""width:100px; height:100px;position:fixed; top:25%;        transform: translate(-50%, -50%);left:38%""></img><img src=""media/stimuli/animate_007_right.png"" class=""coveredImage test"" style = ""width:100px; height:100px;position:fixed; top:25%;        transform: translate(-50%, -50%);left:58%""></img><img src=""media/f.png""style = ""width:30px x; height:30px;position:fixed; top:43%;    transform: translate(-50%, -50%);left:40%""></img><img src=""media/j.png""style = ""width:30px; height:30px;position:fixed; top:43%;    transform: translate(-50%, -50%);left:60%""></img>","media/stimuli/animate_001_right.png","animate","right","single","media/stimuli/inanimate_010_right.png","inanimate","right","single","media/stimuli/animate_007_right.png","animate","right","single","animacy_identity"
"","","","","","html-keyboard-response","125","682491","0.0-125.0","SS1678233203929","5ca3d57fa29412001687031e","6406d7f26dd5b7fc1e3377bd","6407ce6df4c0c80d9bf19b5e","1920","972","","1358","","f","","","","","","","<img src=""media/stimuli/animate_008_right.png"" class=""coveredImage test"" style = ""width:100px; height:100px; position:fixed; top:10%;    transform: translate(-50%, -50%);left:44.5%""></img><img src=""media/stimuli/animate_008_right.png"" class=""coveredImage test"" style = ""width:100px; height:100px; position:fixed; top:10%;    transform: translate(-50%, -50%);left:51.5%""></img><img src=""media/stimuli/animate_008_right.png"" class=""coveredImage test"" style = ""width:100px; height:100px;position:fixed; top:25%;        transform: translate(-50%, -50%);left:34.5%""></img><img src=""media/stimuli/animate_008_right.png"" class=""coveredImage test"" style = ""width:100px; height:100px;position:fixed; top:25%;        transform: translate(-50%, -50%);left:41.5%""></img><img src=""media/stimuli/inanimate_003_left.png"" class=""coveredImage test"" style = ""width:100px; height:100px;position:fixed; top:25%;        transform: translate(-50%, -50%);left:54.5%""></img><img src=""media/stimuli/inanimate_003_left.png"" class=""coveredImage test"" style = ""width:100px; height:100px;position:fixed; top:25%;        transform: translate(-50%, -50%);left:61.5%""></img><img src=""media/f.png""style = ""width:30px x; height:30px;position:fixed; top:43%;    transform: translate(-50%, -50%);left:40%""></img><img src=""media/j.png""style = ""width:30px; height:30px;position:fixed; top:43%;    transform: translate(-50%, -50%);left:60%""></img>","media/stimuli/animate_008_right.png","animate","right","pair","media/stimuli/animate_008_right.png","animate","right","pair","media/stimuli/inanimate_003_left.png","inanimate","left","pair","pose_animacy"
"","","","","","html-keyboard-response","126","683877","0.0-126.0","SS1678233203929","5ca3d57fa29412001687031e","6406d7f26dd5b7fc1e3377bd","6407ce6df4c0c80d9bf19b5e","1920","972","","1366","","f","","","","","","","<img src=""media/stimuli/inanimate_012_right.png"" class=""coveredImage test"" style = ""width:100px; height:100px; position:fixed; top:10%;    transform: translate(-50%, -50%);left:48%""></img><img src=""media/stimuli/inanimate_008_right.png"" class=""coveredImage test"" style = ""width:100px; height:100px;position:fixed; top:25%;        transform: translate(-50%, -50%);left:38%""></img><img src=""media/stimuli/animate_009_right.png"" class=""coveredImage test"" style = ""width:100px; height:100px;position:fixed; top:25%;        transform: translate(-50%, -50%);left:58%""></img><img src=""media/f.png""style = ""width:30px x; height:30px;position:fixed; top:43%;    transform: translate(-50%, -50%);left:40%""></img><img src=""media/j.png""style = ""width:30px; height:30px;position:fixed; top:43%;    transform: translate(-50%, -50%);left:60%""></img>","media/stimuli/inanimate_012_right.png","inanimate","right","single","media/stimuli/inanimate_008_right.png","inanimate","right","single","media/stimuli/animate_009_right.png","animate","right","single","identity_animacy"
"","","","","","html-keyboard-response","127","685208","0.0-127.0","SS1678233203929","5ca3d57fa29412001687031e","6406d7f26dd5b7fc1e3377bd","6407ce6df4c0c80d9bf19b5e","1920","972","","1313","","j","","","","","","","<img src=""media/stimuli/animate_005_right.png"" class=""coveredImage test"" style = ""width:100px; height:100px; position:fixed; top:10%;    transform: translate(-50%, -50%);left:44.5%""></img><img src=""media/stimuli/animate_005_right.png"" class=""coveredImage test"" style = ""width:100px; height:100px; position:fixed; top:10%;    transform: translate(-50%, -50%);left:51.5%""></img><img src=""media/stimuli/inanimate_009_right.png"" class=""coveredImage test"" style = ""width:100px; height:100px;position:fixed; top:25%;        transform: translate(-50%, -50%);left:34.5%""></img><img src=""media/stimuli/inanimate_009_right.png"" class=""coveredImage test"" style = ""width:100px; height:100px;position:fixed; top:25%;        transform: translate(-50%, -50%);left:41.5%""></img><img src=""media/stimuli/animate_005_right.png"" class=""coveredImage test"" style = ""width:100px; height:100px;position:fixed; top:25%;        transform: translate(-50%, -50%);left:58%""></img><img src=""media/f.png""style = ""width:30px x; height:30px;position:fixed; top:43%;    transform: translate(-50%, -50%);left:40%""></img><img src=""media/j.png""style = ""width:30px; height:30px;position:fixed; top:43%;    transform: translate(-50%, -50%);left:60%""></img>","media/stimuli/animate_005_right.png","animate","right","pair","media/stimuli/inanimate_009_right.png","inanimate","right","pair","media/stimuli/animate_005_right.png","animate","right","single","animacy_number"
"","","","","","html-keyboard-response","128","687814","0.0-128.0","SS1678233203929","5ca3d57fa29412001687031e","6406d7f26dd5b7fc1e3377bd","6407ce6df4c0c80d9bf19b5e","1920","972","","2582",""," ","","","","","","","","","","","","","","","","","","","",""
"","","","","","html-keyboard-response","129","689224","0.0-129.0","SS1678233203929","5ca3d57fa29412001687031e","6406d7f26dd5b7fc1e3377bd","6407ce6df4c0c80d9bf19b5e","1920","972","","1400","","j","","","","","","","<img src=""media/stimuli/animate_011_right.png"" class=""coveredImage test"" style = ""width:100px; height:100px; position:fixed; top:10%;    transform: translate(-50%, -50%);left:44.5%""></img><img src=""media/stimuli/animate_011_right.png"" class=""coveredImage test"" style = ""width:100px; height:100px; position:fixed; top:10%;    transform: translate(-50%, -50%);left:51.5%""></img><img src=""media/stimuli/animate_011_left.png"" class=""coveredImage test"" style = ""width:100px; height:100px;position:fixed; top:25%;        transform: translate(-50%, -50%);left:34.5%""></img><img src=""media/stimuli/animate_011_left.png"" class=""coveredImage test"" style = ""width:100px; height:100px;position:fixed; top:25%;        transform: translate(-50%, -50%);left:41.5%""></img><img src=""media/stimuli/animate_011_right.png"" class=""coveredImage test"" style = ""width:100px; height:100px;position:fixed; top:25%;        transform: translate(-50%, -50%);left:58%""></img><img src=""media/f.png""style = ""width:30px x; height:30px;position:fixed; top:43%;    transform: translate(-50%, -50%);left:40%""></img><img src=""media/j.png""style = ""width:30px; height:30px;position:fixed; top:43%;    transform: translate(-50%, -50%);left:60%""></img>","media/stimuli/animate_011_right.png","animate","right","pair","media/stimuli/animate_011_left.png","animate","left","pair","media/stimuli/animate_011_right.png","animate","right","single","pose_number"
"","","","","","html-keyboard-response","130","691079","0.0-130.0","SS1678233203929","5ca3d57fa29412001687031e","6406d7f26dd5b7fc1e3377bd","6407ce6df4c0c80d9bf19b5e","1920","972","","1832","","f","","","","","","","<img src=""media/stimuli/inanimate_001_right.png"" class=""coveredImage test"" style = ""width:100px; height:100px; position:fixed; top:10%;    transform: translate(-50%, -50%);left:44.5%""></img><img src=""media/stimuli/inanimate_001_right.png"" class=""coveredImage test"" style = ""width:100px; height:100px; position:fixed; top:10%;    transform: translate(-50%, -50%);left:51.5%""></img><img src=""media/stimuli/inanimate_001_right.png"" class=""coveredImage test"" style = ""width:100px; height:100px;position:fixed; top:25%;        transform: translate(-50%, -50%);left:34.5%""></img><img src=""media/stimuli/inanimate_001_right.png"" class=""coveredImage test"" style = ""width:100px; height:100px;position:fixed; top:25%;        transform: translate(-50%, -50%);left:41.5%""></img><img src=""media/stimuli/animate_010_left.png"" class=""coveredImage test"" style = ""width:100px; height:100px;position:fixed; top:25%;        transform: translate(-50%, -50%);left:54.5%""></img><img src=""media/stimuli/animate_010_left.png"" class=""coveredImage test"" style = ""width:100px; height:100px;position:fixed; top:25%;        transform: translate(-50%, -50%);left:61.5%""></img><img src=""media/f.png""style = ""width:30px x; height:30px;position:fixed; top:43%;    transform: translate(-50%, -50%);left:40%""></img><img src=""media/j.png""style = ""width:30px; height:30px;position:fixed; top:43%;    transform: translate(-50%, -50%);left:60%""></img>","media/stimuli/inanimate_001_right.png","inanimate","right","pair","media/stimuli/inanimate_001_right.png","inanimate","right","pair","media/stimuli/animate_010_left.png","animate","left","pair","pose_animacy"
"","","","","","html-keyboard-response","131","692862","0.0-131.0","SS1678233203929","5ca3d57fa29412001687031e","6406d7f26dd5b7fc1e3377bd","6407ce6df4c0c80d9bf19b5e","1920","972","","1760","","f","","","","","","","<img src=""media/stimuli/inanimate_011_left.png"" class=""coveredImage test"" style = ""width:100px; height:100px; position:fixed; top:10%;    transform: translate(-50%, -50%);left:44.5%""></img><img src=""media/stimuli/inanimate_011_left.png"" class=""coveredImage test"" style = ""width:100px; height:100px; position:fixed; top:10%;    transform: translate(-50%, -50%);left:51.5%""></img><img src=""media/stimuli/inanimate_011_left.png"" class=""coveredImage test"" style = ""width:100px; height:100px;position:fixed; top:25%;        transform: translate(-50%, -50%);left:38%""></img><img src=""media/stimuli/inanimate_009_left.png"" class=""coveredImage test"" style = ""width:100px; height:100px;position:fixed; top:25%;        transform: translate(-50%, -50%);left:54.5%""></img><img src=""media/stimuli/inanimate_009_left.png"" class=""coveredImage test"" style = ""width:100px; height:100px;position:fixed; top:25%;        transform: translate(-50%, -50%);left:61.5%""></img><img src=""media/f.png""style = ""width:30px x; height:30px;position:fixed; top:43%;    transform: translate(-50%, -50%);left:40%""></img><img src=""media/j.png""style = ""width:30px; height:30px;position:fixed; top:43%;    transform: translate(-50%, -50%);left:60%""></img>","media/stimuli/inanimate_011_left.png","inanimate","left","pair","media/stimuli/inanimate_011_left.png","inanimate","left","single","media/stimuli/inanimate_009_left.png","inanimate","left","pair","number_identity"
"","","","","","html-keyboard-response","132","696058","0.0-132.0","SS1678233203929","5ca3d57fa29412001687031e","6406d7f26dd5b7fc1e3377bd","6407ce6df4c0c80d9bf19b5e","1920","972","","3172","","j","","","","","","","<img src=""media/stimuli/animate_003_left.png"" class=""coveredImage test"" style = ""width:100px; height:100px; position:fixed; top:10%;    transform: translate(-50%, -50%);left:48%""></img><img src=""media/stimuli/inanimate_012_left.png"" class=""coveredImage test"" style = ""width:100px; height:100px;position:fixed; top:25%;        transform: translate(-50%, -50%);left:34.5%""></img><img src=""media/stimuli/inanimate_012_left.png"" class=""coveredImage test"" style = ""width:100px; height:100px;position:fixed; top:25%;        transform: translate(-50%, -50%);left:41.5%""></img><img src=""media/stimuli/animate_003_right.png"" class=""coveredImage test"" style = ""width:100px; height:100px;position:fixed; top:25%;        transform: translate(-50%, -50%);left:54.5%""></img><img src=""media/stimuli/animate_003_right.png"" class=""coveredImage test"" style = ""width:100px; height:100px;position:fixed; top:25%;        transform: translate(-50%, -50%);left:61.5%""></img><img src=""media/f.png""style = ""width:30px x; height:30px;position:fixed; top:43%;    transform: translate(-50%, -50%);left:40%""></img><img src=""media/j.png""style = ""width:30px; height:30px;position:fixed; top:43%;    transform: translate(-50%, -50%);left:60%""></img>","media/stimuli/animate_003_left.png","animate","left","single","media/stimuli/inanimate_012_left.png","inanimate","left","pair","media/stimuli/animate_003_right.png","animate","right","pair","animacy_pose"
"","","","","","html-keyboard-response","133","697893","0.0-133.0","SS1678233203929","5ca3d57fa29412001687031e","6406d7f26dd5b7fc1e3377bd","6407ce6df4c0c80d9bf19b5e","1920","972","","1808","","f","","","","","","","<img src=""media/stimuli/inanimate_009_right.png"" class=""coveredImage test"" style = ""width:100px; height:100px; position:fixed; top:10%;    transform: translate(-50%, -50%);left:44.5%""></img><img src=""media/stimuli/inanimate_009_right.png"" class=""coveredImage test"" style = ""width:100px; height:100px; position:fixed; top:10%;    transform: translate(-50%, -50%);left:51.5%""></img><img src=""media/stimuli/inanimate_010_right.png"" class=""coveredImage test"" style = ""width:100px; height:100px;position:fixed; top:25%;        transform: translate(-50%, -50%);left:34.5%""></img><img src=""media/stimuli/inanimate_010_right.png"" class=""coveredImage test"" style = ""width:100px; height:100px;position:fixed; top:25%;        transform: translate(-50%, -50%);left:41.5%""></img><img src=""media/stimuli/animate_004_right.png"" class=""coveredImage test"" style = ""width:100px; height:100px;position:fixed; top:25%;        transform: translate(-50%, -50%);left:54.5%""></img><img src=""media/stimuli/animate_004_right.png"" class=""coveredImage test"" style = ""width:100px; height:100px;position:fixed; top:25%;        transform: translate(-50%, -50%);left:61.5%""></img><img src=""media/f.png""style = ""width:30px x; height:30px;position:fixed; top:43%;    transform: translate(-50%, -50%);left:40%""></img><img src=""media/j.png""style = ""width:30px; height:30px;position:fixed; top:43%;    transform: translate(-50%, -50%);left:60%""></img>","media/stimuli/inanimate_009_right.png","inanimate","right","pair","media/stimuli/inanimate_010_right.png","inanimate","right","pair","media/stimuli/animate_004_right.png","animate","right","pair","identity_animacy"
