"success","timeout","failed_images","failed_audio","failed_video","trial_type","trial_index","time_elapsed","internal_node_id","subject","prolific_id","study","session","window_width","window_height","view_history","rt","stimulus_type","response","question_order","rating_type","rating_stimulus","rating_animacy","rating_number","rating_pose","stimulus","target","target_animacy","target_pose","target_number","left","left_animacy","left_pose","left_number","right","right_animacy","right_pose","right_number","comparison_type"
"true","false","[]","[]","[]","preload","0","9588","0.0-0.0","SS1678233214674","5c8676deddda2d00012ad386","6406d7f26dd5b7fc1e3377bd","6407ce6db40f5c54c7767965","1292","672","","","","","","","","","","","","","","","","","","","","","","","",""
"","","","","","instructions","1","109547","0.0-1.0","SS1678233214674","5c8676deddda2d00012ad386","6406d7f26dd5b7fc1e3377bd","6407ce6db40f5c54c7767965","1292","672","[{""page_index"":0,""viewing_time"":99953}]","99955","","","","","","","","","","","","","","","","","","","","","",""
"","","","","","instructions","2","152602","0.0-2.0","SS1678233214674","5c8676deddda2d00012ad386","6406d7f26dd5b7fc1e3377bd","6407ce6db40f5c54c7767965","1292","672","[{""page_index"":0,""viewing_time"":41050}]","41051","instructions","","","","","","","","","","","","","","","","","","","","",""
"","","","","","instructions","3","154869","0.0-3.0","SS1678233214674","5c8676deddda2d00012ad386","6406d7f26dd5b7fc1e3377bd","6407ce6db40f5c54c7767965","1292","672","[{""page_index"":0,""viewing_time"":2264}]","2265","instructions","","","","","","","","","","","","","","","","","","","","",""
"","","","","","survey-likert","4","162651","0.0-4.0","SS1678233214674","5c8676deddda2d00012ad386","6406d7f26dd5b7fc1e3377bd","6407ce6db40f5c54c7767965","1292","672","","7776","","{""Q0"":4}","[0]","anchoring","","","","","","","","","","","","","","","","","",""
"","","","","","survey-likert","5","167968","0.0-5.0","SS1678233214674","5c8676deddda2d00012ad386","6406d7f26dd5b7fc1e3377bd","6407ce6db40f5c54c7767965","1292","672","","5307","","{""Q0"":1}","[0]","anchoring","","","","","","","","","","","","","","","","","",""
"","","","","","instructions","6","169224","0.0-6.0","SS1678233214674","5c8676deddda2d00012ad386","6406d7f26dd5b7fc1e3377bd","6407ce6db40f5c54c7767965","1292","672","[{""page_index"":0,""viewing_time"":1245}]","1246","instructions","","","","","","","","","","","","","","","","","","","","",""
"true","","","","","fullscreen","7","171102","0.0-7.0","SS1678233214674","5c8676deddda2d00012ad386","6406d7f26dd5b7fc1e3377bd","6407ce6db40f5c54c7767965","1292","672","","","","","","","","","","","","","","","","","","","","","","","",""
"","","","","","survey-likert","8","175084","0.0-8.0","SS1678233214674","5c8676deddda2d00012ad386","6406d7f26dd5b7fc1e3377bd","6407ce6db40f5c54c7767965","1292","672","","3978","","{""Q0"":1}","[0]","complexity","media/stimuli/animate_001_right.png","animate","pair","right","","","","","","","","","","","","","",""
"","","","","","survey-likert","9","178351","0.0-9.0","SS1678233214674","5c8676deddda2d00012ad386","6406d7f26dd5b7fc1e3377bd","6407ce6db40f5c54c7767965","1292","672","","3252","","{""Q0"":0}","[0]","complexity","media/stimuli/inanimate_010_left.png","inanimate","single","left","","","","","","","","","","","","","",""
"","","","","","survey-likert","10","180683","0.0-10.0","SS1678233214674","5c8676deddda2d00012ad386","6406d7f26dd5b7fc1e3377bd","6407ce6db40f5c54c7767965","1292","672","","2319","","{""Q0"":1}","[0]","complexity","media/stimuli/animate_001_left.png","animate","pair","left","","","","","","","","","","","","","",""
"","","","","","survey-likert","11","183759","0.0-11.0","SS1678233214674","5c8676deddda2d00012ad386","6406d7f26dd5b7fc1e3377bd","6407ce6db40f5c54c7767965","1292","672","","3063","","{""Q0"":0}","[0]","complexity","media/stimuli/inanimate_003_left.png","inanimate","pair","left","","","","","","","","","","","","","",""
"","","","","","survey-likert","12","185925","0.0-12.0","SS1678233214674","5c8676deddda2d00012ad386","6406d7f26dd5b7fc1e3377bd","6407ce6db40f5c54c7767965","1292","672","","2152","","{""Q0"":0}","[0]","complexity","media/stimuli/inanimate_001_right.png","inanimate","pair","right","","","","","","","","","","","","","",""
"","","","","","survey-likert","13","189515","0.0-13.0","SS1678233214674","5c8676deddda2d00012ad386","6406d7f26dd5b7fc1e3377bd","6407ce6db40f5c54c7767965","1292","672","","3576","","{""Q0"":2}","[0]","complexity","media/stimuli/inanimate_008_left.png","inanimate","pair","left","","","","","","","","","","","","","",""
"","","","","","survey-likert","14","192590","0.0-14.0","SS1678233214674","5c8676deddda2d00012ad386","6406d7f26dd5b7fc1e3377bd","6407ce6db40f5c54c7767965","1292","672","","3062","","{""Q0"":0}","[0]","complexity","media/stimuli/inanimate_003_right.png","inanimate","single","right","","","","","","","","","","","","","",""
"","","","","","survey-likert","15","195267","0.0-15.0","SS1678233214674","5c8676deddda2d00012ad386","6406d7f26dd5b7fc1e3377bd","6407ce6db40f5c54c7767965","1292","672","","2663","","{""Q0"":2}","[0]","complexity","media/stimuli/animate_008_left.png","animate","pair","left","","","","","","","","","","","","","",""
"","","","","","survey-likert","16","199024","0.0-16.0","SS1678233214674","5c8676deddda2d00012ad386","6406d7f26dd5b7fc1e3377bd","6407ce6db40f5c54c7767965","1292","672","","3742","","{""Q0"":2}","[0]","complexity","media/stimuli/animate_003_left.png","animate","pair","left","","","","","","","","","","","","","",""
"","","","","","survey-likert","17","201702","0.0-17.0","SS1678233214674","5c8676deddda2d00012ad386","6406d7f26dd5b7fc1e3377bd","6407ce6db40f5c54c7767965","1292","672","","2663","","{""Q0"":2}","[0]","complexity","media/stimuli/animate_007_right.png","animate","single","right","","","","","","","","","","","","","",""
"","","","","","survey-likert","18","204523","0.0-18.0","SS1678233214674","5c8676deddda2d00012ad386","6406d7f26dd5b7fc1e3377bd","6407ce6db40f5c54c7767965","1292","672","","2807","","{""Q0"":2}","[0]","complexity","media/stimuli/animate_012_right.png","animate","pair","right","","","","","","","","","","","","","",""
"","","","","","survey-likert","19","207049","0.0-19.0","SS1678233214674","5c8676deddda2d00012ad386","6406d7f26dd5b7fc1e3377bd","6407ce6db40f5c54c7767965","1292","672","","2514","","{""Q0"":1}","[0]","complexity","media/stimuli/animate_007_left.png","animate","pair","left","","","","","","","","","","","","","",""
"","","","","","html-keyboard-response","20","208807","0.0-20.0","SS1678233214674","5c8676deddda2d00012ad386","6406d7f26dd5b7fc1e3377bd","6407ce6db40f5c54c7767965","1292","672","","1747",""," ","","","","","","","","","","","","","","","","","","","",""
"","","","","","survey-likert","21","213379","0.0-21.0","SS1678233214674","5c8676deddda2d00012ad386","6406d7f26dd5b7fc1e3377bd","6407ce6db40f5c54c7767965","1292","672","","4568","","{""Q0"":0}","[0]","complexity","media/stimuli/inanimate_002_right.png","inanimate","single","right","","","","","","","","","","","","","",""
"","","","","","survey-likert","22","215735","0.0-22.0","SS1678233214674","5c8676deddda2d00012ad386","6406d7f26dd5b7fc1e3377bd","6407ce6db40f5c54c7767965","1292","672","","2344","","{""Q0"":1}","[0]","complexity","media/stimuli/animate_002_right.png","animate","single","right","","","","","","","","","","","","","",""
"","","","","","survey-likert","23","218443","0.0-23.0","SS1678233214674","5c8676deddda2d00012ad386","6406d7f26dd5b7fc1e3377bd","6407ce6db40f5c54c7767965","1292","672","","2696","","{""Q0"":1}","[0]","complexity","media/stimuli/inanimate_008_right.png","inanimate","single","right","","","","","","","","","","","","","",""
"","","","","","survey-likert","24","220722","0.0-24.0","SS1678233214674","5c8676deddda2d00012ad386","6406d7f26dd5b7fc1e3377bd","6407ce6db40f5c54c7767965","1292","672","","2267","","{""Q0"":0}","[0]","complexity","media/stimuli/inanimate_001_left.png","inanimate","pair","left","","","","","","","","","","","","","",""
"","","","","","survey-likert","25","225297","0.0-25.0","SS1678233214674","5c8676deddda2d00012ad386","6406d7f26dd5b7fc1e3377bd","6407ce6db40f5c54c7767965","1292","672","","4560","","{""Q0"":1}","[0]","complexity","media/stimuli/inanimate_010_left.png","inanimate","pair","left","","","","","","","","","","","","","",""
"","","","","","survey-likert","26","230313","0.0-26.0","SS1678233214674","5c8676deddda2d00012ad386","6406d7f26dd5b7fc1e3377bd","6407ce6db40f5c54c7767965","1292","672","","5002","","{""Q0"":1}","[0]","complexity","media/stimuli/inanimate_005_left.png","inanimate","single","left","","","","","","","","","","","","","",""
"","","","","","survey-likert","27","233398","0.0-27.0","SS1678233214674","5c8676deddda2d00012ad386","6406d7f26dd5b7fc1e3377bd","6407ce6db40f5c54c7767965","1292","672","","3069","","{""Q0"":2}","[0]","complexity","media/stimuli/animate_009_right.png","animate","pair","right","","","","","","","","","","","","","",""
"","","","","","survey-likert","28","236346","0.0-28.0","SS1678233214674","5c8676deddda2d00012ad386","6406d7f26dd5b7fc1e3377bd","6407ce6db40f5c54c7767965","1292","672","","2935","","{""Q0"":1}","[0]","complexity","media/stimuli/inanimate_008_right.png","inanimate","pair","right","","","","","","","","","","","","","",""
"","","","","","survey-likert","29","238884","0.0-29.0","SS1678233214674","5c8676deddda2d00012ad386","6406d7f26dd5b7fc1e3377bd","6407ce6db40f5c54c7767965","1292","672","","2520","","{""Q0"":1}","[0]","complexity","media/stimuli/inanimate_006_left.png","inanimate","single","left","","","","","","","","","","","","","",""
"","","","","","survey-likert","30","242639","0.0-30.0","SS1678233214674","5c8676deddda2d00012ad386","6406d7f26dd5b7fc1e3377bd","6407ce6db40f5c54c7767965","1292","672","","3742","","{""Q0"":2}","[0]","complexity","media/stimuli/animate_008_left.png","animate","single","left","","","","","","","","","","","","","",""
"","","","","","survey-likert","31","245357","0.0-31.0","SS1678233214674","5c8676deddda2d00012ad386","6406d7f26dd5b7fc1e3377bd","6407ce6db40f5c54c7767965","1292","672","","2705","","{""Q0"":2}","[0]","complexity","media/stimuli/animate_001_left.png","animate","single","left","","","","","","","","","","","","","",""
"","","","","","survey-likert","32","248780","0.0-32.0","SS1678233214674","5c8676deddda2d00012ad386","6406d7f26dd5b7fc1e3377bd","6407ce6db40f5c54c7767965","1292","672","","3408","","{""Q0"":1}","[0]","complexity","media/stimuli/inanimate_011_left.png","inanimate","pair","left","","","","","","","","","","","","","",""
"","","","","","html-keyboard-response","33","250314","0.0-33.0","SS1678233214674","5c8676deddda2d00012ad386","6406d7f26dd5b7fc1e3377bd","6407ce6db40f5c54c7767965","1292","672","","1521",""," ","","","","","","","","","","","","","","","","","","","",""
"","","","","","survey-likert","34","252470","0.0-34.0","SS1678233214674","5c8676deddda2d00012ad386","6406d7f26dd5b7fc1e3377bd","6407ce6db40f5c54c7767965","1292","672","","2151","","{""Q0"":2}","[0]","complexity","media/stimuli/animate_011_right.png","animate","single","right","","","","","","","","","","","","","",""
"","","","","","survey-likert","35","254778","0.0-35.0","SS1678233214674","5c8676deddda2d00012ad386","6406d7f26dd5b7fc1e3377bd","6407ce6db40f5c54c7767965","1292","672","","2293","","{""Q0"":1}","[0]","complexity","media/stimuli/inanimate_011_right.png","inanimate","pair","right","","","","","","","","","","","","","",""
"","","","","","survey-likert","36","256750","0.0-36.0","SS1678233214674","5c8676deddda2d00012ad386","6406d7f26dd5b7fc1e3377bd","6407ce6db40f5c54c7767965","1292","672","","1957","","{""Q0"":2}","[0]","complexity","media/stimuli/animate_006_right.png","animate","single","right","","","","","","","","","","","","","",""
"","","","","","survey-likert","37","262517","0.0-37.0","SS1678233214674","5c8676deddda2d00012ad386","6406d7f26dd5b7fc1e3377bd","6407ce6db40f5c54c7767965","1292","672","","5753","","{""Q0"":1}","[0]","complexity","media/stimuli/animate_010_right.png","animate","single","right","","","","","","","","","","","","","",""
"","","","","","survey-likert","38","265212","0.0-38.0","SS1678233214674","5c8676deddda2d00012ad386","6406d7f26dd5b7fc1e3377bd","6407ce6db40f5c54c7767965","1292","672","","2681","","{""Q0"":1}","[0]","complexity","media/stimuli/inanimate_006_left.png","inanimate","pair","left","","","","","","","","","","","","","",""
"","","","","","survey-likert","39","268387","0.0-39.0","SS1678233214674","5c8676deddda2d00012ad386","6406d7f26dd5b7fc1e3377bd","6407ce6db40f5c54c7767965","1292","672","","3160","","{""Q0"":1}","[0]","complexity","media/stimuli/inanimate_006_right.png","inanimate","pair","right","","","","","","","","","","","","","",""
"","","","","","survey-likert","40","276842","0.0-40.0","SS1678233214674","5c8676deddda2d00012ad386","6406d7f26dd5b7fc1e3377bd","6407ce6db40f5c54c7767965","1292","672","","8440","","{""Q0"":0}","[0]","complexity","media/stimuli/inanimate_004_left.png","inanimate","single","left","","","","","","","","","","","","","",""
"","","","","","survey-likert","41","280234","0.0-41.0","SS1678233214674","5c8676deddda2d00012ad386","6406d7f26dd5b7fc1e3377bd","6407ce6db40f5c54c7767965","1292","672","","3379","","{""Q0"":1}","[0]","complexity","media/stimuli/animate_009_left.png","animate","pair","left","","","","","","","","","","","","","",""
"","","","","","survey-likert","42","282257","0.0-42.0","SS1678233214674","5c8676deddda2d00012ad386","6406d7f26dd5b7fc1e3377bd","6407ce6db40f5c54c7767965","1292","672","","2007","","{""Q0"":2}","[0]","complexity","media/stimuli/animate_004_right.png","animate","pair","right","","","","","","","","","","","","","",""
"","","","","","survey-likert","43","284827","0.0-43.0","SS1678233214674","5c8676deddda2d00012ad386","6406d7f26dd5b7fc1e3377bd","6407ce6db40f5c54c7767965","1292","672","","2556","","{""Q0"":0}","[0]","complexity","media/stimuli/inanimate_001_left.png","inanimate","single","left","","","","","","","","","","","","","",""
"","","","","","survey-likert","44","286433","0.0-44.0","SS1678233214674","5c8676deddda2d00012ad386","6406d7f26dd5b7fc1e3377bd","6407ce6db40f5c54c7767965","1292","672","","1590","","{""Q0"":0}","[0]","complexity","media/stimuli/inanimate_002_right.png","inanimate","pair","right","","","","","","","","","","","","","",""
"","","","","","survey-likert","45","292670","0.0-45.0","SS1678233214674","5c8676deddda2d00012ad386","6406d7f26dd5b7fc1e3377bd","6407ce6db40f5c54c7767965","1292","672","","6219","","{""Q0"":1}","[0]","complexity","media/stimuli/animate_004_left.png","animate","single","left","","","","","","","","","","","","","",""
"","","","","","html-keyboard-response","46","293548","0.0-46.0","SS1678233214674","5c8676deddda2d00012ad386","6406d7f26dd5b7fc1e3377bd","6407ce6db40f5c54c7767965","1292","672","","865",""," ","","","","","","","","","","","","","","","","","","","",""
"","","","","","html-keyboard-response","47","302382","0.0-47.0","SS1678233214674","5c8676deddda2d00012ad386","6406d7f26dd5b7fc1e3377bd","6407ce6db40f5c54c7767965","1292","672","","8827","","j","","","","","","","<img src=""media/stimuli/animate_005_right.png"" class=""coveredImage test"" style = ""width:100px; height:100px; position:fixed; top:10%;    transform: translate(-50%, -50%);left:48%""></img><img src=""media/stimuli/animate_004_right.png"" class=""coveredImage test"" style = ""width:100px; height:100px;position:fixed; top:25%;        transform: translate(-50%, -50%);left:38%""></img><img src=""media/stimuli/animate_005_left.png"" class=""coveredImage test"" style = ""width:100px; height:100px;position:fixed; top:25%;        transform: translate(-50%, -50%);left:58%""></img><img src=""media/f.png""style = ""width:30px x; height:30px;position:fixed; top:43%;    transform: translate(-50%, -50%);left:40%""></img><img src=""media/j.png""style = ""width:30px; height:30px;position:fixed; top:43%;    transform: translate(-50%, -50%);left:60%""></img>","media/stimuli/animate_005_right.png","animate","right","single","media/stimuli/animate_004_right.png","animate","right","single","media/stimuli/animate_005_left.png","animate","left","single","identity_pose"
"","","","","","html-keyboard-response","48","308108","0.0-48.0","SS1678233214674","5c8676deddda2d00012ad386","6406d7f26dd5b7fc1e3377bd","6407ce6db40f5c54c7767965","1292","672","","5716","","j","","","","","","","<img src=""media/stimuli/inanimate_007_right.png"" class=""coveredImage test"" style = ""width:100px; height:100px; position:fixed; top:10%;    transform: translate(-50%, -50%);left:48%""></img><img src=""media/stimuli/animate_009_left.png"" class=""coveredImage test"" style = ""width:100px; height:100px;position:fixed; top:25%;        transform: translate(-50%, -50%);left:38%""></img><img src=""media/stimuli/inanimate_007_right.png"" class=""coveredImage test"" style = ""width:100px; height:100px;position:fixed; top:25%;        transform: translate(-50%, -50%);left:58%""></img><img src=""media/f.png""style = ""width:30px x; height:30px;position:fixed; top:43%;    transform: translate(-50%, -50%);left:40%""></img><img src=""media/j.png""style = ""width:30px; height:30px;position:fixed; top:43%;    transform: translate(-50%, -50%);left:60%""></img>","media/stimuli/inanimate_007_right.png","inanimate","right","single","media/stimuli/animate_009_left.png","animate","left","single","media/stimuli/inanimate_007_right.png","inanimate","right","single","animacy_pose"
"","","","","","html-keyboard-response","49","309545","0.0-49.0","SS1678233214674","5c8676deddda2d00012ad386","6406d7f26dd5b7fc1e3377bd","6407ce6db40f5c54c7767965","1292","672","","1426","","f","","","","","","","<img src=""media/stimuli/inanimate_011_right.png"" class=""coveredImage test"" style = ""width:100px; height:100px; position:fixed; top:10%;    transform: translate(-50%, -50%);left:48%""></img><img src=""media/stimuli/inanimate_011_right.png"" class=""coveredImage test"" style = ""width:100px; height:100px;position:fixed; top:25%;        transform: translate(-50%, -50%);left:34.5%""></img><img src=""media/stimuli/inanimate_011_right.png"" class=""coveredImage test"" style = ""width:100px; height:100px;position:fixed; top:25%;        transform: translate(-50%, -50%);left:41.5%""></img><img src=""media/stimuli/inanimate_003_right.png"" class=""coveredImage test"" style = ""width:100px; height:100px;position:fixed; top:25%;        transform: translate(-50%, -50%);left:58%""></img><img src=""media/f.png""style = ""width:30px x; height:30px;position:fixed; top:43%;    transform: translate(-50%, -50%);left:40%""></img><img src=""media/j.png""style = ""width:30px; height:30px;position:fixed; top:43%;    transform: translate(-50%, -50%);left:60%""></img>","media/stimuli/inanimate_011_right.png","inanimate","right","single","media/stimuli/inanimate_011_right.png","inanimate","right","pair","media/stimuli/inanimate_003_right.png","inanimate","right","single","number_identity"
"","","","","","html-keyboard-response","50","310495","0.0-50.0","SS1678233214674","5c8676deddda2d00012ad386","6406d7f26dd5b7fc1e3377bd","6407ce6db40f5c54c7767965","1292","672","","939","","j","","","","","","","<img src=""media/stimuli/animate_003_right.png"" class=""coveredImage test"" style = ""width:100px; height:100px; position:fixed; top:10%;    transform: translate(-50%, -50%);left:44.5%""></img><img src=""media/stimuli/animate_003_right.png"" class=""coveredImage test"" style = ""width:100px; height:100px; position:fixed; top:10%;    transform: translate(-50%, -50%);left:51.5%""></img><img src=""media/stimuli/animate_011_right.png"" class=""coveredImage test"" style = ""width:100px; height:100px;position:fixed; top:25%;        transform: translate(-50%, -50%);left:34.5%""></img><img src=""media/stimuli/animate_011_right.png"" class=""coveredImage test"" style = ""width:100px; height:100px;position:fixed; top:25%;        transform: translate(-50%, -50%);left:41.5%""></img><img src=""media/stimuli/animate_003_right.png"" class=""coveredImage test"" style = ""width:100px; height:100px;position:fixed; top:25%;        transform: translate(-50%, -50%);left:58%""></img><img src=""media/f.png""style = ""width:30px x; height:30px;position:fixed; top:43%;    transform: translate(-50%, -50%);left:40%""></img><img src=""media/j.png""style = ""width:30px; height:30px;position:fixed; top:43%;    transform: translate(-50%, -50%);left:60%""></img>","media/stimuli/animate_003_right.png","animate","right","pair","media/stimuli/animate_011_right.png","animate","right","pair","media/stimuli/animate_003_right.png","animate","right","single","identity_number"
"","","","","","html-keyboard-response","51","311496","0.0-51.0","SS1678233214674","5c8676deddda2d00012ad386","6406d7f26dd5b7fc1e3377bd","6407ce6db40f5c54c7767965","1292","672","","992","","f","","","","","","","<img src=""media/stimuli/inanimate_003_left.png"" class=""coveredImage test"" style = ""width:100px; height:100px; position:fixed; top:10%;    transform: translate(-50%, -50%);left:48%""></img><img src=""media/stimuli/inanimate_003_right.png"" class=""coveredImage test"" style = ""width:100px; height:100px;position:fixed; top:25%;        transform: translate(-50%, -50%);left:38%""></img><img src=""media/stimuli/inanimate_001_left.png"" class=""coveredImage test"" style = ""width:100px; height:100px;position:fixed; top:25%;        transform: translate(-50%, -50%);left:58%""></img><img src=""media/f.png""style = ""width:30px x; height:30px;position:fixed; top:43%;    transform: translate(-50%, -50%);left:40%""></img><img src=""media/j.png""style = ""width:30px; height:30px;position:fixed; top:43%;    transform: translate(-50%, -50%);left:60%""></img>","media/stimuli/inanimate_003_left.png","inanimate","left","single","media/stimuli/inanimate_003_right.png","inanimate","right","single","media/stimuli/inanimate_001_left.png","inanimate","left","single","pose_identity"
"","","","","","html-keyboard-response","52","312329","0.0-52.0","SS1678233214674","5c8676deddda2d00012ad386","6406d7f26dd5b7fc1e3377bd","6407ce6db40f5c54c7767965","1292","672","","824","","j","","","","","","","<img src=""media/stimuli/animate_006_left.png"" class=""coveredImage test"" style = ""width:100px; height:100px; position:fixed; top:10%;    transform: translate(-50%, -50%);left:44.5%""></img><img src=""media/stimuli/animate_006_left.png"" class=""coveredImage test"" style = ""width:100px; height:100px; position:fixed; top:10%;    transform: translate(-50%, -50%);left:51.5%""></img><img src=""media/stimuli/inanimate_005_right.png"" class=""coveredImage test"" style = ""width:100px; height:100px;position:fixed; top:25%;        transform: translate(-50%, -50%);left:34.5%""></img><img src=""media/stimuli/inanimate_005_right.png"" class=""coveredImage test"" style = ""width:100px; height:100px;position:fixed; top:25%;        transform: translate(-50%, -50%);left:41.5%""></img><img src=""media/stimuli/animate_006_left.png"" class=""coveredImage test"" style = ""width:100px; height:100px;position:fixed; top:25%;        transform: translate(-50%, -50%);left:54.5%""></img><img src=""media/stimuli/animate_006_left.png"" class=""coveredImage test"" style = ""width:100px; height:100px;position:fixed; top:25%;        transform: translate(-50%, -50%);left:61.5%""></img><img src=""media/f.png""style = ""width:30px x; height:30px;position:fixed; top:43%;    transform: translate(-50%, -50%);left:40%""></img><img src=""media/j.png""style = ""width:30px; height:30px;position:fixed; top:43%;    transform: translate(-50%, -50%);left:60%""></img>","media/stimuli/animate_006_left.png","animate","left","pair","media/stimuli/inanimate_005_right.png","inanimate","right","pair","media/stimuli/animate_006_left.png","animate","left","pair","animacy_pose"
"","","","","","html-keyboard-response","53","313223","0.0-53.0","SS1678233214674","5c8676deddda2d00012ad386","6406d7f26dd5b7fc1e3377bd","6407ce6db40f5c54c7767965","1292","672","","886","","j","","","","","","","<img src=""media/stimuli/inanimate_001_right.png"" class=""coveredImage test"" style = ""width:100px; height:100px; position:fixed; top:10%;    transform: translate(-50%, -50%);left:48%""></img><img src=""media/stimuli/inanimate_001_left.png"" class=""coveredImage test"" style = ""width:100px; height:100px;position:fixed; top:25%;        transform: translate(-50%, -50%);left:38%""></img><img src=""media/stimuli/inanimate_001_right.png"" class=""coveredImage test"" style = ""width:100px; height:100px;position:fixed; top:25%;        transform: translate(-50%, -50%);left:54.5%""></img><img src=""media/stimuli/inanimate_001_right.png"" class=""coveredImage test"" style = ""width:100px; height:100px;position:fixed; top:25%;        transform: translate(-50%, -50%);left:61.5%""></img><img src=""media/f.png""style = ""width:30px x; height:30px;position:fixed; top:43%;    transform: translate(-50%, -50%);left:40%""></img><img src=""media/j.png""style = ""width:30px; height:30px;position:fixed; top:43%;    transform: translate(-50%, -50%);left:60%""></img>","media/stimuli/inanimate_001_right.png","inanimate","right","single","media/stimuli/inanimate_001_left.png","inanimate","left","single","media/stimuli/inanimate_001_right.png","inanimate","right","pair","pose_number"
"","","","","","html-keyboard-response","54","314603","0.0-54.0","SS1678233214674","5c8676deddda2d00012ad386","6406d7f26dd5b7fc1e3377bd","6407ce6db40f5c54c7767965","1292","672","","1371","","f","","","","","","","<img src=""media/stimuli/inanimate_008_right.png"" class=""coveredImage test"" style = ""width:100px; height:100px; position:fixed; top:10%;    transform: translate(-50%, -50%);left:44.5%""></img><img src=""media/stimuli/inanimate_008_right.png"" class=""coveredImage test"" style = ""width:100px; height:100px; position:fixed; top:10%;    transform: translate(-50%, -50%);left:51.5%""></img><img src=""media/stimuli/inanimate_011_right.png"" class=""coveredImage test"" style = ""width:100px; height:100px;position:fixed; top:25%;        transform: translate(-50%, -50%);left:34.5%""></img><img src=""media/stimuli/inanimate_011_right.png"" class=""coveredImage test"" style = ""width:100px; height:100px;position:fixed; top:25%;        transform: translate(-50%, -50%);left:41.5%""></img><img src=""media/stimuli/animate_009_right.png"" class=""coveredImage test"" style = ""width:100px; height:100px;position:fixed; top:25%;        transform: translate(-50%, -50%);left:54.5%""></img><img src=""media/stimuli/animate_009_right.png"" class=""coveredImage test"" style = ""width:100px; height:100px;position:fixed; top:25%;        transform: translate(-50%, -50%);left:61.5%""></img><img src=""media/f.png""style = ""width:30px x; height:30px;position:fixed; top:43%;    transform: translate(-50%, -50%);left:40%""></img><img src=""media/j.png""style = ""width:30px; height:30px;position:fixed; top:43%;    transform: translate(-50%, -50%);left:60%""></img>","media/stimuli/inanimate_008_right.png","inanimate","right","pair","media/stimuli/inanimate_011_right.png","inanimate","right","pair","media/stimuli/animate_009_right.png","animate","right","pair","identity_animacy"
"","","","","","html-keyboard-response","55","316156","0.0-55.0","SS1678233214674","5c8676deddda2d00012ad386","6406d7f26dd5b7fc1e3377bd","6407ce6db40f5c54c7767965","1292","672","","1543","","j","","","","","","","<img src=""media/stimuli/inanimate_003_left.png"" class=""coveredImage test"" style = ""width:100px; height:100px; position:fixed; top:10%;    transform: translate(-50%, -50%);left:48%""></img><img src=""media/stimuli/inanimate_009_left.png"" class=""coveredImage test"" style = ""width:100px; height:100px;position:fixed; top:25%;        transform: translate(-50%, -50%);left:38%""></img><img src=""media/stimuli/inanimate_003_right.png"" class=""coveredImage test"" style = ""width:100px; height:100px;position:fixed; top:25%;        transform: translate(-50%, -50%);left:58%""></img><img src=""media/f.png""style = ""width:30px x; height:30px;position:fixed; top:43%;    transform: translate(-50%, -50%);left:40%""></img><img src=""media/j.png""style = ""width:30px; height:30px;position:fixed; top:43%;    transform: translate(-50%, -50%);left:60%""></img>","media/stimuli/inanimate_003_left.png","inanimate","left","single","media/stimuli/inanimate_009_left.png","inanimate","left","single","media/stimuli/inanimate_003_right.png","inanimate","right","single","identity_pose"
"","","","","","html-keyboard-response","56","318959","0.0-56.0","SS1678233214674","5c8676deddda2d00012ad386","6406d7f26dd5b7fc1e3377bd","6407ce6db40f5c54c7767965","1292","672","","2792","","j","","","","","","","<img src=""media/stimuli/animate_006_right.png"" class=""coveredImage test"" style = ""width:100px; height:100px; position:fixed; top:10%;    transform: translate(-50%, -50%);left:48%""></img><img src=""media/stimuli/animate_006_right.png"" class=""coveredImage test"" style = ""width:100px; height:100px;position:fixed; top:25%;        transform: translate(-50%, -50%);left:34.5%""></img><img src=""media/stimuli/animate_006_right.png"" class=""coveredImage test"" style = ""width:100px; height:100px;position:fixed; top:25%;        transform: translate(-50%, -50%);left:41.5%""></img><img src=""media/stimuli/animate_006_left.png"" class=""coveredImage test"" style = ""width:100px; height:100px;position:fixed; top:25%;        transform: translate(-50%, -50%);left:58%""></img><img src=""media/f.png""style = ""width:30px x; height:30px;position:fixed; top:43%;    transform: translate(-50%, -50%);left:40%""></img><img src=""media/j.png""style = ""width:30px; height:30px;position:fixed; top:43%;    transform: translate(-50%, -50%);left:60%""></img>","media/stimuli/animate_006_right.png","animate","right","single","media/stimuli/animate_006_right.png","animate","right","pair","media/stimuli/animate_006_left.png","animate","left","single","number_pose"
"","","","","","html-keyboard-response","57","320992","0.0-57.0","SS1678233214674","5c8676deddda2d00012ad386","6406d7f26dd5b7fc1e3377bd","6407ce6db40f5c54c7767965","1292","672","","2022","","j","","","","","","","<img src=""media/stimuli/animate_003_left.png"" class=""coveredImage test"" style = ""width:100px; height:100px; position:fixed; top:10%;    transform: translate(-50%, -50%);left:48%""></img><img src=""media/stimuli/inanimate_009_left.png"" class=""coveredImage test"" style = ""width:100px; height:100px;position:fixed; top:25%;        transform: translate(-50%, -50%);left:38%""></img><img src=""media/stimuli/animate_004_left.png"" class=""coveredImage test"" style = ""width:100px; height:100px;position:fixed; top:25%;        transform: translate(-50%, -50%);left:58%""></img><img src=""media/f.png""style = ""width:30px x; height:30px;position:fixed; top:43%;    transform: translate(-50%, -50%);left:40%""></img><img src=""media/j.png""style = ""width:30px; height:30px;position:fixed; top:43%;    transform: translate(-50%, -50%);left:60%""></img>","media/stimuli/animate_003_left.png","animate","left","single","media/stimuli/inanimate_009_left.png","inanimate","left","single","media/stimuli/animate_004_left.png","animate","left","single","animacy_identity"
"","","","","","html-keyboard-response","58","322446","0.0-58.0","SS1678233214674","5c8676deddda2d00012ad386","6406d7f26dd5b7fc1e3377bd","6407ce6db40f5c54c7767965","1292","672","","1441","","j","","","","","","","<img src=""media/stimuli/inanimate_004_left.png"" class=""coveredImage test"" style = ""width:100px; height:100px; position:fixed; top:10%;    transform: translate(-50%, -50%);left:44.5%""></img><img src=""media/stimuli/inanimate_004_left.png"" class=""coveredImage test"" style = ""width:100px; height:100px; position:fixed; top:10%;    transform: translate(-50%, -50%);left:51.5%""></img><img src=""media/stimuli/inanimate_007_left.png"" class=""coveredImage test"" style = ""width:100px; height:100px;position:fixed; top:25%;        transform: translate(-50%, -50%);left:34.5%""></img><img src=""media/stimuli/inanimate_007_left.png"" class=""coveredImage test"" style = ""width:100px; height:100px;position:fixed; top:25%;        transform: translate(-50%, -50%);left:41.5%""></img><img src=""media/stimuli/inanimate_004_right.png"" class=""coveredImage test"" style = ""width:100px; height:100px;position:fixed; top:25%;        transform: translate(-50%, -50%);left:54.5%""></img><img src=""media/stimuli/inanimate_004_right.png"" class=""coveredImage test"" style = ""width:100px; height:100px;position:fixed; top:25%;        transform: translate(-50%, -50%);left:61.5%""></img><img src=""media/f.png""style = ""width:30px x; height:30px;position:fixed; top:43%;    transform: translate(-50%, -50%);left:40%""></img><img src=""media/j.png""style = ""width:30px; height:30px;position:fixed; top:43%;    transform: translate(-50%, -50%);left:60%""></img>","media/stimuli/inanimate_004_left.png","inanimate","left","pair","media/stimuli/inanimate_007_left.png","inanimate","left","pair","media/stimuli/inanimate_004_right.png","inanimate","right","pair","identity_pose"
"","","","","","html-keyboard-response","59","323741","0.0-59.0","SS1678233214674","5c8676deddda2d00012ad386","6406d7f26dd5b7fc1e3377bd","6407ce6db40f5c54c7767965","1292","672","","1286",""," ","","","","","","","","","","","","","","","","","","","",""
"","","","","","html-keyboard-response","60","326925","0.0-60.0","SS1678233214674","5c8676deddda2d00012ad386","6406d7f26dd5b7fc1e3377bd","6407ce6db40f5c54c7767965","1292","672","","3173","","j","","","","","","","<img src=""media/stimuli/animate_001_left.png"" class=""coveredImage test"" style = ""width:100px; height:100px; position:fixed; top:10%;    transform: translate(-50%, -50%);left:44.5%""></img><img src=""media/stimuli/animate_001_left.png"" class=""coveredImage test"" style = ""width:100px; height:100px; position:fixed; top:10%;    transform: translate(-50%, -50%);left:51.5%""></img><img src=""media/stimuli/inanimate_010_left.png"" class=""coveredImage test"" style = ""width:100px; height:100px;position:fixed; top:25%;        transform: translate(-50%, -50%);left:34.5%""></img><img src=""media/stimuli/inanimate_010_left.png"" class=""coveredImage test"" style = ""width:100px; height:100px;position:fixed; top:25%;        transform: translate(-50%, -50%);left:41.5%""></img><img src=""media/stimuli/animate_004_left.png"" class=""coveredImage test"" style = ""width:100px; height:100px;position:fixed; top:25%;        transform: translate(-50%, -50%);left:54.5%""></img><img src=""media/stimuli/animate_004_left.png"" class=""coveredImage test"" style = ""width:100px; height:100px;position:fixed; top:25%;        transform: translate(-50%, -50%);left:61.5%""></img><img src=""media/f.png""style = ""width:30px x; height:30px;position:fixed; top:43%;    transform: translate(-50%, -50%);left:40%""></img><img src=""media/j.png""style = ""width:30px; height:30px;position:fixed; top:43%;    transform: translate(-50%, -50%);left:60%""></img>","media/stimuli/animate_001_left.png","animate","left","pair","media/stimuli/inanimate_010_left.png","inanimate","left","pair","media/stimuli/animate_004_left.png","animate","left","pair","animacy_identity"
"","","","","","html-keyboard-response","61","327834","0.0-61.0","SS1678233214674","5c8676deddda2d00012ad386","6406d7f26dd5b7fc1e3377bd","6407ce6db40f5c54c7767965","1292","672","","901","","j","","","","","","","<img src=""media/stimuli/inanimate_006_left.png"" class=""coveredImage test"" style = ""width:100px; height:100px; position:fixed; top:10%;    transform: translate(-50%, -50%);left:44.5%""></img><img src=""media/stimuli/inanimate_006_left.png"" class=""coveredImage test"" style = ""width:100px; height:100px; position:fixed; top:10%;    transform: translate(-50%, -50%);left:51.5%""></img><img src=""media/stimuli/animate_012_right.png"" class=""coveredImage test"" style = ""width:100px; height:100px;position:fixed; top:25%;        transform: translate(-50%, -50%);left:34.5%""></img><img src=""media/stimuli/animate_012_right.png"" class=""coveredImage test"" style = ""width:100px; height:100px;position:fixed; top:25%;        transform: translate(-50%, -50%);left:41.5%""></img><img src=""media/stimuli/inanimate_006_left.png"" class=""coveredImage test"" style = ""width:100px; height:100px;position:fixed; top:25%;        transform: translate(-50%, -50%);left:54.5%""></img><img src=""media/stimuli/inanimate_006_left.png"" class=""coveredImage test"" style = ""width:100px; height:100px;position:fixed; top:25%;        transform: translate(-50%, -50%);left:61.5%""></img><img src=""media/f.png""style = ""width:30px x; height:30px;position:fixed; top:43%;    transform: translate(-50%, -50%);left:40%""></img><img src=""media/j.png""style = ""width:30px; height:30px;position:fixed; top:43%;    transform: translate(-50%, -50%);left:60%""></img>","media/stimuli/inanimate_006_left.png","inanimate","left","pair","media/stimuli/animate_012_right.png","animate","right","pair","media/stimuli/inanimate_006_left.png","inanimate","left","pair","animacy_pose"
"","","","","","html-keyboard-response","62","328504","0.0-62.0","SS1678233214674","5c8676deddda2d00012ad386","6406d7f26dd5b7fc1e3377bd","6407ce6db40f5c54c7767965","1292","672","","657","","j","","","","","","","<img src=""media/stimuli/inanimate_003_left.png"" class=""coveredImage test"" style = ""width:100px; height:100px; position:fixed; top:10%;    transform: translate(-50%, -50%);left:48%""></img><img src=""media/stimuli/inanimate_012_left.png"" class=""coveredImage test"" style = ""width:100px; height:100px;position:fixed; top:25%;        transform: translate(-50%, -50%);left:38%""></img><img src=""media/stimuli/inanimate_003_left.png"" class=""coveredImage test"" style = ""width:100px; height:100px;position:fixed; top:25%;        transform: translate(-50%, -50%);left:54.5%""></img><img src=""media/stimuli/inanimate_003_left.png"" class=""coveredImage test"" style = ""width:100px; height:100px;position:fixed; top:25%;        transform: translate(-50%, -50%);left:61.5%""></img><img src=""media/f.png""style = ""width:30px x; height:30px;position:fixed; top:43%;    transform: translate(-50%, -50%);left:40%""></img><img src=""media/j.png""style = ""width:30px; height:30px;position:fixed; top:43%;    transform: translate(-50%, -50%);left:60%""></img>","media/stimuli/inanimate_003_left.png","inanimate","left","single","media/stimuli/inanimate_012_left.png","inanimate","left","single","media/stimuli/inanimate_003_left.png","inanimate","left","pair","identity_number"
"","","","","","html-keyboard-response","63","329561","0.0-63.0","SS1678233214674","5c8676deddda2d00012ad386","6406d7f26dd5b7fc1e3377bd","6407ce6db40f5c54c7767965","1292","672","","1045","","j","","","","","","","<img src=""media/stimuli/animate_010_left.png"" class=""coveredImage test"" style = ""width:100px; height:100px; position:fixed; top:10%;    transform: translate(-50%, -50%);left:44.5%""></img><img src=""media/stimuli/animate_010_left.png"" class=""coveredImage test"" style = ""width:100px; height:100px; position:fixed; top:10%;    transform: translate(-50%, -50%);left:51.5%""></img><img src=""media/stimuli/animate_001_left.png"" class=""coveredImage test"" style = ""width:100px; height:100px;position:fixed; top:25%;        transform: translate(-50%, -50%);left:34.5%""></img><img src=""media/stimuli/animate_001_left.png"" class=""coveredImage test"" style = ""width:100px; height:100px;position:fixed; top:25%;        transform: translate(-50%, -50%);left:41.5%""></img><img src=""media/stimuli/animate_010_right.png"" class=""coveredImage test"" style = ""width:100px; height:100px;position:fixed; top:25%;        transform: translate(-50%, -50%);left:54.5%""></img><img src=""media/stimuli/animate_010_right.png"" class=""coveredImage test"" style = ""width:100px; height:100px;position:fixed; top:25%;        transform: translate(-50%, -50%);left:61.5%""></img><img src=""media/f.png""style = ""width:30px x; height:30px;position:fixed; top:43%;    transform: translate(-50%, -50%);left:40%""></img><img src=""media/j.png""style = ""width:30px; height:30px;position:fixed; top:43%;    transform: translate(-50%, -50%);left:60%""></img>","media/stimuli/animate_010_left.png","animate","left","pair","media/stimuli/animate_001_left.png","animate","left","pair","media/stimuli/animate_010_right.png","animate","right","pair","identity_pose"
"","","","","","html-keyboard-response","64","330619","0.0-64.0","SS1678233214674","5c8676deddda2d00012ad386","6406d7f26dd5b7fc1e3377bd","6407ce6db40f5c54c7767965","1292","672","","1046","","j","","","","","","","<img src=""media/stimuli/inanimate_010_right.png"" class=""coveredImage test"" style = ""width:100px; height:100px; position:fixed; top:10%;    transform: translate(-50%, -50%);left:44.5%""></img><img src=""media/stimuli/inanimate_010_right.png"" class=""coveredImage test"" style = ""width:100px; height:100px; position:fixed; top:10%;    transform: translate(-50%, -50%);left:51.5%""></img><img src=""media/stimuli/inanimate_010_right.png"" class=""coveredImage test"" style = ""width:100px; height:100px;position:fixed; top:25%;        transform: translate(-50%, -50%);left:38%""></img><img src=""media/stimuli/inanimate_010_left.png"" class=""coveredImage test"" style = ""width:100px; height:100px;position:fixed; top:25%;        transform: translate(-50%, -50%);left:54.5%""></img><img src=""media/stimuli/inanimate_010_left.png"" class=""coveredImage test"" style = ""width:100px; height:100px;position:fixed; top:25%;        transform: translate(-50%, -50%);left:61.5%""></img><img src=""media/f.png""style = ""width:30px x; height:30px;position:fixed; top:43%;    transform: translate(-50%, -50%);left:40%""></img><img src=""media/j.png""style = ""width:30px; height:30px;position:fixed; top:43%;    transform: translate(-50%, -50%);left:60%""></img>","media/stimuli/inanimate_010_right.png","inanimate","right","pair","media/stimuli/inanimate_010_right.png","inanimate","right","single","media/stimuli/inanimate_010_left.png","inanimate","left","pair","number_pose"
"","","","","","html-keyboard-response","65","332015","0.0-65.0","SS1678233214674","5c8676deddda2d00012ad386","6406d7f26dd5b7fc1e3377bd","6407ce6db40f5c54c7767965","1292","672","","1386","","j","","","","","","","<img src=""media/stimuli/animate_005_right.png"" class=""coveredImage test"" style = ""width:100px; height:100px; position:fixed; top:10%;    transform: translate(-50%, -50%);left:44.5%""></img><img src=""media/stimuli/animate_005_right.png"" class=""coveredImage test"" style = ""width:100px; height:100px; position:fixed; top:10%;    transform: translate(-50%, -50%);left:51.5%""></img><img src=""media/stimuli/inanimate_001_right.png"" class=""coveredImage test"" style = ""width:100px; height:100px;position:fixed; top:25%;        transform: translate(-50%, -50%);left:34.5%""></img><img src=""media/stimuli/inanimate_001_right.png"" class=""coveredImage test"" style = ""width:100px; height:100px;position:fixed; top:25%;        transform: translate(-50%, -50%);left:41.5%""></img><img src=""media/stimuli/animate_007_right.png"" class=""coveredImage test"" style = ""width:100px; height:100px;position:fixed; top:25%;        transform: translate(-50%, -50%);left:54.5%""></img><img src=""media/stimuli/animate_007_right.png"" class=""coveredImage test"" style = ""width:100px; height:100px;position:fixed; top:25%;        transform: translate(-50%, -50%);left:61.5%""></img><img src=""media/f.png""style = ""width:30px x; height:30px;position:fixed; top:43%;    transform: translate(-50%, -50%);left:40%""></img><img src=""media/j.png""style = ""width:30px; height:30px;position:fixed; top:43%;    transform: translate(-50%, -50%);left:60%""></img>","media/stimuli/animate_005_right.png","animate","right","pair","media/stimuli/inanimate_001_right.png","inanimate","right","pair","media/stimuli/animate_007_right.png","animate","right","pair","animacy_identity"
"","","","","","html-keyboard-response","66","333026","0.0-66.0","SS1678233214674","5c8676deddda2d00012ad386","6406d7f26dd5b7fc1e3377bd","6407ce6db40f5c54c7767965","1292","672","","999","","j","","","","","","","<img src=""media/stimuli/animate_001_left.png"" class=""coveredImage test"" style = ""width:100px; height:100px; position:fixed; top:10%;    transform: translate(-50%, -50%);left:44.5%""></img><img src=""media/stimuli/animate_001_left.png"" class=""coveredImage test"" style = ""width:100px; height:100px; position:fixed; top:10%;    transform: translate(-50%, -50%);left:51.5%""></img><img src=""media/stimuli/inanimate_012_left.png"" class=""coveredImage test"" style = ""width:100px; height:100px;position:fixed; top:25%;        transform: translate(-50%, -50%);left:34.5%""></img><img src=""media/stimuli/inanimate_012_left.png"" class=""coveredImage test"" style = ""width:100px; height:100px;position:fixed; top:25%;        transform: translate(-50%, -50%);left:41.5%""></img><img src=""media/stimuli/animate_004_left.png"" class=""coveredImage test"" style = ""width:100px; height:100px;position:fixed; top:25%;        transform: translate(-50%, -50%);left:54.5%""></img><img src=""media/stimuli/animate_004_left.png"" class=""coveredImage test"" style = ""width:100px; height:100px;position:fixed; top:25%;        transform: translate(-50%, -50%);left:61.5%""></img><img src=""media/f.png""style = ""width:30px x; height:30px;position:fixed; top:43%;    transform: translate(-50%, -50%);left:40%""></img><img src=""media/j.png""style = ""width:30px; height:30px;position:fixed; top:43%;    transform: translate(-50%, -50%);left:60%""></img>","media/stimuli/animate_001_left.png","animate","left","pair","media/stimuli/inanimate_012_left.png","inanimate","left","pair","media/stimuli/animate_004_left.png","animate","left","pair","animacy_identity"
"","","","","","html-keyboard-response","67","334348","0.0-67.0","SS1678233214674","5c8676deddda2d00012ad386","6406d7f26dd5b7fc1e3377bd","6407ce6db40f5c54c7767965","1292","672","","1309","","f","","","","","","","<img src=""media/stimuli/animate_007_right.png"" class=""coveredImage test"" style = ""width:100px; height:100px; position:fixed; top:10%;    transform: translate(-50%, -50%);left:48%""></img><img src=""media/stimuli/animate_007_left.png"" class=""coveredImage test"" style = ""width:100px; height:100px;position:fixed; top:25%;        transform: translate(-50%, -50%);left:38%""></img><img src=""media/stimuli/animate_007_right.png"" class=""coveredImage test"" style = ""width:100px; height:100px;position:fixed; top:25%;        transform: translate(-50%, -50%);left:54.5%""></img><img src=""media/stimuli/animate_007_right.png"" class=""coveredImage test"" style = ""width:100px; height:100px;position:fixed; top:25%;        transform: translate(-50%, -50%);left:61.5%""></img><img src=""media/f.png""style = ""width:30px x; height:30px;position:fixed; top:43%;    transform: translate(-50%, -50%);left:40%""></img><img src=""media/j.png""style = ""width:30px; height:30px;position:fixed; top:43%;    transform: translate(-50%, -50%);left:60%""></img>","media/stimuli/animate_007_right.png","animate","right","single","media/stimuli/animate_007_left.png","animate","left","single","media/stimuli/animate_007_right.png","animate","right","pair","pose_number"
"","","","","","html-keyboard-response","68","335592","0.0-68.0","SS1678233214674","5c8676deddda2d00012ad386","6406d7f26dd5b7fc1e3377bd","6407ce6db40f5c54c7767965","1292","672","","1231","","j","","","","","","","<img src=""media/stimuli/inanimate_003_right.png"" class=""coveredImage test"" style = ""width:100px; height:100px; position:fixed; top:10%;    transform: translate(-50%, -50%);left:48%""></img><img src=""media/stimuli/animate_003_right.png"" class=""coveredImage test"" style = ""width:100px; height:100px;position:fixed; top:25%;        transform: translate(-50%, -50%);left:38%""></img><img src=""media/stimuli/inanimate_003_right.png"" class=""coveredImage test"" style = ""width:100px; height:100px;position:fixed; top:25%;        transform: translate(-50%, -50%);left:54.5%""></img><img src=""media/stimuli/inanimate_003_right.png"" class=""coveredImage test"" style = ""width:100px; height:100px;position:fixed; top:25%;        transform: translate(-50%, -50%);left:61.5%""></img><img src=""media/f.png""style = ""width:30px x; height:30px;position:fixed; top:43%;    transform: translate(-50%, -50%);left:40%""></img><img src=""media/j.png""style = ""width:30px; height:30px;position:fixed; top:43%;    transform: translate(-50%, -50%);left:60%""></img>","media/stimuli/inanimate_003_right.png","inanimate","right","single","media/stimuli/animate_003_right.png","animate","right","single","media/stimuli/inanimate_003_right.png","inanimate","right","pair","animacy_number"
"","","","","","html-keyboard-response","69","336822","0.0-69.0","SS1678233214674","5c8676deddda2d00012ad386","6406d7f26dd5b7fc1e3377bd","6407ce6db40f5c54c7767965","1292","672","","1220","","j","","","","","","","<img src=""media/stimuli/animate_010_left.png"" class=""coveredImage test"" style = ""width:100px; height:100px; position:fixed; top:10%;    transform: translate(-50%, -50%);left:48%""></img><img src=""media/stimuli/animate_006_left.png"" class=""coveredImage test"" style = ""width:100px; height:100px;position:fixed; top:25%;        transform: translate(-50%, -50%);left:38%""></img><img src=""media/stimuli/animate_010_left.png"" class=""coveredImage test"" style = ""width:100px; height:100px;position:fixed; top:25%;        transform: translate(-50%, -50%);left:54.5%""></img><img src=""media/stimuli/animate_010_left.png"" class=""coveredImage test"" style = ""width:100px; height:100px;position:fixed; top:25%;        transform: translate(-50%, -50%);left:61.5%""></img><img src=""media/f.png""style = ""width:30px x; height:30px;position:fixed; top:43%;    transform: translate(-50%, -50%);left:40%""></img><img src=""media/j.png""style = ""width:30px; height:30px;position:fixed; top:43%;    transform: translate(-50%, -50%);left:60%""></img>","media/stimuli/animate_010_left.png","animate","left","single","media/stimuli/animate_006_left.png","animate","left","single","media/stimuli/animate_010_left.png","animate","left","pair","identity_number"
"","","","","","html-keyboard-response","70","337906","0.0-70.0","SS1678233214674","5c8676deddda2d00012ad386","6406d7f26dd5b7fc1e3377bd","6407ce6db40f5c54c7767965","1292","672","","1073","","f","","","","","","","<img src=""media/stimuli/inanimate_006_left.png"" class=""coveredImage test"" style = ""width:100px; height:100px; position:fixed; top:10%;    transform: translate(-50%, -50%);left:44.5%""></img><img src=""media/stimuli/inanimate_006_left.png"" class=""coveredImage test"" style = ""width:100px; height:100px; position:fixed; top:10%;    transform: translate(-50%, -50%);left:51.5%""></img><img src=""media/stimuli/inanimate_006_right.png"" class=""coveredImage test"" style = ""width:100px; height:100px;position:fixed; top:25%;        transform: translate(-50%, -50%);left:34.5%""></img><img src=""media/stimuli/inanimate_006_right.png"" class=""coveredImage test"" style = ""width:100px; height:100px;position:fixed; top:25%;        transform: translate(-50%, -50%);left:41.5%""></img><img src=""media/stimuli/inanimate_011_left.png"" class=""coveredImage test"" style = ""width:100px; height:100px;position:fixed; top:25%;        transform: translate(-50%, -50%);left:54.5%""></img><img src=""media/stimuli/inanimate_011_left.png"" class=""coveredImage test"" style = ""width:100px; height:100px;position:fixed; top:25%;        transform: translate(-50%, -50%);left:61.5%""></img><img src=""media/f.png""style = ""width:30px x; height:30px;position:fixed; top:43%;    transform: translate(-50%, -50%);left:40%""></img><img src=""media/j.png""style = ""width:30px; height:30px;position:fixed; top:43%;    transform: translate(-50%, -50%);left:60%""></img>","media/stimuli/inanimate_006_left.png","inanimate","left","pair","media/stimuli/inanimate_006_right.png","inanimate","right","pair","media/stimuli/inanimate_011_left.png","inanimate","left","pair","pose_identity"
"","","","","","html-keyboard-response","71","338971","0.0-71.0","SS1678233214674","5c8676deddda2d00012ad386","6406d7f26dd5b7fc1e3377bd","6407ce6db40f5c54c7767965","1292","672","","1053","","j","","","","","","","<img src=""media/stimuli/animate_007_left.png"" class=""coveredImage test"" style = ""width:100px; height:100px; position:fixed; top:10%;    transform: translate(-50%, -50%);left:48%""></img><img src=""media/stimuli/animate_004_left.png"" class=""coveredImage test"" style = ""width:100px; height:100px;position:fixed; top:25%;        transform: translate(-50%, -50%);left:38%""></img><img src=""media/stimuli/animate_007_left.png"" class=""coveredImage test"" style = ""width:100px; height:100px;position:fixed; top:25%;        transform: translate(-50%, -50%);left:54.5%""></img><img src=""media/stimuli/animate_007_left.png"" class=""coveredImage test"" style = ""width:100px; height:100px;position:fixed; top:25%;        transform: translate(-50%, -50%);left:61.5%""></img><img src=""media/f.png""style = ""width:30px x; height:30px;position:fixed; top:43%;    transform: translate(-50%, -50%);left:40%""></img><img src=""media/j.png""style = ""width:30px; height:30px;position:fixed; top:43%;    transform: translate(-50%, -50%);left:60%""></img>","media/stimuli/animate_007_left.png","animate","left","single","media/stimuli/animate_004_left.png","animate","left","single","media/stimuli/animate_007_left.png","animate","left","pair","identity_number"
"","","","","","html-keyboard-response","72","340387","0.0-72.0","SS1678233214674","5c8676deddda2d00012ad386","6406d7f26dd5b7fc1e3377bd","6407ce6db40f5c54c7767965","1292","672","","1407",""," ","","","","","","","","","","","","","","","","","","","",""
"","","","","","html-keyboard-response","73","341380","0.0-73.0","SS1678233214674","5c8676deddda2d00012ad386","6406d7f26dd5b7fc1e3377bd","6407ce6db40f5c54c7767965","1292","672","","988","","j","","","","","","","<img src=""media/stimuli/inanimate_004_right.png"" class=""coveredImage test"" style = ""width:100px; height:100px; position:fixed; top:10%;    transform: translate(-50%, -50%);left:48%""></img><img src=""media/stimuli/animate_007_right.png"" class=""coveredImage test"" style = ""width:100px; height:100px;position:fixed; top:25%;        transform: translate(-50%, -50%);left:38%""></img><img src=""media/stimuli/inanimate_001_right.png"" class=""coveredImage test"" style = ""width:100px; height:100px;position:fixed; top:25%;        transform: translate(-50%, -50%);left:58%""></img><img src=""media/f.png""style = ""width:30px x; height:30px;position:fixed; top:43%;    transform: translate(-50%, -50%);left:40%""></img><img src=""media/j.png""style = ""width:30px; height:30px;position:fixed; top:43%;    transform: translate(-50%, -50%);left:60%""></img>","media/stimuli/inanimate_004_right.png","inanimate","right","single","media/stimuli/animate_007_right.png","animate","right","single","media/stimuli/inanimate_001_right.png","inanimate","right","single","animacy_identity"
"","","","","","html-keyboard-response","74","342733","0.0-74.0","SS1678233214674","5c8676deddda2d00012ad386","6406d7f26dd5b7fc1e3377bd","6407ce6db40f5c54c7767965","1292","672","","1341","","j","","","","","","","<img src=""media/stimuli/inanimate_003_left.png"" class=""coveredImage test"" style = ""width:100px; height:100px; position:fixed; top:10%;    transform: translate(-50%, -50%);left:48%""></img><img src=""media/stimuli/animate_005_left.png"" class=""coveredImage test"" style = ""width:100px; height:100px;position:fixed; top:25%;        transform: translate(-50%, -50%);left:38%""></img><img src=""media/stimuli/inanimate_012_left.png"" class=""coveredImage test"" style = ""width:100px; height:100px;position:fixed; top:25%;        transform: translate(-50%, -50%);left:58%""></img><img src=""media/f.png""style = ""width:30px x; height:30px;position:fixed; top:43%;    transform: translate(-50%, -50%);left:40%""></img><img src=""media/j.png""style = ""width:30px; height:30px;position:fixed; top:43%;    transform: translate(-50%, -50%);left:60%""></img>","media/stimuli/inanimate_003_left.png","inanimate","left","single","media/stimuli/animate_005_left.png","animate","left","single","media/stimuli/inanimate_012_left.png","inanimate","left","single","animacy_identity"
"","","","","","html-keyboard-response","75","344191","0.0-75.0","SS1678233214674","5c8676deddda2d00012ad386","6406d7f26dd5b7fc1e3377bd","6407ce6db40f5c54c7767965","1292","672","","1447","","j","","","","","","","<img src=""media/stimuli/animate_002_left.png"" class=""coveredImage test"" style = ""width:100px; height:100px; position:fixed; top:10%;    transform: translate(-50%, -50%);left:48%""></img><img src=""media/stimuli/inanimate_012_left.png"" class=""coveredImage test"" style = ""width:100px; height:100px;position:fixed; top:25%;        transform: translate(-50%, -50%);left:38%""></img><img src=""media/stimuli/animate_002_left.png"" class=""coveredImage test"" style = ""width:100px; height:100px;position:fixed; top:25%;        transform: translate(-50%, -50%);left:54.5%""></img><img src=""media/stimuli/animate_002_left.png"" class=""coveredImage test"" style = ""width:100px; height:100px;position:fixed; top:25%;        transform: translate(-50%, -50%);left:61.5%""></img><img src=""media/f.png""style = ""width:30px x; height:30px;position:fixed; top:43%;    transform: translate(-50%, -50%);left:40%""></img><img src=""media/j.png""style = ""width:30px; height:30px;position:fixed; top:43%;    transform: translate(-50%, -50%);left:60%""></img>","media/stimuli/animate_002_left.png","animate","left","single","media/stimuli/inanimate_012_left.png","inanimate","left","single","media/stimuli/animate_002_left.png","animate","left","pair","animacy_number"
"","","","","","html-keyboard-response","76","345072","0.0-76.0","SS1678233214674","5c8676deddda2d00012ad386","6406d7f26dd5b7fc1e3377bd","6407ce6db40f5c54c7767965","1292","672","","870","","j","","","","","","","<img src=""media/stimuli/inanimate_009_left.png"" class=""coveredImage test"" style = ""width:100px; height:100px; position:fixed; top:10%;    transform: translate(-50%, -50%);left:48%""></img><img src=""media/stimuli/animate_004_left.png"" class=""coveredImage test"" style = ""width:100px; height:100px;position:fixed; top:25%;        transform: translate(-50%, -50%);left:38%""></img><img src=""media/stimuli/inanimate_009_left.png"" class=""coveredImage test"" style = ""width:100px; height:100px;position:fixed; top:25%;        transform: translate(-50%, -50%);left:54.5%""></img><img src=""media/stimuli/inanimate_009_left.png"" class=""coveredImage test"" style = ""width:100px; height:100px;position:fixed; top:25%;        transform: translate(-50%, -50%);left:61.5%""></img><img src=""media/f.png""style = ""width:30px x; height:30px;position:fixed; top:43%;    transform: translate(-50%, -50%);left:40%""></img><img src=""media/j.png""style = ""width:30px; height:30px;position:fixed; top:43%;    transform: translate(-50%, -50%);left:60%""></img>","media/stimuli/inanimate_009_left.png","inanimate","left","single","media/stimuli/animate_004_left.png","animate","left","single","media/stimuli/inanimate_009_left.png","inanimate","left","pair","animacy_number"
"","","","","","html-keyboard-response","77","346142","0.0-77.0","SS1678233214674","5c8676deddda2d00012ad386","6406d7f26dd5b7fc1e3377bd","6407ce6db40f5c54c7767965","1292","672","","1057","","f","","","","","","","<img src=""media/stimuli/animate_005_left.png"" class=""coveredImage test"" style = ""width:100px; height:100px; position:fixed; top:10%;    transform: translate(-50%, -50%);left:44.5%""></img><img src=""media/stimuli/animate_005_left.png"" class=""coveredImage test"" style = ""width:100px; height:100px; position:fixed; top:10%;    transform: translate(-50%, -50%);left:51.5%""></img><img src=""media/stimuli/animate_005_left.png"" class=""coveredImage test"" style = ""width:100px; height:100px;position:fixed; top:25%;        transform: translate(-50%, -50%);left:38%""></img><img src=""media/stimuli/animate_012_left.png"" class=""coveredImage test"" style = ""width:100px; height:100px;position:fixed; top:25%;        transform: translate(-50%, -50%);left:54.5%""></img><img src=""media/stimuli/animate_012_left.png"" class=""coveredImage test"" style = ""width:100px; height:100px;position:fixed; top:25%;        transform: translate(-50%, -50%);left:61.5%""></img><img src=""media/f.png""style = ""width:30px x; height:30px;position:fixed; top:43%;    transform: translate(-50%, -50%);left:40%""></img><img src=""media/j.png""style = ""width:30px; height:30px;position:fixed; top:43%;    transform: translate(-50%, -50%);left:60%""></img>","media/stimuli/animate_005_left.png","animate","left","pair","media/stimuli/animate_005_left.png","animate","left","single","media/stimuli/animate_012_left.png","animate","left","pair","number_identity"
"","","","","","html-keyboard-response","78","347649","0.0-78.0","SS1678233214674","5c8676deddda2d00012ad386","6406d7f26dd5b7fc1e3377bd","6407ce6db40f5c54c7767965","1292","672","","1492","","f","","","","","","","<img src=""media/stimuli/inanimate_004_left.png"" class=""coveredImage test"" style = ""width:100px; height:100px; position:fixed; top:10%;    transform: translate(-50%, -50%);left:44.5%""></img><img src=""media/stimuli/inanimate_004_left.png"" class=""coveredImage test"" style = ""width:100px; height:100px; position:fixed; top:10%;    transform: translate(-50%, -50%);left:51.5%""></img><img src=""media/stimuli/inanimate_004_right.png"" class=""coveredImage test"" style = ""width:100px; height:100px;position:fixed; top:25%;        transform: translate(-50%, -50%);left:34.5%""></img><img src=""media/stimuli/inanimate_004_right.png"" class=""coveredImage test"" style = ""width:100px; height:100px;position:fixed; top:25%;        transform: translate(-50%, -50%);left:41.5%""></img><img src=""media/stimuli/inanimate_003_left.png"" class=""coveredImage test"" style = ""width:100px; height:100px;position:fixed; top:25%;        transform: translate(-50%, -50%);left:54.5%""></img><img src=""media/stimuli/inanimate_003_left.png"" class=""coveredImage test"" style = ""width:100px; height:100px;position:fixed; top:25%;        transform: translate(-50%, -50%);left:61.5%""></img><img src=""media/f.png""style = ""width:30px x; height:30px;position:fixed; top:43%;    transform: translate(-50%, -50%);left:40%""></img><img src=""media/j.png""style = ""width:30px; height:30px;position:fixed; top:43%;    transform: translate(-50%, -50%);left:60%""></img>","media/stimuli/inanimate_004_left.png","inanimate","left","pair","media/stimuli/inanimate_004_right.png","inanimate","right","pair","media/stimuli/inanimate_003_left.png","inanimate","left","pair","pose_identity"
"","","","","","html-keyboard-response","79","348422","0.0-79.0","SS1678233214674","5c8676deddda2d00012ad386","6406d7f26dd5b7fc1e3377bd","6407ce6db40f5c54c7767965","1292","672","","754","","j","","","","","","","<img src=""media/stimuli/inanimate_006_right.png"" class=""coveredImage test"" style = ""width:100px; height:100px; position:fixed; top:10%;    transform: translate(-50%, -50%);left:48%""></img><img src=""media/stimuli/inanimate_006_left.png"" class=""coveredImage test"" style = ""width:100px; height:100px;position:fixed; top:25%;        transform: translate(-50%, -50%);left:38%""></img><img src=""media/stimuli/inanimate_006_right.png"" class=""coveredImage test"" style = ""width:100px; height:100px;position:fixed; top:25%;        transform: translate(-50%, -50%);left:54.5%""></img><img src=""media/stimuli/inanimate_006_right.png"" class=""coveredImage test"" style = ""width:100px; height:100px;position:fixed; top:25%;        transform: translate(-50%, -50%);left:61.5%""></img><img src=""media/f.png""style = ""width:30px x; height:30px;position:fixed; top:43%;    transform: translate(-50%, -50%);left:40%""></img><img src=""media/j.png""style = ""width:30px; height:30px;position:fixed; top:43%;    transform: translate(-50%, -50%);left:60%""></img>","media/stimuli/inanimate_006_right.png","inanimate","right","single","media/stimuli/inanimate_006_left.png","inanimate","left","single","media/stimuli/inanimate_006_right.png","inanimate","right","pair","pose_number"
"","","","","","html-keyboard-response","80","350044","0.0-80.0","SS1678233214674","5c8676deddda2d00012ad386","6406d7f26dd5b7fc1e3377bd","6407ce6db40f5c54c7767965","1292","672","","1607","","f","","","","","","","<img src=""media/stimuli/animate_003_left.png"" class=""coveredImage test"" style = ""width:100px; height:100px; position:fixed; top:10%;    transform: translate(-50%, -50%);left:48%""></img><img src=""media/stimuli/animate_009_left.png"" class=""coveredImage test"" style = ""width:100px; height:100px;position:fixed; top:25%;        transform: translate(-50%, -50%);left:38%""></img><img src=""media/stimuli/inanimate_012_left.png"" class=""coveredImage test"" style = ""width:100px; height:100px;position:fixed; top:25%;        transform: translate(-50%, -50%);left:58%""></img><img src=""media/f.png""style = ""width:30px x; height:30px;position:fixed; top:43%;    transform: translate(-50%, -50%);left:40%""></img><img src=""media/j.png""style = ""width:30px; height:30px;position:fixed; top:43%;    transform: translate(-50%, -50%);left:60%""></img>","media/stimuli/animate_003_left.png","animate","left","single","media/stimuli/animate_009_left.png","animate","left","single","media/stimuli/inanimate_012_left.png","inanimate","left","single","identity_animacy"
"","","","","","html-keyboard-response","81","351072","0.0-81.0","SS1678233214674","5c8676deddda2d00012ad386","6406d7f26dd5b7fc1e3377bd","6407ce6db40f5c54c7767965","1292","672","","1013","","j","","","","","","","<img src=""media/stimuli/inanimate_003_left.png"" class=""coveredImage test"" style = ""width:100px; height:100px; position:fixed; top:10%;    transform: translate(-50%, -50%);left:48%""></img><img src=""media/stimuli/animate_001_left.png"" class=""coveredImage test"" style = ""width:100px; height:100px;position:fixed; top:25%;        transform: translate(-50%, -50%);left:38%""></img><img src=""media/stimuli/inanimate_002_left.png"" class=""coveredImage test"" style = ""width:100px; height:100px;position:fixed; top:25%;        transform: translate(-50%, -50%);left:58%""></img><img src=""media/f.png""style = ""width:30px x; height:30px;position:fixed; top:43%;    transform: translate(-50%, -50%);left:40%""></img><img src=""media/j.png""style = ""width:30px; height:30px;position:fixed; top:43%;    transform: translate(-50%, -50%);left:60%""></img>","media/stimuli/inanimate_003_left.png","inanimate","left","single","media/stimuli/animate_001_left.png","animate","left","single","media/stimuli/inanimate_002_left.png","inanimate","left","single","animacy_identity"
"","","","","","html-keyboard-response","82","351825","0.0-82.0","SS1678233214674","5c8676deddda2d00012ad386","6406d7f26dd5b7fc1e3377bd","6407ce6db40f5c54c7767965","1292","672","","740","","f","","","","","","","<img src=""media/stimuli/inanimate_004_left.png"" class=""coveredImage test"" style = ""width:100px; height:100px; position:fixed; top:10%;    transform: translate(-50%, -50%);left:44.5%""></img><img src=""media/stimuli/inanimate_004_left.png"" class=""coveredImage test"" style = ""width:100px; height:100px; position:fixed; top:10%;    transform: translate(-50%, -50%);left:51.5%""></img><img src=""media/stimuli/inanimate_004_left.png"" class=""coveredImage test"" style = ""width:100px; height:100px;position:fixed; top:25%;        transform: translate(-50%, -50%);left:38%""></img><img src=""media/stimuli/animate_001_left.png"" class=""coveredImage test"" style = ""width:100px; height:100px;position:fixed; top:25%;        transform: translate(-50%, -50%);left:54.5%""></img><img src=""media/stimuli/animate_001_left.png"" class=""coveredImage test"" style = ""width:100px; height:100px;position:fixed; top:25%;        transform: translate(-50%, -50%);left:61.5%""></img><img src=""media/f.png""style = ""width:30px x; height:30px;position:fixed; top:43%;    transform: translate(-50%, -50%);left:40%""></img><img src=""media/j.png""style = ""width:30px; height:30px;position:fixed; top:43%;    transform: translate(-50%, -50%);left:60%""></img>","media/stimuli/inanimate_004_left.png","inanimate","left","pair","media/stimuli/inanimate_004_left.png","inanimate","left","single","media/stimuli/animate_001_left.png","animate","left","pair","number_animacy"
"","","","","","html-keyboard-response","83","353025","0.0-83.0","SS1678233214674","5c8676deddda2d00012ad386","6406d7f26dd5b7fc1e3377bd","6407ce6db40f5c54c7767965","1292","672","","1187","","j","","","","","","","<img src=""media/stimuli/animate_010_left.png"" class=""coveredImage test"" style = ""width:100px; height:100px; position:fixed; top:10%;    transform: translate(-50%, -50%);left:48%""></img><img src=""media/stimuli/inanimate_005_left.png"" class=""coveredImage test"" style = ""width:100px; height:100px;position:fixed; top:25%;        transform: translate(-50%, -50%);left:38%""></img><img src=""media/stimuli/animate_007_left.png"" class=""coveredImage test"" style = ""width:100px; height:100px;position:fixed; top:25%;        transform: translate(-50%, -50%);left:58%""></img><img src=""media/f.png""style = ""width:30px x; height:30px;position:fixed; top:43%;    transform: translate(-50%, -50%);left:40%""></img><img src=""media/j.png""style = ""width:30px; height:30px;position:fixed; top:43%;    transform: translate(-50%, -50%);left:60%""></img>","media/stimuli/animate_010_left.png","animate","left","single","media/stimuli/inanimate_005_left.png","inanimate","left","single","media/stimuli/animate_007_left.png","animate","left","single","animacy_identity"
"","","","","","html-keyboard-response","84","353905","0.0-84.0","SS1678233214674","5c8676deddda2d00012ad386","6406d7f26dd5b7fc1e3377bd","6407ce6db40f5c54c7767965","1292","672","","866","","f","","","","","","","<img src=""media/stimuli/animate_002_right.png"" class=""coveredImage test"" style = ""width:100px; height:100px; position:fixed; top:10%;    transform: translate(-50%, -50%);left:48%""></img><img src=""media/stimuli/animate_002_right.png"" class=""coveredImage test"" style = ""width:100px; height:100px;position:fixed; top:25%;        transform: translate(-50%, -50%);left:34.5%""></img><img src=""media/stimuli/animate_002_right.png"" class=""coveredImage test"" style = ""width:100px; height:100px;position:fixed; top:25%;        transform: translate(-50%, -50%);left:41.5%""></img><img src=""media/stimuli/inanimate_010_left.png"" class=""coveredImage test"" style = ""width:100px; height:100px;position:fixed; top:25%;        transform: translate(-50%, -50%);left:54.5%""></img><img src=""media/stimuli/inanimate_010_left.png"" class=""coveredImage test"" style = ""width:100px; height:100px;position:fixed; top:25%;        transform: translate(-50%, -50%);left:61.5%""></img><img src=""media/f.png""style = ""width:30px x; height:30px;position:fixed; top:43%;    transform: translate(-50%, -50%);left:40%""></img><img src=""media/j.png""style = ""width:30px; height:30px;position:fixed; top:43%;    transform: translate(-50%, -50%);left:60%""></img>","media/stimuli/animate_002_right.png","animate","right","single","media/stimuli/animate_002_right.png","animate","right","pair","media/stimuli/inanimate_010_left.png","inanimate","left","pair","pose_animacy"
"","","","","","html-keyboard-response","85","355042","0.0-85.0","SS1678233214674","5c8676deddda2d00012ad386","6406d7f26dd5b7fc1e3377bd","6407ce6db40f5c54c7767965","1292","672","","1126",""," ","","","","","","","","","","","","","","","","","","","",""
"","","","","","html-keyboard-response","86","355983","0.0-86.0","SS1678233214674","5c8676deddda2d00012ad386","6406d7f26dd5b7fc1e3377bd","6407ce6db40f5c54c7767965","1292","672","","933","","j","","","","","","","<img src=""media/stimuli/inanimate_010_right.png"" class=""coveredImage test"" style = ""width:100px; height:100px; position:fixed; top:10%;    transform: translate(-50%, -50%);left:48%""></img><img src=""media/stimuli/inanimate_006_right.png"" class=""coveredImage test"" style = ""width:100px; height:100px;position:fixed; top:25%;        transform: translate(-50%, -50%);left:38%""></img><img src=""media/stimuli/inanimate_010_left.png"" class=""coveredImage test"" style = ""width:100px; height:100px;position:fixed; top:25%;        transform: translate(-50%, -50%);left:58%""></img><img src=""media/f.png""style = ""width:30px x; height:30px;position:fixed; top:43%;    transform: translate(-50%, -50%);left:40%""></img><img src=""media/j.png""style = ""width:30px; height:30px;position:fixed; top:43%;    transform: translate(-50%, -50%);left:60%""></img>","media/stimuli/inanimate_010_right.png","inanimate","right","single","media/stimuli/inanimate_006_right.png","inanimate","right","single","media/stimuli/inanimate_010_left.png","inanimate","left","single","identity_pose"
"","","","","","html-keyboard-response","87","357356","0.0-87.0","SS1678233214674","5c8676deddda2d00012ad386","6406d7f26dd5b7fc1e3377bd","6407ce6db40f5c54c7767965","1292","672","","1362","","j","","","","","","","<img src=""media/stimuli/animate_007_left.png"" class=""coveredImage test"" style = ""width:100px; height:100px; position:fixed; top:10%;    transform: translate(-50%, -50%);left:44.5%""></img><img src=""media/stimuli/animate_007_left.png"" class=""coveredImage test"" style = ""width:100px; height:100px; position:fixed; top:10%;    transform: translate(-50%, -50%);left:51.5%""></img><img src=""media/stimuli/inanimate_008_left.png"" class=""coveredImage test"" style = ""width:100px; height:100px;position:fixed; top:25%;        transform: translate(-50%, -50%);left:34.5%""></img><img src=""media/stimuli/inanimate_008_left.png"" class=""coveredImage test"" style = ""width:100px; height:100px;position:fixed; top:25%;        transform: translate(-50%, -50%);left:41.5%""></img><img src=""media/stimuli/animate_012_left.png"" class=""coveredImage test"" style = ""width:100px; height:100px;position:fixed; top:25%;        transform: translate(-50%, -50%);left:54.5%""></img><img src=""media/stimuli/animate_012_left.png"" class=""coveredImage test"" style = ""width:100px; height:100px;position:fixed; top:25%;        transform: translate(-50%, -50%);left:61.5%""></img><img src=""media/f.png""style = ""width:30px x; height:30px;position:fixed; top:43%;    transform: translate(-50%, -50%);left:40%""></img><img src=""media/j.png""style = ""width:30px; height:30px;position:fixed; top:43%;    transform: translate(-50%, -50%);left:60%""></img>","media/stimuli/animate_007_left.png","animate","left","pair","media/stimuli/inanimate_008_left.png","inanimate","left","pair","media/stimuli/animate_012_left.png","animate","left","pair","animacy_identity"
"","","","","","html-keyboard-response","88","358426","0.0-88.0","SS1678233214674","5c8676deddda2d00012ad386","6406d7f26dd5b7fc1e3377bd","6407ce6db40f5c54c7767965","1292","672","","1055","","j","","","","","","","<img src=""media/stimuli/animate_010_right.png"" class=""coveredImage test"" style = ""width:100px; height:100px; position:fixed; top:10%;    transform: translate(-50%, -50%);left:44.5%""></img><img src=""media/stimuli/animate_010_right.png"" class=""coveredImage test"" style = ""width:100px; height:100px; position:fixed; top:10%;    transform: translate(-50%, -50%);left:51.5%""></img><img src=""media/stimuli/animate_010_right.png"" class=""coveredImage test"" style = ""width:100px; height:100px;position:fixed; top:25%;        transform: translate(-50%, -50%);left:38%""></img><img src=""media/stimuli/animate_010_left.png"" class=""coveredImage test"" style = ""width:100px; height:100px;position:fixed; top:25%;        transform: translate(-50%, -50%);left:54.5%""></img><img src=""media/stimuli/animate_010_left.png"" class=""coveredImage test"" style = ""width:100px; height:100px;position:fixed; top:25%;        transform: translate(-50%, -50%);left:61.5%""></img><img src=""media/f.png""style = ""width:30px x; height:30px;position:fixed; top:43%;    transform: translate(-50%, -50%);left:40%""></img><img src=""media/j.png""style = ""width:30px; height:30px;position:fixed; top:43%;    transform: translate(-50%, -50%);left:60%""></img>","media/stimuli/animate_010_right.png","animate","right","pair","media/stimuli/animate_010_right.png","animate","right","single","media/stimuli/animate_010_left.png","animate","left","pair","number_pose"
"","","","","","html-keyboard-response","89","359258","0.0-89.0","SS1678233214674","5c8676deddda2d00012ad386","6406d7f26dd5b7fc1e3377bd","6407ce6db40f5c54c7767965","1292","672","","818","","f","","","","","","","<img src=""media/stimuli/animate_003_left.png"" class=""coveredImage test"" style = ""width:100px; height:100px; position:fixed; top:10%;    transform: translate(-50%, -50%);left:48%""></img><img src=""media/stimuli/animate_003_right.png"" class=""coveredImage test"" style = ""width:100px; height:100px;position:fixed; top:25%;        transform: translate(-50%, -50%);left:38%""></img><img src=""media/stimuli/animate_002_left.png"" class=""coveredImage test"" style = ""width:100px; height:100px;position:fixed; top:25%;        transform: translate(-50%, -50%);left:58%""></img><img src=""media/f.png""style = ""width:30px x; height:30px;position:fixed; top:43%;    transform: translate(-50%, -50%);left:40%""></img><img src=""media/j.png""style = ""width:30px; height:30px;position:fixed; top:43%;    transform: translate(-50%, -50%);left:60%""></img>","media/stimuli/animate_003_left.png","animate","left","single","media/stimuli/animate_003_right.png","animate","right","single","media/stimuli/animate_002_left.png","animate","left","single","pose_identity"
"","","","","","html-keyboard-response","90","360282","0.0-90.0","SS1678233214674","5c8676deddda2d00012ad386","6406d7f26dd5b7fc1e3377bd","6407ce6db40f5c54c7767965","1292","672","","1010","","f","","","","","","","<img src=""media/stimuli/inanimate_007_right.png"" class=""coveredImage test"" style = ""width:100px; height:100px; position:fixed; top:10%;    transform: translate(-50%, -50%);left:48%""></img><img src=""media/stimuli/inanimate_007_right.png"" class=""coveredImage test"" style = ""width:100px; height:100px;position:fixed; top:25%;        transform: translate(-50%, -50%);left:38%""></img><img src=""media/stimuli/animate_008_left.png"" class=""coveredImage test"" style = ""width:100px; height:100px;position:fixed; top:25%;        transform: translate(-50%, -50%);left:58%""></img><img src=""media/f.png""style = ""width:30px x; height:30px;position:fixed; top:43%;    transform: translate(-50%, -50%);left:40%""></img><img src=""media/j.png""style = ""width:30px; height:30px;position:fixed; top:43%;    transform: translate(-50%, -50%);left:60%""></img>","media/stimuli/inanimate_007_right.png","inanimate","right","single","media/stimuli/inanimate_007_right.png","inanimate","right","single","media/stimuli/animate_008_left.png","animate","left","single","pose_animacy"
"","","","","","html-keyboard-response","91","361134","0.0-91.0","SS1678233214674","5c8676deddda2d00012ad386","6406d7f26dd5b7fc1e3377bd","6407ce6db40f5c54c7767965","1292","672","","837","","j","","","","","","","<img src=""media/stimuli/inanimate_005_left.png"" class=""coveredImage test"" style = ""width:100px; height:100px; position:fixed; top:10%;    transform: translate(-50%, -50%);left:44.5%""></img><img src=""media/stimuli/inanimate_005_left.png"" class=""coveredImage test"" style = ""width:100px; height:100px; position:fixed; top:10%;    transform: translate(-50%, -50%);left:51.5%""></img><img src=""media/stimuli/inanimate_005_left.png"" class=""coveredImage test"" style = ""width:100px; height:100px;position:fixed; top:25%;        transform: translate(-50%, -50%);left:38%""></img><img src=""media/stimuli/inanimate_005_right.png"" class=""coveredImage test"" style = ""width:100px; height:100px;position:fixed; top:25%;        transform: translate(-50%, -50%);left:54.5%""></img><img src=""media/stimuli/inanimate_005_right.png"" class=""coveredImage test"" style = ""width:100px; height:100px;position:fixed; top:25%;        transform: translate(-50%, -50%);left:61.5%""></img><img src=""media/f.png""style = ""width:30px x; height:30px;position:fixed; top:43%;    transform: translate(-50%, -50%);left:40%""></img><img src=""media/j.png""style = ""width:30px; height:30px;position:fixed; top:43%;    transform: translate(-50%, -50%);left:60%""></img>","media/stimuli/inanimate_005_left.png","inanimate","left","pair","media/stimuli/inanimate_005_left.png","inanimate","left","single","media/stimuli/inanimate_005_right.png","inanimate","right","pair","number_pose"
"","","","","","html-keyboard-response","92","362835","0.0-92.0","SS1678233214674","5c8676deddda2d00012ad386","6406d7f26dd5b7fc1e3377bd","6407ce6db40f5c54c7767965","1292","672","","1688","","j","","","","","","","<img src=""media/stimuli/inanimate_008_left.png"" class=""coveredImage test"" style = ""width:100px; height:100px; position:fixed; top:10%;    transform: translate(-50%, -50%);left:48%""></img><img src=""media/stimuli/inanimate_011_left.png"" class=""coveredImage test"" style = ""width:100px; height:100px;position:fixed; top:25%;        transform: translate(-50%, -50%);left:38%""></img><img src=""media/stimuli/inanimate_008_right.png"" class=""coveredImage test"" style = ""width:100px; height:100px;position:fixed; top:25%;        transform: translate(-50%, -50%);left:58%""></img><img src=""media/f.png""style = ""width:30px x; height:30px;position:fixed; top:43%;    transform: translate(-50%, -50%);left:40%""></img><img src=""media/j.png""style = ""width:30px; height:30px;position:fixed; top:43%;    transform: translate(-50%, -50%);left:60%""></img>","media/stimuli/inanimate_008_left.png","inanimate","left","single","media/stimuli/inanimate_011_left.png","inanimate","left","single","media/stimuli/inanimate_008_right.png","inanimate","right","single","identity_pose"
"","","","","","html-keyboard-response","93","363901","0.0-93.0","SS1678233214674","5c8676deddda2d00012ad386","6406d7f26dd5b7fc1e3377bd","6407ce6db40f5c54c7767965","1292","672","","1053","","f","","","","","","","<img src=""media/stimuli/animate_005_right.png"" class=""coveredImage test"" style = ""width:100px; height:100px; position:fixed; top:10%;    transform: translate(-50%, -50%);left:44.5%""></img><img src=""media/stimuli/animate_005_right.png"" class=""coveredImage test"" style = ""width:100px; height:100px; position:fixed; top:10%;    transform: translate(-50%, -50%);left:51.5%""></img><img src=""media/stimuli/animate_010_right.png"" class=""coveredImage test"" style = ""width:100px; height:100px;position:fixed; top:25%;        transform: translate(-50%, -50%);left:34.5%""></img><img src=""media/stimuli/animate_010_right.png"" class=""coveredImage test"" style = ""width:100px; height:100px;position:fixed; top:25%;        transform: translate(-50%, -50%);left:41.5%""></img><img src=""media/stimuli/inanimate_003_right.png"" class=""coveredImage test"" style = ""width:100px; height:100px;position:fixed; top:25%;        transform: translate(-50%, -50%);left:54.5%""></img><img src=""media/stimuli/inanimate_003_right.png"" class=""coveredImage test"" style = ""width:100px; height:100px;position:fixed; top:25%;        transform: translate(-50%, -50%);left:61.5%""></img><img src=""media/f.png""style = ""width:30px x; height:30px;position:fixed; top:43%;    transform: translate(-50%, -50%);left:40%""></img><img src=""media/j.png""style = ""width:30px; height:30px;position:fixed; top:43%;    transform: translate(-50%, -50%);left:60%""></img>","media/stimuli/animate_005_right.png","animate","right","pair","media/stimuli/animate_010_right.png","animate","right","pair","media/stimuli/inanimate_003_right.png","inanimate","right","pair","identity_animacy"
"","","","","","html-keyboard-response","94","364636","0.0-94.0","SS1678233214674","5c8676deddda2d00012ad386","6406d7f26dd5b7fc1e3377bd","6407ce6db40f5c54c7767965","1292","672","","719","","j","","","","","","","<img src=""media/stimuli/animate_001_left.png"" class=""coveredImage test"" style = ""width:100px; height:100px; position:fixed; top:10%;    transform: translate(-50%, -50%);left:44.5%""></img><img src=""media/stimuli/animate_001_left.png"" class=""coveredImage test"" style = ""width:100px; height:100px; position:fixed; top:10%;    transform: translate(-50%, -50%);left:51.5%""></img><img src=""media/stimuli/inanimate_001_left.png"" class=""coveredImage test"" style = ""width:100px; height:100px;position:fixed; top:25%;        transform: translate(-50%, -50%);left:34.5%""></img><img src=""media/stimuli/inanimate_001_left.png"" class=""coveredImage test"" style = ""width:100px; height:100px;position:fixed; top:25%;        transform: translate(-50%, -50%);left:41.5%""></img><img src=""media/stimuli/animate_001_left.png"" class=""coveredImage test"" style = ""width:100px; height:100px;position:fixed; top:25%;        transform: translate(-50%, -50%);left:58%""></img><img src=""media/f.png""style = ""width:30px x; height:30px;position:fixed; top:43%;    transform: translate(-50%, -50%);left:40%""></img><img src=""media/j.png""style = ""width:30px; height:30px;position:fixed; top:43%;    transform: translate(-50%, -50%);left:60%""></img>","media/stimuli/animate_001_left.png","animate","left","pair","media/stimuli/inanimate_001_left.png","inanimate","left","pair","media/stimuli/animate_001_left.png","animate","left","single","animacy_number"
"","","","","","html-keyboard-response","95","366315","0.0-95.0","SS1678233214674","5c8676deddda2d00012ad386","6406d7f26dd5b7fc1e3377bd","6407ce6db40f5c54c7767965","1292","672","","1664","","j","","","","","","","<img src=""media/stimuli/inanimate_002_left.png"" class=""coveredImage test"" style = ""width:100px; height:100px; position:fixed; top:10%;    transform: translate(-50%, -50%);left:48%""></img><img src=""media/stimuli/inanimate_002_left.png"" class=""coveredImage test"" style = ""width:100px; height:100px;position:fixed; top:25%;        transform: translate(-50%, -50%);left:34.5%""></img><img src=""media/stimuli/inanimate_002_left.png"" class=""coveredImage test"" style = ""width:100px; height:100px;position:fixed; top:25%;        transform: translate(-50%, -50%);left:41.5%""></img><img src=""media/stimuli/inanimate_002_right.png"" class=""coveredImage test"" style = ""width:100px; height:100px;position:fixed; top:25%;        transform: translate(-50%, -50%);left:58%""></img><img src=""media/f.png""style = ""width:30px x; height:30px;position:fixed; top:43%;    transform: translate(-50%, -50%);left:40%""></img><img src=""media/j.png""style = ""width:30px; height:30px;position:fixed; top:43%;    transform: translate(-50%, -50%);left:60%""></img>","media/stimuli/inanimate_002_left.png","inanimate","left","single","media/stimuli/inanimate_002_left.png","inanimate","left","pair","media/stimuli/inanimate_002_right.png","inanimate","right","single","number_pose"
"","","","","","html-keyboard-response","96","367205","0.0-96.0","SS1678233214674","5c8676deddda2d00012ad386","6406d7f26dd5b7fc1e3377bd","6407ce6db40f5c54c7767965","1292","672","","871","","j","","","","","","","<img src=""media/stimuli/inanimate_003_right.png"" class=""coveredImage test"" style = ""width:100px; height:100px; position:fixed; top:10%;    transform: translate(-50%, -50%);left:48%""></img><img src=""media/stimuli/inanimate_003_left.png"" class=""coveredImage test"" style = ""width:100px; height:100px;position:fixed; top:25%;        transform: translate(-50%, -50%);left:38%""></img><img src=""media/stimuli/inanimate_003_right.png"" class=""coveredImage test"" style = ""width:100px; height:100px;position:fixed; top:25%;        transform: translate(-50%, -50%);left:54.5%""></img><img src=""media/stimuli/inanimate_003_right.png"" class=""coveredImage test"" style = ""width:100px; height:100px;position:fixed; top:25%;        transform: translate(-50%, -50%);left:61.5%""></img><img src=""media/f.png""style = ""width:30px x; height:30px;position:fixed; top:43%;    transform: translate(-50%, -50%);left:40%""></img><img src=""media/j.png""style = ""width:30px; height:30px;position:fixed; top:43%;    transform: translate(-50%, -50%);left:60%""></img>","media/stimuli/inanimate_003_right.png","inanimate","right","single","media/stimuli/inanimate_003_left.png","inanimate","left","single","media/stimuli/inanimate_003_right.png","inanimate","right","pair","pose_number"
"","","","","","html-keyboard-response","97","369828","0.0-97.0","SS1678233214674","5c8676deddda2d00012ad386","6406d7f26dd5b7fc1e3377bd","6407ce6db40f5c54c7767965","1292","672","","2607","","j","","","","","","","<img src=""media/stimuli/animate_009_right.png"" class=""coveredImage test"" style = ""width:100px; height:100px; position:fixed; top:10%;    transform: translate(-50%, -50%);left:48%""></img><img src=""media/stimuli/animate_006_right.png"" class=""coveredImage test"" style = ""width:100px; height:100px;position:fixed; top:25%;        transform: translate(-50%, -50%);left:38%""></img><img src=""media/stimuli/animate_009_left.png"" class=""coveredImage test"" style = ""width:100px; height:100px;position:fixed; top:25%;        transform: translate(-50%, -50%);left:58%""></img><img src=""media/f.png""style = ""width:30px x; height:30px;position:fixed; top:43%;    transform: translate(-50%, -50%);left:40%""></img><img src=""media/j.png""style = ""width:30px; height:30px;position:fixed; top:43%;    transform: translate(-50%, -50%);left:60%""></img>","media/stimuli/animate_009_right.png","animate","right","single","media/stimuli/animate_006_right.png","animate","right","single","media/stimuli/animate_009_left.png","animate","left","single","identity_pose"
"","","","","","html-keyboard-response","98","370892","0.0-98.0","SS1678233214674","5c8676deddda2d00012ad386","6406d7f26dd5b7fc1e3377bd","6407ce6db40f5c54c7767965","1292","672","","1048",""," ","","","","","","","","","","","","","","","","","","","",""
"","","","","","html-keyboard-response","99","371930","0.0-99.0","SS1678233214674","5c8676deddda2d00012ad386","6406d7f26dd5b7fc1e3377bd","6407ce6db40f5c54c7767965","1292","672","","1024","","f","","","","","","","<img src=""media/stimuli/animate_003_right.png"" class=""coveredImage test"" style = ""width:100px; height:100px; position:fixed; top:10%;    transform: translate(-50%, -50%);left:44.5%""></img><img src=""media/stimuli/animate_003_right.png"" class=""coveredImage test"" style = ""width:100px; height:100px; position:fixed; top:10%;    transform: translate(-50%, -50%);left:51.5%""></img><img src=""media/stimuli/animate_003_right.png"" class=""coveredImage test"" style = ""width:100px; height:100px;position:fixed; top:25%;        transform: translate(-50%, -50%);left:38%""></img><img src=""media/stimuli/animate_007_right.png"" class=""coveredImage test"" style = ""width:100px; height:100px;position:fixed; top:25%;        transform: translate(-50%, -50%);left:54.5%""></img><img src=""media/stimuli/animate_007_right.png"" class=""coveredImage test"" style = ""width:100px; height:100px;position:fixed; top:25%;        transform: translate(-50%, -50%);left:61.5%""></img><img src=""media/f.png""style = ""width:30px x; height:30px;position:fixed; top:43%;    transform: translate(-50%, -50%);left:40%""></img><img src=""media/j.png""style = ""width:30px; height:30px;position:fixed; top:43%;    transform: translate(-50%, -50%);left:60%""></img>","media/stimuli/animate_003_right.png","animate","right","pair","media/stimuli/animate_003_right.png","animate","right","single","media/stimuli/animate_007_right.png","animate","right","pair","number_identity"
"","","","","","html-keyboard-response","100","373420","0.0-100.0","SS1678233214674","5c8676deddda2d00012ad386","6406d7f26dd5b7fc1e3377bd","6407ce6db40f5c54c7767965","1292","672","","1471","","f","","","","","","","<img src=""media/stimuli/inanimate_007_right.png"" class=""coveredImage test"" style = ""width:100px; height:100px; position:fixed; top:10%;    transform: translate(-50%, -50%);left:44.5%""></img><img src=""media/stimuli/inanimate_007_right.png"" class=""coveredImage test"" style = ""width:100px; height:100px; position:fixed; top:10%;    transform: translate(-50%, -50%);left:51.5%""></img><img src=""media/stimuli/inanimate_007_left.png"" class=""coveredImage test"" style = ""width:100px; height:100px;position:fixed; top:25%;        transform: translate(-50%, -50%);left:34.5%""></img><img src=""media/stimuli/inanimate_007_left.png"" class=""coveredImage test"" style = ""width:100px; height:100px;position:fixed; top:25%;        transform: translate(-50%, -50%);left:41.5%""></img><img src=""media/stimuli/inanimate_006_right.png"" class=""coveredImage test"" style = ""width:100px; height:100px;position:fixed; top:25%;        transform: translate(-50%, -50%);left:54.5%""></img><img src=""media/stimuli/inanimate_006_right.png"" class=""coveredImage test"" style = ""width:100px; height:100px;position:fixed; top:25%;        transform: translate(-50%, -50%);left:61.5%""></img><img src=""media/f.png""style = ""width:30px x; height:30px;position:fixed; top:43%;    transform: translate(-50%, -50%);left:40%""></img><img src=""media/j.png""style = ""width:30px; height:30px;position:fixed; top:43%;    transform: translate(-50%, -50%);left:60%""></img>","media/stimuli/inanimate_007_right.png","inanimate","right","pair","media/stimuli/inanimate_007_left.png","inanimate","left","pair","media/stimuli/inanimate_006_right.png","inanimate","right","pair","pose_identity"
"","","","","","html-keyboard-response","101","374309","0.0-101.0","SS1678233214674","5c8676deddda2d00012ad386","6406d7f26dd5b7fc1e3377bd","6407ce6db40f5c54c7767965","1292","672","","872","","f","","","","","","","<img src=""media/stimuli/inanimate_004_left.png"" class=""coveredImage test"" style = ""width:100px; height:100px; position:fixed; top:10%;    transform: translate(-50%, -50%);left:44.5%""></img><img src=""media/stimuli/inanimate_004_left.png"" class=""coveredImage test"" style = ""width:100px; height:100px; position:fixed; top:10%;    transform: translate(-50%, -50%);left:51.5%""></img><img src=""media/stimuli/inanimate_004_right.png"" class=""coveredImage test"" style = ""width:100px; height:100px;position:fixed; top:25%;        transform: translate(-50%, -50%);left:34.5%""></img><img src=""media/stimuli/inanimate_004_right.png"" class=""coveredImage test"" style = ""width:100px; height:100px;position:fixed; top:25%;        transform: translate(-50%, -50%);left:41.5%""></img><img src=""media/stimuli/inanimate_009_left.png"" class=""coveredImage test"" style = ""width:100px; height:100px;position:fixed; top:25%;        transform: translate(-50%, -50%);left:54.5%""></img><img src=""media/stimuli/inanimate_009_left.png"" class=""coveredImage test"" style = ""width:100px; height:100px;position:fixed; top:25%;        transform: translate(-50%, -50%);left:61.5%""></img><img src=""media/f.png""style = ""width:30px x; height:30px;position:fixed; top:43%;    transform: translate(-50%, -50%);left:40%""></img><img src=""media/j.png""style = ""width:30px; height:30px;position:fixed; top:43%;    transform: translate(-50%, -50%);left:60%""></img>","media/stimuli/inanimate_004_left.png","inanimate","left","pair","media/stimuli/inanimate_004_right.png","inanimate","right","pair","media/stimuli/inanimate_009_left.png","inanimate","left","pair","pose_identity"
"","","","","","html-keyboard-response","102","375289","0.0-102.0","SS1678233214674","5c8676deddda2d00012ad386","6406d7f26dd5b7fc1e3377bd","6407ce6db40f5c54c7767965","1292","672","","963","","f","","","","","","","<img src=""media/stimuli/animate_012_left.png"" class=""coveredImage test"" style = ""width:100px; height:100px; position:fixed; top:10%;    transform: translate(-50%, -50%);left:48%""></img><img src=""media/stimuli/animate_012_right.png"" class=""coveredImage test"" style = ""width:100px; height:100px;position:fixed; top:25%;        transform: translate(-50%, -50%);left:38%""></img><img src=""media/stimuli/inanimate_011_left.png"" class=""coveredImage test"" style = ""width:100px; height:100px;position:fixed; top:25%;        transform: translate(-50%, -50%);left:58%""></img><img src=""media/f.png""style = ""width:30px x; height:30px;position:fixed; top:43%;    transform: translate(-50%, -50%);left:40%""></img><img src=""media/j.png""style = ""width:30px; height:30px;position:fixed; top:43%;    transform: translate(-50%, -50%);left:60%""></img>","media/stimuli/animate_012_left.png","animate","left","single","media/stimuli/animate_012_right.png","animate","right","single","media/stimuli/inanimate_011_left.png","inanimate","left","single","pose_animacy"
"","","","","","html-keyboard-response","103","376572","0.0-103.0","SS1678233214674","5c8676deddda2d00012ad386","6406d7f26dd5b7fc1e3377bd","6407ce6db40f5c54c7767965","1292","672","","1265","","f","","","","","","","<img src=""media/stimuli/inanimate_003_right.png"" class=""coveredImage test"" style = ""width:100px; height:100px; position:fixed; top:10%;    transform: translate(-50%, -50%);left:48%""></img><img src=""media/stimuli/inanimate_003_left.png"" class=""coveredImage test"" style = ""width:100px; height:100px;position:fixed; top:25%;        transform: translate(-50%, -50%);left:34.5%""></img><img src=""media/stimuli/inanimate_003_left.png"" class=""coveredImage test"" style = ""width:100px; height:100px;position:fixed; top:25%;        transform: translate(-50%, -50%);left:41.5%""></img><img src=""media/stimuli/animate_001_right.png"" class=""coveredImage test"" style = ""width:100px; height:100px;position:fixed; top:25%;        transform: translate(-50%, -50%);left:54.5%""></img><img src=""media/stimuli/animate_001_right.png"" class=""coveredImage test"" style = ""width:100px; height:100px;position:fixed; top:25%;        transform: translate(-50%, -50%);left:61.5%""></img><img src=""media/f.png""style = ""width:30px x; height:30px;position:fixed; top:43%;    transform: translate(-50%, -50%);left:40%""></img><img src=""media/j.png""style = ""width:30px; height:30px;position:fixed; top:43%;    transform: translate(-50%, -50%);left:60%""></img>","media/stimuli/inanimate_003_right.png","inanimate","right","single","media/stimuli/inanimate_003_left.png","inanimate","left","pair","media/stimuli/animate_001_right.png","animate","right","pair","pose_animacy"
