"success","timeout","failed_images","failed_audio","failed_video","trial_type","trial_index","time_elapsed","internal_node_id","subject","prolific_id","study","session","window_width","window_height","view_history","rt","stimulus_type","response","question_order","rating_type","rating_stimulus","rating_animacy","rating_number","rating_pose","stimulus","target","target_animacy","target_pose","target_number","left","left_animacy","left_pose","left_number","right","right_animacy","right_pose","right_number","comparison_type"
"true","false","[]","[]","[]","preload","0","2966","0.0-0.0","SS1678233192341","627286792f25495f123cc27b","6406d7f26dd5b7fc1e3377bd","6407ce6fd3623ecb803c8488","1920","937","","","","","","","","","","","","","","","","","","","","","","","",""
"","","","","","instructions","1","17420","0.0-1.0","SS1678233192341","627286792f25495f123cc27b","6406d7f26dd5b7fc1e3377bd","6407ce6fd3623ecb803c8488","1920","937","[{""page_index"":0,""viewing_time"":14452}]","14453","","","","","","","","","","","","","","","","","","","","","",""
"","","","","","instructions","2","44055","0.0-2.0","SS1678233192341","627286792f25495f123cc27b","6406d7f26dd5b7fc1e3377bd","6407ce6fd3623ecb803c8488","1920","937","[{""page_index"":0,""viewing_time"":24622}]","24622","instructions","","","","","","","","","","","","","","","","","","","","",""
"","","","","","instructions","3","48753","0.0-3.0","SS1678233192341","627286792f25495f123cc27b","6406d7f26dd5b7fc1e3377bd","6407ce6fd3623ecb803c8488","1920","937","[{""page_index"":0,""viewing_time"":4698}]","4698","instructions","","","","","","","","","","","","","","","","","","","","",""
"","","","","","survey-likert","4","64865","0.0-4.0","SS1678233192341","627286792f25495f123cc27b","6406d7f26dd5b7fc1e3377bd","6407ce6fd3623ecb803c8488","1920","937","","16111","","{""Q0"":2}","[0]","anchoring","","","","","","","","","","","","","","","","","",""
"","","","","","survey-likert","5","73553","0.0-5.0","SS1678233192341","627286792f25495f123cc27b","6406d7f26dd5b7fc1e3377bd","6407ce6fd3623ecb803c8488","1920","937","","8687","","{""Q0"":0}","[0]","anchoring","","","","","","","","","","","","","","","","","",""
"","","","","","instructions","6","75959","0.0-6.0","SS1678233192341","627286792f25495f123cc27b","6406d7f26dd5b7fc1e3377bd","6407ce6fd3623ecb803c8488","1920","937","[{""page_index"":0,""viewing_time"":2404}]","2405","instructions","","","","","","","","","","","","","","","","","","","","",""
"true","","","","","fullscreen","7","79230","0.0-7.0","SS1678233192341","627286792f25495f123cc27b","6406d7f26dd5b7fc1e3377bd","6407ce6fd3623ecb803c8488","1920","937","","","","","","","","","","","","","","","","","","","","","","","",""
"","","","","","survey-likert","8","84201","0.0-8.0","SS1678233192341","627286792f25495f123cc27b","6406d7f26dd5b7fc1e3377bd","6407ce6fd3623ecb803c8488","1920","937","","4970","","{""Q0"":1}","[0]","complexity","media/stimuli/inanimate_006_right.png","inanimate","single","right","","","","","","","","","","","","","",""
"","","","","","survey-likert","9","89279","0.0-9.0","SS1678233192341","627286792f25495f123cc27b","6406d7f26dd5b7fc1e3377bd","6407ce6fd3623ecb803c8488","1920","937","","5076","","{""Q0"":1}","[0]","complexity","media/stimuli/animate_006_right.png","animate","pair","right","","","","","","","","","","","","","",""
"","","","","","survey-likert","10","93786","0.0-10.0","SS1678233192341","627286792f25495f123cc27b","6406d7f26dd5b7fc1e3377bd","6407ce6fd3623ecb803c8488","1920","937","","4505","","{""Q0"":1}","[0]","complexity","media/stimuli/inanimate_008_left.png","inanimate","pair","left","","","","","","","","","","","","","",""
"","","","","","survey-likert","11","96246","0.0-11.0","SS1678233192341","627286792f25495f123cc27b","6406d7f26dd5b7fc1e3377bd","6407ce6fd3623ecb803c8488","1920","937","","2459","","{""Q0"":2}","[0]","complexity","media/stimuli/animate_001_right.png","animate","single","right","","","","","","","","","","","","","",""
"","","","","","survey-likert","12","99730","0.0-12.0","SS1678233192341","627286792f25495f123cc27b","6406d7f26dd5b7fc1e3377bd","6407ce6fd3623ecb803c8488","1920","937","","3482","","{""Q0"":2}","[0]","complexity","media/stimuli/animate_004_left.png","animate","pair","left","","","","","","","","","","","","","",""
"","","","","","survey-likert","13","103306","0.0-13.0","SS1678233192341","627286792f25495f123cc27b","6406d7f26dd5b7fc1e3377bd","6407ce6fd3623ecb803c8488","1920","937","","3574","","{""Q0"":2}","[0]","complexity","media/stimuli/animate_002_right.png","animate","pair","right","","","","","","","","","","","","","",""
"","","","","","survey-likert","14","108100","0.0-14.0","SS1678233192341","627286792f25495f123cc27b","6406d7f26dd5b7fc1e3377bd","6407ce6fd3623ecb803c8488","1920","937","","4792","","{""Q0"":2}","[0]","complexity","media/stimuli/animate_012_right.png","animate","single","right","","","","","","","","","","","","","",""
"","","","","","survey-likert","15","111162","0.0-15.0","SS1678233192341","627286792f25495f123cc27b","6406d7f26dd5b7fc1e3377bd","6407ce6fd3623ecb803c8488","1920","937","","3061","","{""Q0"":1}","[0]","complexity","media/stimuli/animate_007_left.png","animate","pair","left","","","","","","","","","","","","","",""
"","","","","","survey-likert","16","113840","0.0-16.0","SS1678233192341","627286792f25495f123cc27b","6406d7f26dd5b7fc1e3377bd","6407ce6fd3623ecb803c8488","1920","937","","2676","","{""Q0"":0}","[0]","complexity","media/stimuli/inanimate_009_right.png","inanimate","pair","right","","","","","","","","","","","","","",""
"","","","","","survey-likert","17","116816","0.0-17.0","SS1678233192341","627286792f25495f123cc27b","6406d7f26dd5b7fc1e3377bd","6407ce6fd3623ecb803c8488","1920","937","","2975","","{""Q0"":0}","[0]","complexity","media/stimuli/inanimate_005_right.png","inanimate","pair","right","","","","","","","","","","","","","",""
"","","","","","survey-likert","18","119798","0.0-18.0","SS1678233192341","627286792f25495f123cc27b","6406d7f26dd5b7fc1e3377bd","6407ce6fd3623ecb803c8488","1920","937","","2981","","{""Q0"":1}","[0]","complexity","media/stimuli/animate_010_right.png","animate","single","right","","","","","","","","","","","","","",""
"","","","","","survey-likert","19","122690","0.0-19.0","SS1678233192341","627286792f25495f123cc27b","6406d7f26dd5b7fc1e3377bd","6407ce6fd3623ecb803c8488","1920","937","","2891","","{""Q0"":1}","[0]","complexity","media/stimuli/animate_009_left.png","animate","pair","left","","","","","","","","","","","","","",""
"","","","","","html-keyboard-response","20","126658","0.0-20.0","SS1678233192341","627286792f25495f123cc27b","6406d7f26dd5b7fc1e3377bd","6407ce6fd3623ecb803c8488","1920","937","","3967","","enter","","","","","","","","","","","","","","","","","","","",""
"","","","","","html-keyboard-response","21","135019","0.0-21.0","SS1678233192341","627286792f25495f123cc27b","6406d7f26dd5b7fc1e3377bd","6407ce6fd3623ecb803c8488","1920","937","","8360","","f","","","","","","","<img src=""media/stimuli/inanimate_006_left.png"" class=""coveredImage test"" style = ""width:100px; height:100px; position:fixed; top:10%;    transform: translate(-50%, -50%);left:48%""></img><img src=""media/stimuli/inanimate_006_left.png"" class=""coveredImage test"" style = ""width:100px; height:100px;position:fixed; top:25%;        transform: translate(-50%, -50%);left:34.5%""></img><img src=""media/stimuli/inanimate_006_left.png"" class=""coveredImage test"" style = ""width:100px; height:100px;position:fixed; top:25%;        transform: translate(-50%, -50%);left:41.5%""></img><img src=""media/stimuli/animate_009_left.png"" class=""coveredImage test"" style = ""width:100px; height:100px;position:fixed; top:25%;        transform: translate(-50%, -50%);left:58%""></img><img src=""media/f.png""style = ""width:30px x; height:30px;position:fixed; top:43%;    transform: translate(-50%, -50%);left:40%""></img><img src=""media/j.png""style = ""width:30px; height:30px;position:fixed; top:43%;    transform: translate(-50%, -50%);left:60%""></img>","media/stimuli/inanimate_006_left.png","inanimate","left","single","media/stimuli/inanimate_006_left.png","inanimate","left","pair","media/stimuli/animate_009_left.png","animate","left","single","number_animacy"
"","","","","","html-keyboard-response","22","137596","0.0-22.0","SS1678233192341","627286792f25495f123cc27b","6406d7f26dd5b7fc1e3377bd","6407ce6fd3623ecb803c8488","1920","937","","2576","","j","","","","","","","<img src=""media/stimuli/inanimate_009_right.png"" class=""coveredImage test"" style = ""width:100px; height:100px; position:fixed; top:10%;    transform: translate(-50%, -50%);left:44.5%""></img><img src=""media/stimuli/inanimate_009_right.png"" class=""coveredImage test"" style = ""width:100px; height:100px; position:fixed; top:10%;    transform: translate(-50%, -50%);left:51.5%""></img><img src=""media/stimuli/inanimate_009_right.png"" class=""coveredImage test"" style = ""width:100px; height:100px;position:fixed; top:25%;        transform: translate(-50%, -50%);left:38%""></img><img src=""media/stimuli/inanimate_009_left.png"" class=""coveredImage test"" style = ""width:100px; height:100px;position:fixed; top:25%;        transform: translate(-50%, -50%);left:54.5%""></img><img src=""media/stimuli/inanimate_009_left.png"" class=""coveredImage test"" style = ""width:100px; height:100px;position:fixed; top:25%;        transform: translate(-50%, -50%);left:61.5%""></img><img src=""media/f.png""style = ""width:30px x; height:30px;position:fixed; top:43%;    transform: translate(-50%, -50%);left:40%""></img><img src=""media/j.png""style = ""width:30px; height:30px;position:fixed; top:43%;    transform: translate(-50%, -50%);left:60%""></img>","media/stimuli/inanimate_009_right.png","inanimate","right","pair","media/stimuli/inanimate_009_right.png","inanimate","right","single","media/stimuli/inanimate_009_left.png","inanimate","left","pair","number_pose"
"","","","","","html-keyboard-response","23","140463","0.0-23.0","SS1678233192341","627286792f25495f123cc27b","6406d7f26dd5b7fc1e3377bd","6407ce6fd3623ecb803c8488","1920","937","","2866","","f","","","","","","","<img src=""media/stimuli/inanimate_005_left.png"" class=""coveredImage test"" style = ""width:100px; height:100px; position:fixed; top:10%;    transform: translate(-50%, -50%);left:48%""></img><img src=""media/stimuli/inanimate_010_left.png"" class=""coveredImage test"" style = ""width:100px; height:100px;position:fixed; top:25%;        transform: translate(-50%, -50%);left:38%""></img><img src=""media/stimuli/animate_012_left.png"" class=""coveredImage test"" style = ""width:100px; height:100px;position:fixed; top:25%;        transform: translate(-50%, -50%);left:58%""></img><img src=""media/f.png""style = ""width:30px x; height:30px;position:fixed; top:43%;    transform: translate(-50%, -50%);left:40%""></img><img src=""media/j.png""style = ""width:30px; height:30px;position:fixed; top:43%;    transform: translate(-50%, -50%);left:60%""></img>","media/stimuli/inanimate_005_left.png","inanimate","left","single","media/stimuli/inanimate_010_left.png","inanimate","left","single","media/stimuli/animate_012_left.png","animate","left","single","identity_animacy"
"","","","","","html-keyboard-response","24","142447","0.0-24.0","SS1678233192341","627286792f25495f123cc27b","6406d7f26dd5b7fc1e3377bd","6407ce6fd3623ecb803c8488","1920","937","","1983","","j","","","","","","","<img src=""media/stimuli/animate_012_right.png"" class=""coveredImage test"" style = ""width:100px; height:100px; position:fixed; top:10%;    transform: translate(-50%, -50%);left:44.5%""></img><img src=""media/stimuli/animate_012_right.png"" class=""coveredImage test"" style = ""width:100px; height:100px; position:fixed; top:10%;    transform: translate(-50%, -50%);left:51.5%""></img><img src=""media/stimuli/inanimate_008_right.png"" class=""coveredImage test"" style = ""width:100px; height:100px;position:fixed; top:25%;        transform: translate(-50%, -50%);left:34.5%""></img><img src=""media/stimuli/inanimate_008_right.png"" class=""coveredImage test"" style = ""width:100px; height:100px;position:fixed; top:25%;        transform: translate(-50%, -50%);left:41.5%""></img><img src=""media/stimuli/animate_007_right.png"" class=""coveredImage test"" style = ""width:100px; height:100px;position:fixed; top:25%;        transform: translate(-50%, -50%);left:54.5%""></img><img src=""media/stimuli/animate_007_right.png"" class=""coveredImage test"" style = ""width:100px; height:100px;position:fixed; top:25%;        transform: translate(-50%, -50%);left:61.5%""></img><img src=""media/f.png""style = ""width:30px x; height:30px;position:fixed; top:43%;    transform: translate(-50%, -50%);left:40%""></img><img src=""media/j.png""style = ""width:30px; height:30px;position:fixed; top:43%;    transform: translate(-50%, -50%);left:60%""></img>","media/stimuli/animate_012_right.png","animate","right","pair","media/stimuli/inanimate_008_right.png","inanimate","right","pair","media/stimuli/animate_007_right.png","animate","right","pair","animacy_identity"
"","","","","","html-keyboard-response","25","143876","0.0-25.0","SS1678233192341","627286792f25495f123cc27b","6406d7f26dd5b7fc1e3377bd","6407ce6fd3623ecb803c8488","1920","937","","1428","","f","","","","","","","<img src=""media/stimuli/animate_012_right.png"" class=""coveredImage test"" style = ""width:100px; height:100px; position:fixed; top:10%;    transform: translate(-50%, -50%);left:44.5%""></img><img src=""media/stimuli/animate_012_right.png"" class=""coveredImage test"" style = ""width:100px; height:100px; position:fixed; top:10%;    transform: translate(-50%, -50%);left:51.5%""></img><img src=""media/stimuli/animate_012_right.png"" class=""coveredImage test"" style = ""width:100px; height:100px;position:fixed; top:25%;        transform: translate(-50%, -50%);left:38%""></img><img src=""media/stimuli/inanimate_012_right.png"" class=""coveredImage test"" style = ""width:100px; height:100px;position:fixed; top:25%;        transform: translate(-50%, -50%);left:54.5%""></img><img src=""media/stimuli/inanimate_012_right.png"" class=""coveredImage test"" style = ""width:100px; height:100px;position:fixed; top:25%;        transform: translate(-50%, -50%);left:61.5%""></img><img src=""media/f.png""style = ""width:30px x; height:30px;position:fixed; top:43%;    transform: translate(-50%, -50%);left:40%""></img><img src=""media/j.png""style = ""width:30px; height:30px;position:fixed; top:43%;    transform: translate(-50%, -50%);left:60%""></img>","media/stimuli/animate_012_right.png","animate","right","pair","media/stimuli/animate_012_right.png","animate","right","single","media/stimuli/inanimate_012_right.png","inanimate","right","pair","number_animacy"
"","","","","","html-keyboard-response","26","145259","0.0-26.0","SS1678233192341","627286792f25495f123cc27b","6406d7f26dd5b7fc1e3377bd","6407ce6fd3623ecb803c8488","1920","937","","1382","","j","","","","","","","<img src=""media/stimuli/animate_009_left.png"" class=""coveredImage test"" style = ""width:100px; height:100px; position:fixed; top:10%;    transform: translate(-50%, -50%);left:44.5%""></img><img src=""media/stimuli/animate_009_left.png"" class=""coveredImage test"" style = ""width:100px; height:100px; position:fixed; top:10%;    transform: translate(-50%, -50%);left:51.5%""></img><img src=""media/stimuli/animate_011_left.png"" class=""coveredImage test"" style = ""width:100px; height:100px;position:fixed; top:25%;        transform: translate(-50%, -50%);left:34.5%""></img><img src=""media/stimuli/animate_011_left.png"" class=""coveredImage test"" style = ""width:100px; height:100px;position:fixed; top:25%;        transform: translate(-50%, -50%);left:41.5%""></img><img src=""media/stimuli/animate_009_left.png"" class=""coveredImage test"" style = ""width:100px; height:100px;position:fixed; top:25%;        transform: translate(-50%, -50%);left:58%""></img><img src=""media/f.png""style = ""width:30px x; height:30px;position:fixed; top:43%;    transform: translate(-50%, -50%);left:40%""></img><img src=""media/j.png""style = ""width:30px; height:30px;position:fixed; top:43%;    transform: translate(-50%, -50%);left:60%""></img>","media/stimuli/animate_009_left.png","animate","left","pair","media/stimuli/animate_011_left.png","animate","left","pair","media/stimuli/animate_009_left.png","animate","left","single","identity_number"
"","","","","","html-keyboard-response","27","146717","0.0-27.0","SS1678233192341","627286792f25495f123cc27b","6406d7f26dd5b7fc1e3377bd","6407ce6fd3623ecb803c8488","1920","937","","1457","","f","","","","","","","<img src=""media/stimuli/animate_012_right.png"" class=""coveredImage test"" style = ""width:100px; height:100px; position:fixed; top:10%;    transform: translate(-50%, -50%);left:48%""></img><img src=""media/stimuli/animate_012_right.png"" class=""coveredImage test"" style = ""width:100px; height:100px;position:fixed; top:25%;        transform: translate(-50%, -50%);left:34.5%""></img><img src=""media/stimuli/animate_012_right.png"" class=""coveredImage test"" style = ""width:100px; height:100px;position:fixed; top:25%;        transform: translate(-50%, -50%);left:41.5%""></img><img src=""media/stimuli/animate_006_right.png"" class=""coveredImage test"" style = ""width:100px; height:100px;position:fixed; top:25%;        transform: translate(-50%, -50%);left:58%""></img><img src=""media/f.png""style = ""width:30px x; height:30px;position:fixed; top:43%;    transform: translate(-50%, -50%);left:40%""></img><img src=""media/j.png""style = ""width:30px; height:30px;position:fixed; top:43%;    transform: translate(-50%, -50%);left:60%""></img>","media/stimuli/animate_012_right.png","animate","right","single","media/stimuli/animate_012_right.png","animate","right","pair","media/stimuli/animate_006_right.png","animate","right","single","number_identity"
"","","","","","html-keyboard-response","28","148914","0.0-28.0","SS1678233192341","627286792f25495f123cc27b","6406d7f26dd5b7fc1e3377bd","6407ce6fd3623ecb803c8488","1920","937","","2196","","f","","","","","","","<img src=""media/stimuli/inanimate_002_right.png"" class=""coveredImage test"" style = ""width:100px; height:100px; position:fixed; top:10%;    transform: translate(-50%, -50%);left:44.5%""></img><img src=""media/stimuli/inanimate_002_right.png"" class=""coveredImage test"" style = ""width:100px; height:100px; position:fixed; top:10%;    transform: translate(-50%, -50%);left:51.5%""></img><img src=""media/stimuli/inanimate_002_left.png"" class=""coveredImage test"" style = ""width:100px; height:100px;position:fixed; top:25%;        transform: translate(-50%, -50%);left:34.5%""></img><img src=""media/stimuli/inanimate_002_left.png"" class=""coveredImage test"" style = ""width:100px; height:100px;position:fixed; top:25%;        transform: translate(-50%, -50%);left:41.5%""></img><img src=""media/stimuli/inanimate_002_right.png"" class=""coveredImage test"" style = ""width:100px; height:100px;position:fixed; top:25%;        transform: translate(-50%, -50%);left:58%""></img><img src=""media/f.png""style = ""width:30px x; height:30px;position:fixed; top:43%;    transform: translate(-50%, -50%);left:40%""></img><img src=""media/j.png""style = ""width:30px; height:30px;position:fixed; top:43%;    transform: translate(-50%, -50%);left:60%""></img>","media/stimuli/inanimate_002_right.png","inanimate","right","pair","media/stimuli/inanimate_002_left.png","inanimate","left","pair","media/stimuli/inanimate_002_right.png","inanimate","right","single","pose_number"
"","","","","","html-keyboard-response","29","150442","0.0-29.0","SS1678233192341","627286792f25495f123cc27b","6406d7f26dd5b7fc1e3377bd","6407ce6fd3623ecb803c8488","1920","937","","1527","","f","","","","","","","<img src=""media/stimuli/animate_004_left.png"" class=""coveredImage test"" style = ""width:100px; height:100px; position:fixed; top:10%;    transform: translate(-50%, -50%);left:44.5%""></img><img src=""media/stimuli/animate_004_left.png"" class=""coveredImage test"" style = ""width:100px; height:100px; position:fixed; top:10%;    transform: translate(-50%, -50%);left:51.5%""></img><img src=""media/stimuli/animate_004_left.png"" class=""coveredImage test"" style = ""width:100px; height:100px;position:fixed; top:25%;        transform: translate(-50%, -50%);left:38%""></img><img src=""media/stimuli/inanimate_006_left.png"" class=""coveredImage test"" style = ""width:100px; height:100px;position:fixed; top:25%;        transform: translate(-50%, -50%);left:54.5%""></img><img src=""media/stimuli/inanimate_006_left.png"" class=""coveredImage test"" style = ""width:100px; height:100px;position:fixed; top:25%;        transform: translate(-50%, -50%);left:61.5%""></img><img src=""media/f.png""style = ""width:30px x; height:30px;position:fixed; top:43%;    transform: translate(-50%, -50%);left:40%""></img><img src=""media/j.png""style = ""width:30px; height:30px;position:fixed; top:43%;    transform: translate(-50%, -50%);left:60%""></img>","media/stimuli/animate_004_left.png","animate","left","pair","media/stimuli/animate_004_left.png","animate","left","single","media/stimuli/inanimate_006_left.png","inanimate","left","pair","number_animacy"
"","","","","","html-keyboard-response","30","151903","0.0-30.0","SS1678233192341","627286792f25495f123cc27b","6406d7f26dd5b7fc1e3377bd","6407ce6fd3623ecb803c8488","1920","937","","1460","","f","","","","","","","<img src=""media/stimuli/animate_004_left.png"" class=""coveredImage test"" style = ""width:100px; height:100px; position:fixed; top:10%;    transform: translate(-50%, -50%);left:48%""></img><img src=""media/stimuli/animate_004_left.png"" class=""coveredImage test"" style = ""width:100px; height:100px;position:fixed; top:25%;        transform: translate(-50%, -50%);left:34.5%""></img><img src=""media/stimuli/animate_004_left.png"" class=""coveredImage test"" style = ""width:100px; height:100px;position:fixed; top:25%;        transform: translate(-50%, -50%);left:41.5%""></img><img src=""media/stimuli/animate_008_left.png"" class=""coveredImage test"" style = ""width:100px; height:100px;position:fixed; top:25%;        transform: translate(-50%, -50%);left:58%""></img><img src=""media/f.png""style = ""width:30px x; height:30px;position:fixed; top:43%;    transform: translate(-50%, -50%);left:40%""></img><img src=""media/j.png""style = ""width:30px; height:30px;position:fixed; top:43%;    transform: translate(-50%, -50%);left:60%""></img>","media/stimuli/animate_004_left.png","animate","left","single","media/stimuli/animate_004_left.png","animate","left","pair","media/stimuli/animate_008_left.png","animate","left","single","number_identity"
"","","","","","html-keyboard-response","31","153233","0.0-31.0","SS1678233192341","627286792f25495f123cc27b","6406d7f26dd5b7fc1e3377bd","6407ce6fd3623ecb803c8488","1920","937","","1329","","j","","","","","","","<img src=""media/stimuli/inanimate_005_right.png"" class=""coveredImage test"" style = ""width:100px; height:100px; position:fixed; top:10%;    transform: translate(-50%, -50%);left:48%""></img><img src=""media/stimuli/inanimate_006_right.png"" class=""coveredImage test"" style = ""width:100px; height:100px;position:fixed; top:25%;        transform: translate(-50%, -50%);left:38%""></img><img src=""media/stimuli/inanimate_005_left.png"" class=""coveredImage test"" style = ""width:100px; height:100px;position:fixed; top:25%;        transform: translate(-50%, -50%);left:58%""></img><img src=""media/f.png""style = ""width:30px x; height:30px;position:fixed; top:43%;    transform: translate(-50%, -50%);left:40%""></img><img src=""media/j.png""style = ""width:30px; height:30px;position:fixed; top:43%;    transform: translate(-50%, -50%);left:60%""></img>","media/stimuli/inanimate_005_right.png","inanimate","right","single","media/stimuli/inanimate_006_right.png","inanimate","right","single","media/stimuli/inanimate_005_left.png","inanimate","left","single","identity_pose"
"","","","","","html-keyboard-response","32","154577","0.0-32.0","SS1678233192341","627286792f25495f123cc27b","6406d7f26dd5b7fc1e3377bd","6407ce6fd3623ecb803c8488","1920","937","","1343","","j","","","","","","","<img src=""media/stimuli/inanimate_011_right.png"" class=""coveredImage test"" style = ""width:100px; height:100px; position:fixed; top:10%;    transform: translate(-50%, -50%);left:48%""></img><img src=""media/stimuli/animate_006_right.png"" class=""coveredImage test"" style = ""width:100px; height:100px;position:fixed; top:25%;        transform: translate(-50%, -50%);left:38%""></img><img src=""media/stimuli/inanimate_011_right.png"" class=""coveredImage test"" style = ""width:100px; height:100px;position:fixed; top:25%;        transform: translate(-50%, -50%);left:54.5%""></img><img src=""media/stimuli/inanimate_011_right.png"" class=""coveredImage test"" style = ""width:100px; height:100px;position:fixed; top:25%;        transform: translate(-50%, -50%);left:61.5%""></img><img src=""media/f.png""style = ""width:30px x; height:30px;position:fixed; top:43%;    transform: translate(-50%, -50%);left:40%""></img><img src=""media/j.png""style = ""width:30px; height:30px;position:fixed; top:43%;    transform: translate(-50%, -50%);left:60%""></img>","media/stimuli/inanimate_011_right.png","inanimate","right","single","media/stimuli/animate_006_right.png","animate","right","single","media/stimuli/inanimate_011_right.png","inanimate","right","pair","animacy_number"
"","","","","","html-keyboard-response","33","156904","0.0-33.0","SS1678233192341","627286792f25495f123cc27b","6406d7f26dd5b7fc1e3377bd","6407ce6fd3623ecb803c8488","1920","937","","2326",""," ","","","","","","","","","","","","","","","","","","","",""
"","","","","","html-keyboard-response","34","158490","0.0-34.0","SS1678233192341","627286792f25495f123cc27b","6406d7f26dd5b7fc1e3377bd","6407ce6fd3623ecb803c8488","1920","937","","1585","","f","","","","","","","<img src=""media/stimuli/inanimate_009_right.png"" class=""coveredImage test"" style = ""width:100px; height:100px; position:fixed; top:10%;    transform: translate(-50%, -50%);left:48%""></img><img src=""media/stimuli/inanimate_009_right.png"" class=""coveredImage test"" style = ""width:100px; height:100px;position:fixed; top:25%;        transform: translate(-50%, -50%);left:34.5%""></img><img src=""media/stimuli/inanimate_009_right.png"" class=""coveredImage test"" style = ""width:100px; height:100px;position:fixed; top:25%;        transform: translate(-50%, -50%);left:41.5%""></img><img src=""media/stimuli/animate_002_right.png"" class=""coveredImage test"" style = ""width:100px; height:100px;position:fixed; top:25%;        transform: translate(-50%, -50%);left:58%""></img><img src=""media/f.png""style = ""width:30px x; height:30px;position:fixed; top:43%;    transform: translate(-50%, -50%);left:40%""></img><img src=""media/j.png""style = ""width:30px; height:30px;position:fixed; top:43%;    transform: translate(-50%, -50%);left:60%""></img>","media/stimuli/inanimate_009_right.png","inanimate","right","single","media/stimuli/inanimate_009_right.png","inanimate","right","pair","media/stimuli/animate_002_right.png","animate","right","single","number_animacy"
"","","","","","html-keyboard-response","35","159738","0.0-35.0","SS1678233192341","627286792f25495f123cc27b","6406d7f26dd5b7fc1e3377bd","6407ce6fd3623ecb803c8488","1920","937","","1247","","j","","","","","","","<img src=""media/stimuli/animate_002_right.png"" class=""coveredImage test"" style = ""width:100px; height:100px; position:fixed; top:10%;    transform: translate(-50%, -50%);left:44.5%""></img><img src=""media/stimuli/animate_002_right.png"" class=""coveredImage test"" style = ""width:100px; height:100px; position:fixed; top:10%;    transform: translate(-50%, -50%);left:51.5%""></img><img src=""media/stimuli/inanimate_002_left.png"" class=""coveredImage test"" style = ""width:100px; height:100px;position:fixed; top:25%;        transform: translate(-50%, -50%);left:34.5%""></img><img src=""media/stimuli/inanimate_002_left.png"" class=""coveredImage test"" style = ""width:100px; height:100px;position:fixed; top:25%;        transform: translate(-50%, -50%);left:41.5%""></img><img src=""media/stimuli/animate_002_right.png"" class=""coveredImage test"" style = ""width:100px; height:100px;position:fixed; top:25%;        transform: translate(-50%, -50%);left:54.5%""></img><img src=""media/stimuli/animate_002_right.png"" class=""coveredImage test"" style = ""width:100px; height:100px;position:fixed; top:25%;        transform: translate(-50%, -50%);left:61.5%""></img><img src=""media/f.png""style = ""width:30px x; height:30px;position:fixed; top:43%;    transform: translate(-50%, -50%);left:40%""></img><img src=""media/j.png""style = ""width:30px; height:30px;position:fixed; top:43%;    transform: translate(-50%, -50%);left:60%""></img>","media/stimuli/animate_002_right.png","animate","right","pair","media/stimuli/inanimate_002_left.png","inanimate","left","pair","media/stimuli/animate_002_right.png","animate","right","pair","animacy_pose"
"","","","","","html-keyboard-response","36","160974","0.0-36.0","SS1678233192341","627286792f25495f123cc27b","6406d7f26dd5b7fc1e3377bd","6407ce6fd3623ecb803c8488","1920","937","","1235","","f","","","","","","","<img src=""media/stimuli/inanimate_002_right.png"" class=""coveredImage test"" style = ""width:100px; height:100px; position:fixed; top:10%;    transform: translate(-50%, -50%);left:48%""></img><img src=""media/stimuli/inanimate_001_right.png"" class=""coveredImage test"" style = ""width:100px; height:100px;position:fixed; top:25%;        transform: translate(-50%, -50%);left:38%""></img><img src=""media/stimuli/animate_010_right.png"" class=""coveredImage test"" style = ""width:100px; height:100px;position:fixed; top:25%;        transform: translate(-50%, -50%);left:58%""></img><img src=""media/f.png""style = ""width:30px x; height:30px;position:fixed; top:43%;    transform: translate(-50%, -50%);left:40%""></img><img src=""media/j.png""style = ""width:30px; height:30px;position:fixed; top:43%;    transform: translate(-50%, -50%);left:60%""></img>","media/stimuli/inanimate_002_right.png","inanimate","right","single","media/stimuli/inanimate_001_right.png","inanimate","right","single","media/stimuli/animate_010_right.png","animate","right","single","identity_animacy"
"","","","","","html-keyboard-response","37","162289","0.0-37.0","SS1678233192341","627286792f25495f123cc27b","6406d7f26dd5b7fc1e3377bd","6407ce6fd3623ecb803c8488","1920","937","","1314","","f","","","","","","","<img src=""media/stimuli/animate_012_right.png"" class=""coveredImage test"" style = ""width:100px; height:100px; position:fixed; top:10%;    transform: translate(-50%, -50%);left:48%""></img><img src=""media/stimuli/animate_012_right.png"" class=""coveredImage test"" style = ""width:100px; height:100px;position:fixed; top:25%;        transform: translate(-50%, -50%);left:34.5%""></img><img src=""media/stimuli/animate_012_right.png"" class=""coveredImage test"" style = ""width:100px; height:100px;position:fixed; top:25%;        transform: translate(-50%, -50%);left:41.5%""></img><img src=""media/stimuli/animate_009_right.png"" class=""coveredImage test"" style = ""width:100px; height:100px;position:fixed; top:25%;        transform: translate(-50%, -50%);left:58%""></img><img src=""media/f.png""style = ""width:30px x; height:30px;position:fixed; top:43%;    transform: translate(-50%, -50%);left:40%""></img><img src=""media/j.png""style = ""width:30px; height:30px;position:fixed; top:43%;    transform: translate(-50%, -50%);left:60%""></img>","media/stimuli/animate_012_right.png","animate","right","single","media/stimuli/animate_012_right.png","animate","right","pair","media/stimuli/animate_009_right.png","animate","right","single","number_identity"
"","","","","","html-keyboard-response","38","163420","0.0-38.0","SS1678233192341","627286792f25495f123cc27b","6406d7f26dd5b7fc1e3377bd","6407ce6fd3623ecb803c8488","1920","937","","1131","","j","","","","","","","<img src=""media/stimuli/animate_002_right.png"" class=""coveredImage test"" style = ""width:100px; height:100px; position:fixed; top:10%;    transform: translate(-50%, -50%);left:48%""></img><img src=""media/stimuli/animate_003_right.png"" class=""coveredImage test"" style = ""width:100px; height:100px;position:fixed; top:25%;        transform: translate(-50%, -50%);left:38%""></img><img src=""media/stimuli/animate_002_left.png"" class=""coveredImage test"" style = ""width:100px; height:100px;position:fixed; top:25%;        transform: translate(-50%, -50%);left:58%""></img><img src=""media/f.png""style = ""width:30px x; height:30px;position:fixed; top:43%;    transform: translate(-50%, -50%);left:40%""></img><img src=""media/j.png""style = ""width:30px; height:30px;position:fixed; top:43%;    transform: translate(-50%, -50%);left:60%""></img>","media/stimuli/animate_002_right.png","animate","right","single","media/stimuli/animate_003_right.png","animate","right","single","media/stimuli/animate_002_left.png","animate","left","single","identity_pose"
"","","","","","html-keyboard-response","39","164676","0.0-39.0","SS1678233192341","627286792f25495f123cc27b","6406d7f26dd5b7fc1e3377bd","6407ce6fd3623ecb803c8488","1920","937","","1255","","f","","","","","","","<img src=""media/stimuli/animate_004_left.png"" class=""coveredImage test"" style = ""width:100px; height:100px; position:fixed; top:10%;    transform: translate(-50%, -50%);left:48%""></img><img src=""media/stimuli/animate_004_left.png"" class=""coveredImage test"" style = ""width:100px; height:100px;position:fixed; top:25%;        transform: translate(-50%, -50%);left:34.5%""></img><img src=""media/stimuli/animate_004_left.png"" class=""coveredImage test"" style = ""width:100px; height:100px;position:fixed; top:25%;        transform: translate(-50%, -50%);left:41.5%""></img><img src=""media/stimuli/animate_003_left.png"" class=""coveredImage test"" style = ""width:100px; height:100px;position:fixed; top:25%;        transform: translate(-50%, -50%);left:58%""></img><img src=""media/f.png""style = ""width:30px x; height:30px;position:fixed; top:43%;    transform: translate(-50%, -50%);left:40%""></img><img src=""media/j.png""style = ""width:30px; height:30px;position:fixed; top:43%;    transform: translate(-50%, -50%);left:60%""></img>","media/stimuli/animate_004_left.png","animate","left","single","media/stimuli/animate_004_left.png","animate","left","pair","media/stimuli/animate_003_left.png","animate","left","single","number_identity"
"","","","","","html-keyboard-response","40","166434","0.0-40.0","SS1678233192341","627286792f25495f123cc27b","6406d7f26dd5b7fc1e3377bd","6407ce6fd3623ecb803c8488","1920","937","","1757","","f","","","","","","","<img src=""media/stimuli/animate_011_left.png"" class=""coveredImage test"" style = ""width:100px; height:100px; position:fixed; top:10%;    transform: translate(-50%, -50%);left:44.5%""></img><img src=""media/stimuli/animate_011_left.png"" class=""coveredImage test"" style = ""width:100px; height:100px; position:fixed; top:10%;    transform: translate(-50%, -50%);left:51.5%""></img><img src=""media/stimuli/animate_011_right.png"" class=""coveredImage test"" style = ""width:100px; height:100px;position:fixed; top:25%;        transform: translate(-50%, -50%);left:34.5%""></img><img src=""media/stimuli/animate_011_right.png"" class=""coveredImage test"" style = ""width:100px; height:100px;position:fixed; top:25%;        transform: translate(-50%, -50%);left:41.5%""></img><img src=""media/stimuli/animate_011_left.png"" class=""coveredImage test"" style = ""width:100px; height:100px;position:fixed; top:25%;        transform: translate(-50%, -50%);left:58%""></img><img src=""media/f.png""style = ""width:30px x; height:30px;position:fixed; top:43%;    transform: translate(-50%, -50%);left:40%""></img><img src=""media/j.png""style = ""width:30px; height:30px;position:fixed; top:43%;    transform: translate(-50%, -50%);left:60%""></img>","media/stimuli/animate_011_left.png","animate","left","pair","media/stimuli/animate_011_right.png","animate","right","pair","media/stimuli/animate_011_left.png","animate","left","single","pose_number"
"","","","","","html-keyboard-response","41","168324","0.0-41.0","SS1678233192341","627286792f25495f123cc27b","6406d7f26dd5b7fc1e3377bd","6407ce6fd3623ecb803c8488","1920","937","","1888","","j","","","","","","","<img src=""media/stimuli/inanimate_004_right.png"" class=""coveredImage test"" style = ""width:100px; height:100px; position:fixed; top:10%;    transform: translate(-50%, -50%);left:44.5%""></img><img src=""media/stimuli/inanimate_004_right.png"" class=""coveredImage test"" style = ""width:100px; height:100px; position:fixed; top:10%;    transform: translate(-50%, -50%);left:51.5%""></img><img src=""media/stimuli/animate_010_right.png"" class=""coveredImage test"" style = ""width:100px; height:100px;position:fixed; top:25%;        transform: translate(-50%, -50%);left:34.5%""></img><img src=""media/stimuli/animate_010_right.png"" class=""coveredImage test"" style = ""width:100px; height:100px;position:fixed; top:25%;        transform: translate(-50%, -50%);left:41.5%""></img><img src=""media/stimuli/inanimate_011_right.png"" class=""coveredImage test"" style = ""width:100px; height:100px;position:fixed; top:25%;        transform: translate(-50%, -50%);left:54.5%""></img><img src=""media/stimuli/inanimate_011_right.png"" class=""coveredImage test"" style = ""width:100px; height:100px;position:fixed; top:25%;        transform: translate(-50%, -50%);left:61.5%""></img><img src=""media/f.png""style = ""width:30px x; height:30px;position:fixed; top:43%;    transform: translate(-50%, -50%);left:40%""></img><img src=""media/j.png""style = ""width:30px; height:30px;position:fixed; top:43%;    transform: translate(-50%, -50%);left:60%""></img>","media/stimuli/inanimate_004_right.png","inanimate","right","pair","media/stimuli/animate_010_right.png","animate","right","pair","media/stimuli/inanimate_011_right.png","inanimate","right","pair","animacy_identity"
"","","","","","html-keyboard-response","42","169484","0.0-42.0","SS1678233192341","627286792f25495f123cc27b","6406d7f26dd5b7fc1e3377bd","6407ce6fd3623ecb803c8488","1920","937","","1159","","j","","","","","","","<img src=""media/stimuli/inanimate_012_right.png"" class=""coveredImage test"" style = ""width:100px; height:100px; position:fixed; top:10%;    transform: translate(-50%, -50%);left:48%""></img><img src=""media/stimuli/animate_010_right.png"" class=""coveredImage test"" style = ""width:100px; height:100px;position:fixed; top:25%;        transform: translate(-50%, -50%);left:38%""></img><img src=""media/stimuli/inanimate_012_right.png"" class=""coveredImage test"" style = ""width:100px; height:100px;position:fixed; top:25%;        transform: translate(-50%, -50%);left:54.5%""></img><img src=""media/stimuli/inanimate_012_right.png"" class=""coveredImage test"" style = ""width:100px; height:100px;position:fixed; top:25%;        transform: translate(-50%, -50%);left:61.5%""></img><img src=""media/f.png""style = ""width:30px x; height:30px;position:fixed; top:43%;    transform: translate(-50%, -50%);left:40%""></img><img src=""media/j.png""style = ""width:30px; height:30px;position:fixed; top:43%;    transform: translate(-50%, -50%);left:60%""></img>","media/stimuli/inanimate_012_right.png","inanimate","right","single","media/stimuli/animate_010_right.png","animate","right","single","media/stimuli/inanimate_012_right.png","inanimate","right","pair","animacy_number"
"","","","","","html-keyboard-response","43","170697","0.0-43.0","SS1678233192341","627286792f25495f123cc27b","6406d7f26dd5b7fc1e3377bd","6407ce6fd3623ecb803c8488","1920","937","","1211","","f","","","","","","","<img src=""media/stimuli/animate_009_left.png"" class=""coveredImage test"" style = ""width:100px; height:100px; position:fixed; top:10%;    transform: translate(-50%, -50%);left:48%""></img><img src=""media/stimuli/animate_009_left.png"" class=""coveredImage test"" style = ""width:100px; height:100px;position:fixed; top:25%;        transform: translate(-50%, -50%);left:34.5%""></img><img src=""media/stimuli/animate_009_left.png"" class=""coveredImage test"" style = ""width:100px; height:100px;position:fixed; top:25%;        transform: translate(-50%, -50%);left:41.5%""></img><img src=""media/stimuli/inanimate_004_left.png"" class=""coveredImage test"" style = ""width:100px; height:100px;position:fixed; top:25%;        transform: translate(-50%, -50%);left:58%""></img><img src=""media/f.png""style = ""width:30px x; height:30px;position:fixed; top:43%;    transform: translate(-50%, -50%);left:40%""></img><img src=""media/j.png""style = ""width:30px; height:30px;position:fixed; top:43%;    transform: translate(-50%, -50%);left:60%""></img>","media/stimuli/animate_009_left.png","animate","left","single","media/stimuli/animate_009_left.png","animate","left","pair","media/stimuli/inanimate_004_left.png","inanimate","left","single","number_animacy"
"","","","","","html-keyboard-response","44","171833","0.0-44.0","SS1678233192341","627286792f25495f123cc27b","6406d7f26dd5b7fc1e3377bd","6407ce6fd3623ecb803c8488","1920","937","","1135","","j","","","","","","","<img src=""media/stimuli/inanimate_001_left.png"" class=""coveredImage test"" style = ""width:100px; height:100px; position:fixed; top:10%;    transform: translate(-50%, -50%);left:44.5%""></img><img src=""media/stimuli/inanimate_001_left.png"" class=""coveredImage test"" style = ""width:100px; height:100px; position:fixed; top:10%;    transform: translate(-50%, -50%);left:51.5%""></img><img src=""media/stimuli/inanimate_001_left.png"" class=""coveredImage test"" style = ""width:100px; height:100px;position:fixed; top:25%;        transform: translate(-50%, -50%);left:38%""></img><img src=""media/stimuli/inanimate_001_right.png"" class=""coveredImage test"" style = ""width:100px; height:100px;position:fixed; top:25%;        transform: translate(-50%, -50%);left:54.5%""></img><img src=""media/stimuli/inanimate_001_right.png"" class=""coveredImage test"" style = ""width:100px; height:100px;position:fixed; top:25%;        transform: translate(-50%, -50%);left:61.5%""></img><img src=""media/f.png""style = ""width:30px x; height:30px;position:fixed; top:43%;    transform: translate(-50%, -50%);left:40%""></img><img src=""media/j.png""style = ""width:30px; height:30px;position:fixed; top:43%;    transform: translate(-50%, -50%);left:60%""></img>","media/stimuli/inanimate_001_left.png","inanimate","left","pair","media/stimuli/inanimate_001_left.png","inanimate","left","single","media/stimuli/inanimate_001_right.png","inanimate","right","pair","number_pose"
"","","","","","html-keyboard-response","45","173764","0.0-45.0","SS1678233192341","627286792f25495f123cc27b","6406d7f26dd5b7fc1e3377bd","6407ce6fd3623ecb803c8488","1920","937","","1930","","j","","","","","","","<img src=""media/stimuli/animate_003_right.png"" class=""coveredImage test"" style = ""width:100px; height:100px; position:fixed; top:10%;    transform: translate(-50%, -50%);left:48%""></img><img src=""media/stimuli/animate_003_right.png"" class=""coveredImage test"" style = ""width:100px; height:100px;position:fixed; top:25%;        transform: translate(-50%, -50%);left:34.5%""></img><img src=""media/stimuli/animate_003_right.png"" class=""coveredImage test"" style = ""width:100px; height:100px;position:fixed; top:25%;        transform: translate(-50%, -50%);left:41.5%""></img><img src=""media/stimuli/animate_003_left.png"" class=""coveredImage test"" style = ""width:100px; height:100px;position:fixed; top:25%;        transform: translate(-50%, -50%);left:58%""></img><img src=""media/f.png""style = ""width:30px x; height:30px;position:fixed; top:43%;    transform: translate(-50%, -50%);left:40%""></img><img src=""media/j.png""style = ""width:30px; height:30px;position:fixed; top:43%;    transform: translate(-50%, -50%);left:60%""></img>","media/stimuli/animate_003_right.png","animate","right","single","media/stimuli/animate_003_right.png","animate","right","pair","media/stimuli/animate_003_left.png","animate","left","single","number_pose"
"","","","","","html-keyboard-response","46","175083","0.0-46.0","SS1678233192341","627286792f25495f123cc27b","6406d7f26dd5b7fc1e3377bd","6407ce6fd3623ecb803c8488","1920","937","","1317",""," ","","","","","","","","","","","","","","","","","","","",""
"","","","","","html-keyboard-response","47","176215","0.0-47.0","SS1678233192341","627286792f25495f123cc27b","6406d7f26dd5b7fc1e3377bd","6407ce6fd3623ecb803c8488","1920","937","","1131","","f","","","","","","","<img src=""media/stimuli/inanimate_004_right.png"" class=""coveredImage test"" style = ""width:100px; height:100px; position:fixed; top:10%;    transform: translate(-50%, -50%);left:48%""></img><img src=""media/stimuli/inanimate_004_left.png"" class=""coveredImage test"" style = ""width:100px; height:100px;position:fixed; top:25%;        transform: translate(-50%, -50%);left:34.5%""></img><img src=""media/stimuli/inanimate_004_left.png"" class=""coveredImage test"" style = ""width:100px; height:100px;position:fixed; top:25%;        transform: translate(-50%, -50%);left:41.5%""></img><img src=""media/stimuli/animate_010_right.png"" class=""coveredImage test"" style = ""width:100px; height:100px;position:fixed; top:25%;        transform: translate(-50%, -50%);left:54.5%""></img><img src=""media/stimuli/animate_010_right.png"" class=""coveredImage test"" style = ""width:100px; height:100px;position:fixed; top:25%;        transform: translate(-50%, -50%);left:61.5%""></img><img src=""media/f.png""style = ""width:30px x; height:30px;position:fixed; top:43%;    transform: translate(-50%, -50%);left:40%""></img><img src=""media/j.png""style = ""width:30px; height:30px;position:fixed; top:43%;    transform: translate(-50%, -50%);left:60%""></img>","media/stimuli/inanimate_004_right.png","inanimate","right","single","media/stimuli/inanimate_004_left.png","inanimate","left","pair","media/stimuli/animate_010_right.png","animate","right","pair","pose_animacy"
"","","","","","html-keyboard-response","48","177524","0.0-48.0","SS1678233192341","627286792f25495f123cc27b","6406d7f26dd5b7fc1e3377bd","6407ce6fd3623ecb803c8488","1920","937","","1307","","f","","","","","","","<img src=""media/stimuli/animate_012_left.png"" class=""coveredImage test"" style = ""width:100px; height:100px; position:fixed; top:10%;    transform: translate(-50%, -50%);left:48%""></img><img src=""media/stimuli/animate_012_right.png"" class=""coveredImage test"" style = ""width:100px; height:100px;position:fixed; top:25%;        transform: translate(-50%, -50%);left:38%""></img><img src=""media/stimuli/inanimate_005_left.png"" class=""coveredImage test"" style = ""width:100px; height:100px;position:fixed; top:25%;        transform: translate(-50%, -50%);left:58%""></img><img src=""media/f.png""style = ""width:30px x; height:30px;position:fixed; top:43%;    transform: translate(-50%, -50%);left:40%""></img><img src=""media/j.png""style = ""width:30px; height:30px;position:fixed; top:43%;    transform: translate(-50%, -50%);left:60%""></img>","media/stimuli/animate_012_left.png","animate","left","single","media/stimuli/animate_012_right.png","animate","right","single","media/stimuli/inanimate_005_left.png","inanimate","left","single","pose_animacy"
"","","","","","html-keyboard-response","49","178867","0.0-49.0","SS1678233192341","627286792f25495f123cc27b","6406d7f26dd5b7fc1e3377bd","6407ce6fd3623ecb803c8488","1920","937","","1342","","f","","","","","","","<img src=""media/stimuli/animate_009_right.png"" class=""coveredImage test"" style = ""width:100px; height:100px; position:fixed; top:10%;    transform: translate(-50%, -50%);left:44.5%""></img><img src=""media/stimuli/animate_009_right.png"" class=""coveredImage test"" style = ""width:100px; height:100px; position:fixed; top:10%;    transform: translate(-50%, -50%);left:51.5%""></img><img src=""media/stimuli/animate_009_left.png"" class=""coveredImage test"" style = ""width:100px; height:100px;position:fixed; top:25%;        transform: translate(-50%, -50%);left:34.5%""></img><img src=""media/stimuli/animate_009_left.png"" class=""coveredImage test"" style = ""width:100px; height:100px;position:fixed; top:25%;        transform: translate(-50%, -50%);left:41.5%""></img><img src=""media/stimuli/animate_009_right.png"" class=""coveredImage test"" style = ""width:100px; height:100px;position:fixed; top:25%;        transform: translate(-50%, -50%);left:58%""></img><img src=""media/f.png""style = ""width:30px x; height:30px;position:fixed; top:43%;    transform: translate(-50%, -50%);left:40%""></img><img src=""media/j.png""style = ""width:30px; height:30px;position:fixed; top:43%;    transform: translate(-50%, -50%);left:60%""></img>","media/stimuli/animate_009_right.png","animate","right","pair","media/stimuli/animate_009_left.png","animate","left","pair","media/stimuli/animate_009_right.png","animate","right","single","pose_number"
"","","","","","html-keyboard-response","50","180610","0.0-50.0","SS1678233192341","627286792f25495f123cc27b","6406d7f26dd5b7fc1e3377bd","6407ce6fd3623ecb803c8488","1920","937","","1741","","f","","","","","","","<img src=""media/stimuli/animate_010_right.png"" class=""coveredImage test"" style = ""width:100px; height:100px; position:fixed; top:10%;    transform: translate(-50%, -50%);left:44.5%""></img><img src=""media/stimuli/animate_010_right.png"" class=""coveredImage test"" style = ""width:100px; height:100px; position:fixed; top:10%;    transform: translate(-50%, -50%);left:51.5%""></img><img src=""media/stimuli/animate_009_right.png"" class=""coveredImage test"" style = ""width:100px; height:100px;position:fixed; top:25%;        transform: translate(-50%, -50%);left:34.5%""></img><img src=""media/stimuli/animate_009_right.png"" class=""coveredImage test"" style = ""width:100px; height:100px;position:fixed; top:25%;        transform: translate(-50%, -50%);left:41.5%""></img><img src=""media/stimuli/inanimate_012_right.png"" class=""coveredImage test"" style = ""width:100px; height:100px;position:fixed; top:25%;        transform: translate(-50%, -50%);left:54.5%""></img><img src=""media/stimuli/inanimate_012_right.png"" class=""coveredImage test"" style = ""width:100px; height:100px;position:fixed; top:25%;        transform: translate(-50%, -50%);left:61.5%""></img><img src=""media/f.png""style = ""width:30px x; height:30px;position:fixed; top:43%;    transform: translate(-50%, -50%);left:40%""></img><img src=""media/j.png""style = ""width:30px; height:30px;position:fixed; top:43%;    transform: translate(-50%, -50%);left:60%""></img>","media/stimuli/animate_010_right.png","animate","right","pair","media/stimuli/animate_009_right.png","animate","right","pair","media/stimuli/inanimate_012_right.png","inanimate","right","pair","identity_animacy"
"","","","","","html-keyboard-response","51","181947","0.0-51.0","SS1678233192341","627286792f25495f123cc27b","6406d7f26dd5b7fc1e3377bd","6407ce6fd3623ecb803c8488","1920","937","","1335","","f","","","","","","","<img src=""media/stimuli/inanimate_001_right.png"" class=""coveredImage test"" style = ""width:100px; height:100px; position:fixed; top:10%;    transform: translate(-50%, -50%);left:48%""></img><img src=""media/stimuli/inanimate_001_left.png"" class=""coveredImage test"" style = ""width:100px; height:100px;position:fixed; top:25%;        transform: translate(-50%, -50%);left:38%""></img><img src=""media/stimuli/inanimate_011_right.png"" class=""coveredImage test"" style = ""width:100px; height:100px;position:fixed; top:25%;        transform: translate(-50%, -50%);left:58%""></img><img src=""media/f.png""style = ""width:30px x; height:30px;position:fixed; top:43%;    transform: translate(-50%, -50%);left:40%""></img><img src=""media/j.png""style = ""width:30px; height:30px;position:fixed; top:43%;    transform: translate(-50%, -50%);left:60%""></img>","media/stimuli/inanimate_001_right.png","inanimate","right","single","media/stimuli/inanimate_001_left.png","inanimate","left","single","media/stimuli/inanimate_011_right.png","inanimate","right","single","pose_identity"
"","","","","","html-keyboard-response","52","183216","0.0-52.0","SS1678233192341","627286792f25495f123cc27b","6406d7f26dd5b7fc1e3377bd","6407ce6fd3623ecb803c8488","1920","937","","1268","","f","","","","","","","<img src=""media/stimuli/inanimate_001_right.png"" class=""coveredImage test"" style = ""width:100px; height:100px; position:fixed; top:10%;    transform: translate(-50%, -50%);left:48%""></img><img src=""media/stimuli/inanimate_001_left.png"" class=""coveredImage test"" style = ""width:100px; height:100px;position:fixed; top:25%;        transform: translate(-50%, -50%);left:38%""></img><img src=""media/stimuli/inanimate_008_right.png"" class=""coveredImage test"" style = ""width:100px; height:100px;position:fixed; top:25%;        transform: translate(-50%, -50%);left:58%""></img><img src=""media/f.png""style = ""width:30px x; height:30px;position:fixed; top:43%;    transform: translate(-50%, -50%);left:40%""></img><img src=""media/j.png""style = ""width:30px; height:30px;position:fixed; top:43%;    transform: translate(-50%, -50%);left:60%""></img>","media/stimuli/inanimate_001_right.png","inanimate","right","single","media/stimuli/inanimate_001_left.png","inanimate","left","single","media/stimuli/inanimate_008_right.png","inanimate","right","single","pose_identity"
"","","","","","html-keyboard-response","53","184644","0.0-53.0","SS1678233192341","627286792f25495f123cc27b","6406d7f26dd5b7fc1e3377bd","6407ce6fd3623ecb803c8488","1920","937","","1426","","j","","","","","","","<img src=""media/stimuli/animate_012_right.png"" class=""coveredImage test"" style = ""width:100px; height:100px; position:fixed; top:10%;    transform: translate(-50%, -50%);left:48%""></img><img src=""media/stimuli/animate_011_right.png"" class=""coveredImage test"" style = ""width:100px; height:100px;position:fixed; top:25%;        transform: translate(-50%, -50%);left:38%""></img><img src=""media/stimuli/animate_012_right.png"" class=""coveredImage test"" style = ""width:100px; height:100px;position:fixed; top:25%;        transform: translate(-50%, -50%);left:54.5%""></img><img src=""media/stimuli/animate_012_right.png"" class=""coveredImage test"" style = ""width:100px; height:100px;position:fixed; top:25%;        transform: translate(-50%, -50%);left:61.5%""></img><img src=""media/f.png""style = ""width:30px x; height:30px;position:fixed; top:43%;    transform: translate(-50%, -50%);left:40%""></img><img src=""media/j.png""style = ""width:30px; height:30px;position:fixed; top:43%;    transform: translate(-50%, -50%);left:60%""></img>","media/stimuli/animate_012_right.png","animate","right","single","media/stimuli/animate_011_right.png","animate","right","single","media/stimuli/animate_012_right.png","animate","right","pair","identity_number"
"","","","","","html-keyboard-response","54","186361","0.0-54.0","SS1678233192341","627286792f25495f123cc27b","6406d7f26dd5b7fc1e3377bd","6407ce6fd3623ecb803c8488","1920","937","","1715","","j","","","","","","","<img src=""media/stimuli/animate_008_right.png"" class=""coveredImage test"" style = ""width:100px; height:100px; position:fixed; top:10%;    transform: translate(-50%, -50%);left:48%""></img><img src=""media/stimuli/animate_008_right.png"" class=""coveredImage test"" style = ""width:100px; height:100px;position:fixed; top:25%;        transform: translate(-50%, -50%);left:34.5%""></img><img src=""media/stimuli/animate_008_right.png"" class=""coveredImage test"" style = ""width:100px; height:100px;position:fixed; top:25%;        transform: translate(-50%, -50%);left:41.5%""></img><img src=""media/stimuli/animate_008_left.png"" class=""coveredImage test"" style = ""width:100px; height:100px;position:fixed; top:25%;        transform: translate(-50%, -50%);left:58%""></img><img src=""media/f.png""style = ""width:30px x; height:30px;position:fixed; top:43%;    transform: translate(-50%, -50%);left:40%""></img><img src=""media/j.png""style = ""width:30px; height:30px;position:fixed; top:43%;    transform: translate(-50%, -50%);left:60%""></img>","media/stimuli/animate_008_right.png","animate","right","single","media/stimuli/animate_008_right.png","animate","right","pair","media/stimuli/animate_008_left.png","animate","left","single","number_pose"
"","","","","","html-keyboard-response","55","187833","0.0-55.0","SS1678233192341","627286792f25495f123cc27b","6406d7f26dd5b7fc1e3377bd","6407ce6fd3623ecb803c8488","1920","937","","1470","","f","","","","","","","<img src=""media/stimuli/animate_005_left.png"" class=""coveredImage test"" style = ""width:100px; height:100px; position:fixed; top:10%;    transform: translate(-50%, -50%);left:44.5%""></img><img src=""media/stimuli/animate_005_left.png"" class=""coveredImage test"" style = ""width:100px; height:100px; position:fixed; top:10%;    transform: translate(-50%, -50%);left:51.5%""></img><img src=""media/stimuli/animate_005_right.png"" class=""coveredImage test"" style = ""width:100px; height:100px;position:fixed; top:25%;        transform: translate(-50%, -50%);left:34.5%""></img><img src=""media/stimuli/animate_005_right.png"" class=""coveredImage test"" style = ""width:100px; height:100px;position:fixed; top:25%;        transform: translate(-50%, -50%);left:41.5%""></img><img src=""media/stimuli/inanimate_010_left.png"" class=""coveredImage test"" style = ""width:100px; height:100px;position:fixed; top:25%;        transform: translate(-50%, -50%);left:54.5%""></img><img src=""media/stimuli/inanimate_010_left.png"" class=""coveredImage test"" style = ""width:100px; height:100px;position:fixed; top:25%;        transform: translate(-50%, -50%);left:61.5%""></img><img src=""media/f.png""style = ""width:30px x; height:30px;position:fixed; top:43%;    transform: translate(-50%, -50%);left:40%""></img><img src=""media/j.png""style = ""width:30px; height:30px;position:fixed; top:43%;    transform: translate(-50%, -50%);left:60%""></img>","media/stimuli/animate_005_left.png","animate","left","pair","media/stimuli/animate_005_right.png","animate","right","pair","media/stimuli/inanimate_010_left.png","inanimate","left","pair","pose_animacy"
"","","","","","html-keyboard-response","56","190332","0.0-56.0","SS1678233192341","627286792f25495f123cc27b","6406d7f26dd5b7fc1e3377bd","6407ce6fd3623ecb803c8488","1920","937","","2498","","j","","","","","","","<img src=""media/stimuli/animate_003_right.png"" class=""coveredImage test"" style = ""width:100px; height:100px; position:fixed; top:10%;    transform: translate(-50%, -50%);left:48%""></img><img src=""media/stimuli/inanimate_005_right.png"" class=""coveredImage test"" style = ""width:100px; height:100px;position:fixed; top:25%;        transform: translate(-50%, -50%);left:38%""></img><img src=""media/stimuli/animate_002_right.png"" class=""coveredImage test"" style = ""width:100px; height:100px;position:fixed; top:25%;        transform: translate(-50%, -50%);left:58%""></img><img src=""media/f.png""style = ""width:30px x; height:30px;position:fixed; top:43%;    transform: translate(-50%, -50%);left:40%""></img><img src=""media/j.png""style = ""width:30px; height:30px;position:fixed; top:43%;    transform: translate(-50%, -50%);left:60%""></img>","media/stimuli/animate_003_right.png","animate","right","single","media/stimuli/inanimate_005_right.png","inanimate","right","single","media/stimuli/animate_002_right.png","animate","right","single","animacy_identity"
"","","","","","html-keyboard-response","57","191987","0.0-57.0","SS1678233192341","627286792f25495f123cc27b","6406d7f26dd5b7fc1e3377bd","6407ce6fd3623ecb803c8488","1920","937","","1653","","f","","","","","","","<img src=""media/stimuli/inanimate_008_right.png"" class=""coveredImage test"" style = ""width:100px; height:100px; position:fixed; top:10%;    transform: translate(-50%, -50%);left:44.5%""></img><img src=""media/stimuli/inanimate_008_right.png"" class=""coveredImage test"" style = ""width:100px; height:100px; position:fixed; top:10%;    transform: translate(-50%, -50%);left:51.5%""></img><img src=""media/stimuli/inanimate_008_left.png"" class=""coveredImage test"" style = ""width:100px; height:100px;position:fixed; top:25%;        transform: translate(-50%, -50%);left:34.5%""></img><img src=""media/stimuli/inanimate_008_left.png"" class=""coveredImage test"" style = ""width:100px; height:100px;position:fixed; top:25%;        transform: translate(-50%, -50%);left:41.5%""></img><img src=""media/stimuli/inanimate_008_right.png"" class=""coveredImage test"" style = ""width:100px; height:100px;position:fixed; top:25%;        transform: translate(-50%, -50%);left:58%""></img><img src=""media/f.png""style = ""width:30px x; height:30px;position:fixed; top:43%;    transform: translate(-50%, -50%);left:40%""></img><img src=""media/j.png""style = ""width:30px; height:30px;position:fixed; top:43%;    transform: translate(-50%, -50%);left:60%""></img>","media/stimuli/inanimate_008_right.png","inanimate","right","pair","media/stimuli/inanimate_008_left.png","inanimate","left","pair","media/stimuli/inanimate_008_right.png","inanimate","right","single","pose_number"
"","","","","","html-keyboard-response","58","194083","0.0-58.0","SS1678233192341","627286792f25495f123cc27b","6406d7f26dd5b7fc1e3377bd","6407ce6fd3623ecb803c8488","1920","937","","2094","","f","","","","","","","<img src=""media/stimuli/animate_012_right.png"" class=""coveredImage test"" style = ""width:100px; height:100px; position:fixed; top:10%;    transform: translate(-50%, -50%);left:44.5%""></img><img src=""media/stimuli/animate_012_right.png"" class=""coveredImage test"" style = ""width:100px; height:100px; position:fixed; top:10%;    transform: translate(-50%, -50%);left:51.5%""></img><img src=""media/stimuli/animate_011_right.png"" class=""coveredImage test"" style = ""width:100px; height:100px;position:fixed; top:25%;        transform: translate(-50%, -50%);left:34.5%""></img><img src=""media/stimuli/animate_011_right.png"" class=""coveredImage test"" style = ""width:100px; height:100px;position:fixed; top:25%;        transform: translate(-50%, -50%);left:41.5%""></img><img src=""media/stimuli/inanimate_001_right.png"" class=""coveredImage test"" style = ""width:100px; height:100px;position:fixed; top:25%;        transform: translate(-50%, -50%);left:54.5%""></img><img src=""media/stimuli/inanimate_001_right.png"" class=""coveredImage test"" style = ""width:100px; height:100px;position:fixed; top:25%;        transform: translate(-50%, -50%);left:61.5%""></img><img src=""media/f.png""style = ""width:30px x; height:30px;position:fixed; top:43%;    transform: translate(-50%, -50%);left:40%""></img><img src=""media/j.png""style = ""width:30px; height:30px;position:fixed; top:43%;    transform: translate(-50%, -50%);left:60%""></img>","media/stimuli/animate_012_right.png","animate","right","pair","media/stimuli/animate_011_right.png","animate","right","pair","media/stimuli/inanimate_001_right.png","inanimate","right","pair","identity_animacy"
"","","","","","html-keyboard-response","59","195299","0.0-59.0","SS1678233192341","627286792f25495f123cc27b","6406d7f26dd5b7fc1e3377bd","6407ce6fd3623ecb803c8488","1920","937","","1215",""," ","","","","","","","","","","","","","","","","","","","",""
"","","","","","survey-likert","60","200503","0.0-60.0","SS1678233192341","627286792f25495f123cc27b","6406d7f26dd5b7fc1e3377bd","6407ce6fd3623ecb803c8488","1920","937","","5201","","{""Q0"":1}","[0]","complexity","media/stimuli/inanimate_006_left.png","inanimate","pair","left","","","","","","","","","","","","","",""
"","","","","","survey-likert","61","203289","0.0-61.0","SS1678233192341","627286792f25495f123cc27b","6406d7f26dd5b7fc1e3377bd","6407ce6fd3623ecb803c8488","1920","937","","2783","","{""Q0"":2}","[0]","complexity","media/stimuli/animate_005_left.png","animate","single","left","","","","","","","","","","","","","",""
"","","","","","survey-likert","62","207051","0.0-62.0","SS1678233192341","627286792f25495f123cc27b","6406d7f26dd5b7fc1e3377bd","6407ce6fd3623ecb803c8488","1920","937","","3759","","{""Q0"":0}","[0]","complexity","media/stimuli/inanimate_007_right.png","inanimate","single","right","","","","","","","","","","","","","",""
"","","","","","survey-likert","63","209601","0.0-63.0","SS1678233192341","627286792f25495f123cc27b","6406d7f26dd5b7fc1e3377bd","6407ce6fd3623ecb803c8488","1920","937","","2547","","{""Q0"":1}","[0]","complexity","media/stimuli/animate_009_right.png","animate","single","right","","","","","","","","","","","","","",""
"","","","","","survey-likert","64","212091","0.0-64.0","SS1678233192341","627286792f25495f123cc27b","6406d7f26dd5b7fc1e3377bd","6407ce6fd3623ecb803c8488","1920","937","","2487","","{""Q0"":1}","[0]","complexity","media/stimuli/inanimate_006_right.png","inanimate","pair","right","","","","","","","","","","","","","",""
"","","","","","survey-likert","65","214434","0.0-65.0","SS1678233192341","627286792f25495f123cc27b","6406d7f26dd5b7fc1e3377bd","6407ce6fd3623ecb803c8488","1920","937","","2341","","{""Q0"":0}","[0]","complexity","media/stimuli/inanimate_008_right.png","inanimate","single","right","","","","","","","","","","","","","",""
"","","","","","survey-likert","66","216833","0.0-66.0","SS1678233192341","627286792f25495f123cc27b","6406d7f26dd5b7fc1e3377bd","6407ce6fd3623ecb803c8488","1920","937","","2396","","{""Q0"":2}","[0]","complexity","media/stimuli/animate_008_left.png","animate","pair","left","","","","","","","","","","","","","",""
"","","","","","survey-likert","67","219497","0.0-67.0","SS1678233192341","627286792f25495f123cc27b","6406d7f26dd5b7fc1e3377bd","6407ce6fd3623ecb803c8488","1920","937","","2661","","{""Q0"":0}","[0]","complexity","media/stimuli/inanimate_004_left.png","inanimate","pair","left","","","","","","","","","","","","","",""
"","","","","","survey-likert","68","221836","0.0-68.0","SS1678233192341","627286792f25495f123cc27b","6406d7f26dd5b7fc1e3377bd","6407ce6fd3623ecb803c8488","1920","937","","2337","","{""Q0"":1}","[0]","complexity","media/stimuli/animate_008_left.png","animate","single","left","","","","","","","","","","","","","",""
"","","","","","survey-likert","69","224407","0.0-69.0","SS1678233192341","627286792f25495f123cc27b","6406d7f26dd5b7fc1e3377bd","6407ce6fd3623ecb803c8488","1920","937","","2568","","{""Q0"":0}","[0]","complexity","media/stimuli/inanimate_010_right.png","inanimate","pair","right","","","","","","","","","","","","","",""
"","","","","","survey-likert","70","227451","0.0-70.0","SS1678233192341","627286792f25495f123cc27b","6406d7f26dd5b7fc1e3377bd","6407ce6fd3623ecb803c8488","1920","937","","3041","","{""Q0"":1}","[0]","complexity","media/stimuli/inanimate_008_right.png","inanimate","pair","right","","","","","","","","","","","","","",""
"","","","","","survey-likert","71","230183","0.0-71.0","SS1678233192341","627286792f25495f123cc27b","6406d7f26dd5b7fc1e3377bd","6407ce6fd3623ecb803c8488","1920","937","","2729","","{""Q0"":0}","[0]","complexity","media/stimuli/inanimate_002_right.png","inanimate","single","right","","","","","","","","","","","","","",""
"","","","","","html-keyboard-response","72","232711","0.0-72.0","SS1678233192341","627286792f25495f123cc27b","6406d7f26dd5b7fc1e3377bd","6407ce6fd3623ecb803c8488","1920","937","","2526",""," ","","","","","","","","","","","","","","","","","","","",""
"","","","","","html-keyboard-response","73","235482","0.0-73.0","SS1678233192341","627286792f25495f123cc27b","6406d7f26dd5b7fc1e3377bd","6407ce6fd3623ecb803c8488","1920","937","","2769","","f","","","","","","","<img src=""media/stimuli/animate_009_left.png"" class=""coveredImage test"" style = ""width:100px; height:100px; position:fixed; top:10%;    transform: translate(-50%, -50%);left:44.5%""></img><img src=""media/stimuli/animate_009_left.png"" class=""coveredImage test"" style = ""width:100px; height:100px; position:fixed; top:10%;    transform: translate(-50%, -50%);left:51.5%""></img><img src=""media/stimuli/animate_009_left.png"" class=""coveredImage test"" style = ""width:100px; height:100px;position:fixed; top:25%;        transform: translate(-50%, -50%);left:38%""></img><img src=""media/stimuli/animate_005_left.png"" class=""coveredImage test"" style = ""width:100px; height:100px;position:fixed; top:25%;        transform: translate(-50%, -50%);left:54.5%""></img><img src=""media/stimuli/animate_005_left.png"" class=""coveredImage test"" style = ""width:100px; height:100px;position:fixed; top:25%;        transform: translate(-50%, -50%);left:61.5%""></img><img src=""media/f.png""style = ""width:30px x; height:30px;position:fixed; top:43%;    transform: translate(-50%, -50%);left:40%""></img><img src=""media/j.png""style = ""width:30px; height:30px;position:fixed; top:43%;    transform: translate(-50%, -50%);left:60%""></img>","media/stimuli/animate_009_left.png","animate","left","pair","media/stimuli/animate_009_left.png","animate","left","single","media/stimuli/animate_005_left.png","animate","left","pair","number_identity"
"","","","","","html-keyboard-response","74","236495","0.0-74.0","SS1678233192341","627286792f25495f123cc27b","6406d7f26dd5b7fc1e3377bd","6407ce6fd3623ecb803c8488","1920","937","","1011","","f","","","","","","","<img src=""media/stimuli/inanimate_005_left.png"" class=""coveredImage test"" style = ""width:100px; height:100px; position:fixed; top:10%;    transform: translate(-50%, -50%);left:44.5%""></img><img src=""media/stimuli/inanimate_005_left.png"" class=""coveredImage test"" style = ""width:100px; height:100px; position:fixed; top:10%;    transform: translate(-50%, -50%);left:51.5%""></img><img src=""media/stimuli/inanimate_005_left.png"" class=""coveredImage test"" style = ""width:100px; height:100px;position:fixed; top:25%;        transform: translate(-50%, -50%);left:38%""></img><img src=""media/stimuli/animate_007_left.png"" class=""coveredImage test"" style = ""width:100px; height:100px;position:fixed; top:25%;        transform: translate(-50%, -50%);left:54.5%""></img><img src=""media/stimuli/animate_007_left.png"" class=""coveredImage test"" style = ""width:100px; height:100px;position:fixed; top:25%;        transform: translate(-50%, -50%);left:61.5%""></img><img src=""media/f.png""style = ""width:30px x; height:30px;position:fixed; top:43%;    transform: translate(-50%, -50%);left:40%""></img><img src=""media/j.png""style = ""width:30px; height:30px;position:fixed; top:43%;    transform: translate(-50%, -50%);left:60%""></img>","media/stimuli/inanimate_005_left.png","inanimate","left","pair","media/stimuli/inanimate_005_left.png","inanimate","left","single","media/stimuli/animate_007_left.png","animate","left","pair","number_animacy"
"","","","","","html-keyboard-response","75","238113","0.0-75.0","SS1678233192341","627286792f25495f123cc27b","6406d7f26dd5b7fc1e3377bd","6407ce6fd3623ecb803c8488","1920","937","","1617","","f","","","","","","","<img src=""media/stimuli/inanimate_008_right.png"" class=""coveredImage test"" style = ""width:100px; height:100px; position:fixed; top:10%;    transform: translate(-50%, -50%);left:44.5%""></img><img src=""media/stimuli/inanimate_008_right.png"" class=""coveredImage test"" style = ""width:100px; height:100px; position:fixed; top:10%;    transform: translate(-50%, -50%);left:51.5%""></img><img src=""media/stimuli/inanimate_003_right.png"" class=""coveredImage test"" style = ""width:100px; height:100px;position:fixed; top:25%;        transform: translate(-50%, -50%);left:34.5%""></img><img src=""media/stimuli/inanimate_003_right.png"" class=""coveredImage test"" style = ""width:100px; height:100px;position:fixed; top:25%;        transform: translate(-50%, -50%);left:41.5%""></img><img src=""media/stimuli/animate_008_right.png"" class=""coveredImage test"" style = ""width:100px; height:100px;position:fixed; top:25%;        transform: translate(-50%, -50%);left:54.5%""></img><img src=""media/stimuli/animate_008_right.png"" class=""coveredImage test"" style = ""width:100px; height:100px;position:fixed; top:25%;        transform: translate(-50%, -50%);left:61.5%""></img><img src=""media/f.png""style = ""width:30px x; height:30px;position:fixed; top:43%;    transform: translate(-50%, -50%);left:40%""></img><img src=""media/j.png""style = ""width:30px; height:30px;position:fixed; top:43%;    transform: translate(-50%, -50%);left:60%""></img>","media/stimuli/inanimate_008_right.png","inanimate","right","pair","media/stimuli/inanimate_003_right.png","inanimate","right","pair","media/stimuli/animate_008_right.png","animate","right","pair","identity_animacy"
"","","","","","html-keyboard-response","76","239067","0.0-76.0","SS1678233192341","627286792f25495f123cc27b","6406d7f26dd5b7fc1e3377bd","6407ce6fd3623ecb803c8488","1920","937","","952","","f","","","","","","","<img src=""media/stimuli/inanimate_009_left.png"" class=""coveredImage test"" style = ""width:100px; height:100px; position:fixed; top:10%;    transform: translate(-50%, -50%);left:44.5%""></img><img src=""media/stimuli/inanimate_009_left.png"" class=""coveredImage test"" style = ""width:100px; height:100px; position:fixed; top:10%;    transform: translate(-50%, -50%);left:51.5%""></img><img src=""media/stimuli/inanimate_009_left.png"" class=""coveredImage test"" style = ""width:100px; height:100px;position:fixed; top:25%;        transform: translate(-50%, -50%);left:38%""></img><img src=""media/stimuli/animate_008_right.png"" class=""coveredImage test"" style = ""width:100px; height:100px;position:fixed; top:25%;        transform: translate(-50%, -50%);left:58%""></img><img src=""media/f.png""style = ""width:30px x; height:30px;position:fixed; top:43%;    transform: translate(-50%, -50%);left:40%""></img><img src=""media/j.png""style = ""width:30px; height:30px;position:fixed; top:43%;    transform: translate(-50%, -50%);left:60%""></img>","media/stimuli/inanimate_009_left.png","inanimate","left","pair","media/stimuli/inanimate_009_left.png","inanimate","left","single","media/stimuli/animate_008_right.png","animate","right","single","pose_animacy"
"","","","","","html-keyboard-response","77","240051","0.0-77.0","SS1678233192341","627286792f25495f123cc27b","6406d7f26dd5b7fc1e3377bd","6407ce6fd3623ecb803c8488","1920","937","","982","","j","","","","","","","<img src=""media/stimuli/animate_010_right.png"" class=""coveredImage test"" style = ""width:100px; height:100px; position:fixed; top:10%;    transform: translate(-50%, -50%);left:48%""></img><img src=""media/stimuli/animate_003_right.png"" class=""coveredImage test"" style = ""width:100px; height:100px;position:fixed; top:25%;        transform: translate(-50%, -50%);left:38%""></img><img src=""media/stimuli/animate_010_right.png"" class=""coveredImage test"" style = ""width:100px; height:100px;position:fixed; top:25%;        transform: translate(-50%, -50%);left:54.5%""></img><img src=""media/stimuli/animate_010_right.png"" class=""coveredImage test"" style = ""width:100px; height:100px;position:fixed; top:25%;        transform: translate(-50%, -50%);left:61.5%""></img><img src=""media/f.png""style = ""width:30px x; height:30px;position:fixed; top:43%;    transform: translate(-50%, -50%);left:40%""></img><img src=""media/j.png""style = ""width:30px; height:30px;position:fixed; top:43%;    transform: translate(-50%, -50%);left:60%""></img>","media/stimuli/animate_010_right.png","animate","right","single","media/stimuli/animate_003_right.png","animate","right","single","media/stimuli/animate_010_right.png","animate","right","pair","identity_number"
"","","","","","html-keyboard-response","78","240951","0.0-78.0","SS1678233192341","627286792f25495f123cc27b","6406d7f26dd5b7fc1e3377bd","6407ce6fd3623ecb803c8488","1920","937","","898","","j","","","","","","","<img src=""media/stimuli/inanimate_003_left.png"" class=""coveredImage test"" style = ""width:100px; height:100px; position:fixed; top:10%;    transform: translate(-50%, -50%);left:48%""></img><img src=""media/stimuli/animate_005_left.png"" class=""coveredImage test"" style = ""width:100px; height:100px;position:fixed; top:25%;        transform: translate(-50%, -50%);left:38%""></img><img src=""media/stimuli/inanimate_003_left.png"" class=""coveredImage test"" style = ""width:100px; height:100px;position:fixed; top:25%;        transform: translate(-50%, -50%);left:54.5%""></img><img src=""media/stimuli/inanimate_003_left.png"" class=""coveredImage test"" style = ""width:100px; height:100px;position:fixed; top:25%;        transform: translate(-50%, -50%);left:61.5%""></img><img src=""media/f.png""style = ""width:30px x; height:30px;position:fixed; top:43%;    transform: translate(-50%, -50%);left:40%""></img><img src=""media/j.png""style = ""width:30px; height:30px;position:fixed; top:43%;    transform: translate(-50%, -50%);left:60%""></img>","media/stimuli/inanimate_003_left.png","inanimate","left","single","media/stimuli/animate_005_left.png","animate","left","single","media/stimuli/inanimate_003_left.png","inanimate","left","pair","animacy_number"
"","","","","","html-keyboard-response","79","241931","0.0-79.0","SS1678233192341","627286792f25495f123cc27b","6406d7f26dd5b7fc1e3377bd","6407ce6fd3623ecb803c8488","1920","937","","978","","j","","","","","","","<img src=""media/stimuli/animate_004_left.png"" class=""coveredImage test"" style = ""width:100px; height:100px; position:fixed; top:10%;    transform: translate(-50%, -50%);left:44.5%""></img><img src=""media/stimuli/animate_004_left.png"" class=""coveredImage test"" style = ""width:100px; height:100px; position:fixed; top:10%;    transform: translate(-50%, -50%);left:51.5%""></img><img src=""media/stimuli/inanimate_008_left.png"" class=""coveredImage test"" style = ""width:100px; height:100px;position:fixed; top:25%;        transform: translate(-50%, -50%);left:34.5%""></img><img src=""media/stimuli/inanimate_008_left.png"" class=""coveredImage test"" style = ""width:100px; height:100px;position:fixed; top:25%;        transform: translate(-50%, -50%);left:41.5%""></img><img src=""media/stimuli/animate_004_left.png"" class=""coveredImage test"" style = ""width:100px; height:100px;position:fixed; top:25%;        transform: translate(-50%, -50%);left:58%""></img><img src=""media/f.png""style = ""width:30px x; height:30px;position:fixed; top:43%;    transform: translate(-50%, -50%);left:40%""></img><img src=""media/j.png""style = ""width:30px; height:30px;position:fixed; top:43%;    transform: translate(-50%, -50%);left:60%""></img>","media/stimuli/animate_004_left.png","animate","left","pair","media/stimuli/inanimate_008_left.png","inanimate","left","pair","media/stimuli/animate_004_left.png","animate","left","single","animacy_number"
"","","","","","html-keyboard-response","80","242841","0.0-80.0","SS1678233192341","627286792f25495f123cc27b","6406d7f26dd5b7fc1e3377bd","6407ce6fd3623ecb803c8488","1920","937","","909","","j","","","","","","","<img src=""media/stimuli/inanimate_005_left.png"" class=""coveredImage test"" style = ""width:100px; height:100px; position:fixed; top:10%;    transform: translate(-50%, -50%);left:48%""></img><img src=""media/stimuli/animate_005_right.png"" class=""coveredImage test"" style = ""width:100px; height:100px;position:fixed; top:25%;        transform: translate(-50%, -50%);left:38%""></img><img src=""media/stimuli/inanimate_005_left.png"" class=""coveredImage test"" style = ""width:100px; height:100px;position:fixed; top:25%;        transform: translate(-50%, -50%);left:58%""></img><img src=""media/f.png""style = ""width:30px x; height:30px;position:fixed; top:43%;    transform: translate(-50%, -50%);left:40%""></img><img src=""media/j.png""style = ""width:30px; height:30px;position:fixed; top:43%;    transform: translate(-50%, -50%);left:60%""></img>","media/stimuli/inanimate_005_left.png","inanimate","left","single","media/stimuli/animate_005_right.png","animate","right","single","media/stimuli/inanimate_005_left.png","inanimate","left","single","animacy_pose"
"","","","","","html-keyboard-response","81","244209","0.0-81.0","SS1678233192341","627286792f25495f123cc27b","6406d7f26dd5b7fc1e3377bd","6407ce6fd3623ecb803c8488","1920","937","","1366","","j","","","","","","","<img src=""media/stimuli/inanimate_011_right.png"" class=""coveredImage test"" style = ""width:100px; height:100px; position:fixed; top:10%;    transform: translate(-50%, -50%);left:44.5%""></img><img src=""media/stimuli/inanimate_011_right.png"" class=""coveredImage test"" style = ""width:100px; height:100px; position:fixed; top:10%;    transform: translate(-50%, -50%);left:51.5%""></img><img src=""media/stimuli/animate_011_right.png"" class=""coveredImage test"" style = ""width:100px; height:100px;position:fixed; top:25%;        transform: translate(-50%, -50%);left:34.5%""></img><img src=""media/stimuli/animate_011_right.png"" class=""coveredImage test"" style = ""width:100px; height:100px;position:fixed; top:25%;        transform: translate(-50%, -50%);left:41.5%""></img><img src=""media/stimuli/inanimate_008_right.png"" class=""coveredImage test"" style = ""width:100px; height:100px;position:fixed; top:25%;        transform: translate(-50%, -50%);left:54.5%""></img><img src=""media/stimuli/inanimate_008_right.png"" class=""coveredImage test"" style = ""width:100px; height:100px;position:fixed; top:25%;        transform: translate(-50%, -50%);left:61.5%""></img><img src=""media/f.png""style = ""width:30px x; height:30px;position:fixed; top:43%;    transform: translate(-50%, -50%);left:40%""></img><img src=""media/j.png""style = ""width:30px; height:30px;position:fixed; top:43%;    transform: translate(-50%, -50%);left:60%""></img>","media/stimuli/inanimate_011_right.png","inanimate","right","pair","media/stimuli/animate_011_right.png","animate","right","pair","media/stimuli/inanimate_008_right.png","inanimate","right","pair","animacy_identity"
"","","","","","html-keyboard-response","82","245305","0.0-82.0","SS1678233192341","627286792f25495f123cc27b","6406d7f26dd5b7fc1e3377bd","6407ce6fd3623ecb803c8488","1920","937","","1094","","f","","","","","","","<img src=""media/stimuli/inanimate_011_left.png"" class=""coveredImage test"" style = ""width:100px; height:100px; position:fixed; top:10%;    transform: translate(-50%, -50%);left:44.5%""></img><img src=""media/stimuli/inanimate_011_left.png"" class=""coveredImage test"" style = ""width:100px; height:100px; position:fixed; top:10%;    transform: translate(-50%, -50%);left:51.5%""></img><img src=""media/stimuli/inanimate_011_right.png"" class=""coveredImage test"" style = ""width:100px; height:100px;position:fixed; top:25%;        transform: translate(-50%, -50%);left:34.5%""></img><img src=""media/stimuli/inanimate_011_right.png"" class=""coveredImage test"" style = ""width:100px; height:100px;position:fixed; top:25%;        transform: translate(-50%, -50%);left:41.5%""></img><img src=""media/stimuli/inanimate_003_left.png"" class=""coveredImage test"" style = ""width:100px; height:100px;position:fixed; top:25%;        transform: translate(-50%, -50%);left:54.5%""></img><img src=""media/stimuli/inanimate_003_left.png"" class=""coveredImage test"" style = ""width:100px; height:100px;position:fixed; top:25%;        transform: translate(-50%, -50%);left:61.5%""></img><img src=""media/f.png""style = ""width:30px x; height:30px;position:fixed; top:43%;    transform: translate(-50%, -50%);left:40%""></img><img src=""media/j.png""style = ""width:30px; height:30px;position:fixed; top:43%;    transform: translate(-50%, -50%);left:60%""></img>","media/stimuli/inanimate_011_left.png","inanimate","left","pair","media/stimuli/inanimate_011_right.png","inanimate","right","pair","media/stimuli/inanimate_003_left.png","inanimate","left","pair","pose_identity"
"","","","","","html-keyboard-response","83","246414","0.0-83.0","SS1678233192341","627286792f25495f123cc27b","6406d7f26dd5b7fc1e3377bd","6407ce6fd3623ecb803c8488","1920","937","","1107","","f","","","","","","","<img src=""media/stimuli/animate_002_right.png"" class=""coveredImage test"" style = ""width:100px; height:100px; position:fixed; top:10%;    transform: translate(-50%, -50%);left:44.5%""></img><img src=""media/stimuli/animate_002_right.png"" class=""coveredImage test"" style = ""width:100px; height:100px; position:fixed; top:10%;    transform: translate(-50%, -50%);left:51.5%""></img><img src=""media/stimuli/animate_002_right.png"" class=""coveredImage test"" style = ""width:100px; height:100px;position:fixed; top:25%;        transform: translate(-50%, -50%);left:34.5%""></img><img src=""media/stimuli/animate_002_right.png"" class=""coveredImage test"" style = ""width:100px; height:100px;position:fixed; top:25%;        transform: translate(-50%, -50%);left:41.5%""></img><img src=""media/stimuli/inanimate_005_left.png"" class=""coveredImage test"" style = ""width:100px; height:100px;position:fixed; top:25%;        transform: translate(-50%, -50%);left:54.5%""></img><img src=""media/stimuli/inanimate_005_left.png"" class=""coveredImage test"" style = ""width:100px; height:100px;position:fixed; top:25%;        transform: translate(-50%, -50%);left:61.5%""></img><img src=""media/f.png""style = ""width:30px x; height:30px;position:fixed; top:43%;    transform: translate(-50%, -50%);left:40%""></img><img src=""media/j.png""style = ""width:30px; height:30px;position:fixed; top:43%;    transform: translate(-50%, -50%);left:60%""></img>","media/stimuli/animate_002_right.png","animate","right","pair","media/stimuli/animate_002_right.png","animate","right","pair","media/stimuli/inanimate_005_left.png","inanimate","left","pair","pose_animacy"
"","","","","","html-keyboard-response","84","247313","0.0-84.0","SS1678233192341","627286792f25495f123cc27b","6406d7f26dd5b7fc1e3377bd","6407ce6fd3623ecb803c8488","1920","937","","897","","j","","","","","","","<img src=""media/stimuli/inanimate_006_left.png"" class=""coveredImage test"" style = ""width:100px; height:100px; position:fixed; top:10%;    transform: translate(-50%, -50%);left:48%""></img><img src=""media/stimuli/animate_005_left.png"" class=""coveredImage test"" style = ""width:100px; height:100px;position:fixed; top:25%;        transform: translate(-50%, -50%);left:38%""></img><img src=""media/stimuli/inanimate_006_left.png"" class=""coveredImage test"" style = ""width:100px; height:100px;position:fixed; top:25%;        transform: translate(-50%, -50%);left:54.5%""></img><img src=""media/stimuli/inanimate_006_left.png"" class=""coveredImage test"" style = ""width:100px; height:100px;position:fixed; top:25%;        transform: translate(-50%, -50%);left:61.5%""></img><img src=""media/f.png""style = ""width:30px x; height:30px;position:fixed; top:43%;    transform: translate(-50%, -50%);left:40%""></img><img src=""media/j.png""style = ""width:30px; height:30px;position:fixed; top:43%;    transform: translate(-50%, -50%);left:60%""></img>","media/stimuli/inanimate_006_left.png","inanimate","left","single","media/stimuli/animate_005_left.png","animate","left","single","media/stimuli/inanimate_006_left.png","inanimate","left","pair","animacy_number"
"","","","","","html-keyboard-response","85","248335","0.0-85.0","SS1678233192341","627286792f25495f123cc27b","6406d7f26dd5b7fc1e3377bd","6407ce6fd3623ecb803c8488","1920","937","","1020",""," ","","","","","","","","","","","","","","","","","","","",""
"","","","","","survey-likert","86","252913","0.0-86.0","SS1678233192341","627286792f25495f123cc27b","6406d7f26dd5b7fc1e3377bd","6407ce6fd3623ecb803c8488","1920","937","","4575","","{""Q0"":0}","[0]","complexity","media/stimuli/inanimate_005_left.png","inanimate","single","left","","","","","","","","","","","","","",""
"","","","","","survey-likert","87","255477","0.0-87.0","SS1678233192341","627286792f25495f123cc27b","6406d7f26dd5b7fc1e3377bd","6407ce6fd3623ecb803c8488","1920","937","","2561","","{""Q0"":1}","[0]","complexity","media/stimuli/animate_003_right.png","animate","single","right","","","","","","","","","","","","","",""
"","","","","","survey-likert","88","258083","0.0-88.0","SS1678233192341","627286792f25495f123cc27b","6406d7f26dd5b7fc1e3377bd","6407ce6fd3623ecb803c8488","1920","937","","2603","","{""Q0"":1}","[0]","complexity","media/stimuli/animate_009_right.png","animate","pair","right","","","","","","","","","","","","","",""
"","","","","","survey-likert","89","260581","0.0-89.0","SS1678233192341","627286792f25495f123cc27b","6406d7f26dd5b7fc1e3377bd","6407ce6fd3623ecb803c8488","1920","937","","2495","","{""Q0"":1}","[0]","complexity","media/stimuli/animate_007_left.png","animate","single","left","","","","","","","","","","","","","",""
"","","","","","survey-likert","90","263465","0.0-90.0","SS1678233192341","627286792f25495f123cc27b","6406d7f26dd5b7fc1e3377bd","6407ce6fd3623ecb803c8488","1920","937","","2881","","{""Q0"":0}","[0]","complexity","media/stimuli/inanimate_003_left.png","inanimate","pair","left","","","","","","","","","","","","","",""
"","","","","","survey-likert","91","265818","0.0-91.0","SS1678233192341","627286792f25495f123cc27b","6406d7f26dd5b7fc1e3377bd","6407ce6fd3623ecb803c8488","1920","937","","2351","","{""Q0"":1}","[0]","complexity","media/stimuli/animate_007_right.png","animate","pair","right","","","","","","","","","","","","","",""
"","","","","","survey-likert","92","268298","0.0-92.0","SS1678233192341","627286792f25495f123cc27b","6406d7f26dd5b7fc1e3377bd","6407ce6fd3623ecb803c8488","1920","937","","2477","","{""Q0"":1}","[0]","complexity","media/stimuli/animate_010_left.png","animate","single","left","","","","","","","","","","","","","",""
"","","","","","survey-likert","93","270417","0.0-93.0","SS1678233192341","627286792f25495f123cc27b","6406d7f26dd5b7fc1e3377bd","6407ce6fd3623ecb803c8488","1920","937","","2116","","{""Q0"":0}","[0]","complexity","media/stimuli/inanimate_009_left.png","inanimate","single","left","","","","","","","","","","","","","",""
"","","","","","survey-likert","94","274954","0.0-94.0","SS1678233192341","627286792f25495f123cc27b","6406d7f26dd5b7fc1e3377bd","6407ce6fd3623ecb803c8488","1920","937","","4533","","{""Q0"":2}","[0]","complexity","media/stimuli/animate_011_right.png","animate","pair","right","","","","","","","","","","","","","",""
"","","","","","survey-likert","95","277770","0.0-95.0","SS1678233192341","627286792f25495f123cc27b","6406d7f26dd5b7fc1e3377bd","6407ce6fd3623ecb803c8488","1920","937","","2813","","{""Q0"":1}","[0]","complexity","media/stimuli/animate_003_left.png","animate","single","left","","","","","","","","","","","","","",""
"","","","","","survey-likert","96","280038","0.0-96.0","SS1678233192341","627286792f25495f123cc27b","6406d7f26dd5b7fc1e3377bd","6407ce6fd3623ecb803c8488","1920","937","","2265","","{""Q0"":2}","[0]","complexity","media/stimuli/animate_008_right.png","animate","single","right","","","","","","","","","","","","","",""
"","","","","","survey-likert","97","282558","0.0-97.0","SS1678233192341","627286792f25495f123cc27b","6406d7f26dd5b7fc1e3377bd","6407ce6fd3623ecb803c8488","1920","937","","2517","","{""Q0"":0}","[0]","complexity","media/stimuli/inanimate_001_left.png","inanimate","pair","left","","","","","","","","","","","","","",""
"","","","","","html-keyboard-response","98","284565","0.0-98.0","SS1678233192341","627286792f25495f123cc27b","6406d7f26dd5b7fc1e3377bd","6407ce6fd3623ecb803c8488","1920","937","","2006",""," ","","","","","","","","","","","","","","","","","","","",""
"","","","","","survey-likert","99","288983","0.0-99.0","SS1678233192341","627286792f25495f123cc27b","6406d7f26dd5b7fc1e3377bd","6407ce6fd3623ecb803c8488","1920","937","","4416","","{""Q0"":1}","[0]","complexity","media/stimuli/animate_004_right.png","animate","pair","right","","","","","","","","","","","","","",""
"","","","","","survey-likert","100","291265","0.0-100.0","SS1678233192341","627286792f25495f123cc27b","6406d7f26dd5b7fc1e3377bd","6407ce6fd3623ecb803c8488","1920","937","","2279","","{""Q0"":1}","[0]","complexity","media/stimuli/animate_004_right.png","animate","single","right","","","","","","","","","","","","","",""
"","","","","","survey-likert","101","293479","0.0-101.0","SS1678233192341","627286792f25495f123cc27b","6406d7f26dd5b7fc1e3377bd","6407ce6fd3623ecb803c8488","1920","937","","2211","","{""Q0"":2}","[0]","complexity","media/stimuli/animate_005_right.png","animate","single","right","","","","","","","","","","","","","",""
"","","","","","survey-likert","102","296061","0.0-102.0","SS1678233192341","627286792f25495f123cc27b","6406d7f26dd5b7fc1e3377bd","6407ce6fd3623ecb803c8488","1920","937","","2579","","{""Q0"":0}","[0]","complexity","media/stimuli/inanimate_005_right.png","inanimate","single","right","","","","","","","","","","","","","",""
"","","","","","survey-likert","103","299163","0.0-103.0","SS1678233192341","627286792f25495f123cc27b","6406d7f26dd5b7fc1e3377bd","6407ce6fd3623ecb803c8488","1920","937","","3099","","{""Q0"":0}","[0]","complexity","media/stimuli/inanimate_001_right.png","inanimate","pair","right","","","","","","","","","","","","","",""
"","","","","","survey-likert","104","301703","0.0-104.0","SS1678233192341","627286792f25495f123cc27b","6406d7f26dd5b7fc1e3377bd","6407ce6fd3623ecb803c8488","1920","937","","2537","","{""Q0"":0}","[0]","complexity","media/stimuli/inanimate_010_left.png","inanimate","pair","left","","","","","","","","","","","","","",""
"","","","","","survey-likert","105","304155","0.0-105.0","SS1678233192341","627286792f25495f123cc27b","6406d7f26dd5b7fc1e3377bd","6407ce6fd3623ecb803c8488","1920","937","","2449","","{""Q0"":0}","[0]","complexity","media/stimuli/inanimate_007_left.png","inanimate","single","left","","","","","","","","","","","","","",""
"","","","","","survey-likert","106","306263","0.0-106.0","SS1678233192341","627286792f25495f123cc27b","6406d7f26dd5b7fc1e3377bd","6407ce6fd3623ecb803c8488","1920","937","","2105","","{""Q0"":1}","[0]","complexity","media/stimuli/animate_012_left.png","animate","single","left","","","","","","","","","","","","","",""
"","","","","","survey-likert","107","309331","0.0-107.0","SS1678233192341","627286792f25495f123cc27b","6406d7f26dd5b7fc1e3377bd","6407ce6fd3623ecb803c8488","1920","937","","3065","","{""Q0"":2}","[0]","complexity","media/stimuli/animate_012_left.png","animate","pair","left","","","","","","","","","","","","","",""
"","","","","","survey-likert","108","312045","0.0-108.0","SS1678233192341","627286792f25495f123cc27b","6406d7f26dd5b7fc1e3377bd","6407ce6fd3623ecb803c8488","1920","937","","2711","","{""Q0"":0}","[0]","complexity","media/stimuli/inanimate_012_left.png","inanimate","single","left","","","","","","","","","","","","","",""
"","","","","","survey-likert","109","314653","0.0-109.0","SS1678233192341","627286792f25495f123cc27b","6406d7f26dd5b7fc1e3377bd","6407ce6fd3623ecb803c8488","1920","937","","2605","","{""Q0"":0}","[0]","complexity","media/stimuli/inanimate_002_right.png","inanimate","pair","right","","","","","","","","","","","","","",""
"","","","","","survey-likert","110","316925","0.0-110.0","SS1678233192341","627286792f25495f123cc27b","6406d7f26dd5b7fc1e3377bd","6407ce6fd3623ecb803c8488","1920","937","","2269","","{""Q0"":0}","[0]","complexity","media/stimuli/inanimate_002_left.png","inanimate","single","left","","","","","","","","","","","","","",""
"","","","","","html-keyboard-response","111","318787","0.0-111.0","SS1678233192341","627286792f25495f123cc27b","6406d7f26dd5b7fc1e3377bd","6407ce6fd3623ecb803c8488","1920","937","","1859",""," ","","","","","","","","","","","","","","","","","","","",""
"","","","","","survey-likert","112","321303","0.0-112.0","SS1678233192341","627286792f25495f123cc27b","6406d7f26dd5b7fc1e3377bd","6407ce6fd3623ecb803c8488","1920","937","","2513","","{""Q0"":1}","[0]","complexity","media/stimuli/animate_011_right.png","animate","single","right","","","","","","","","","","","","","",""
"","","","","","survey-likert","113","323749","0.0-113.0","SS1678233192341","627286792f25495f123cc27b","6406d7f26dd5b7fc1e3377bd","6407ce6fd3623ecb803c8488","1920","937","","2443","","{""Q0"":2}","[0]","complexity","media/stimuli/animate_012_right.png","animate","pair","right","","","","","","","","","","","","","",""
"","","","","","survey-likert","114","326065","0.0-114.0","SS1678233192341","627286792f25495f123cc27b","6406d7f26dd5b7fc1e3377bd","6407ce6fd3623ecb803c8488","1920","937","","2313","","{""Q0"":2}","[0]","complexity","media/stimuli/animate_006_left.png","animate","single","left","","","","","","","","","","","","","",""
"","","","","","survey-likert","115","328229","0.0-115.0","SS1678233192341","627286792f25495f123cc27b","6406d7f26dd5b7fc1e3377bd","6407ce6fd3623ecb803c8488","1920","937","","2161","","{""Q0"":1}","[0]","complexity","media/stimuli/animate_005_right.png","animate","pair","right","","","","","","","","","","","","","",""
"","","","","","survey-likert","116","330249","0.0-116.0","SS1678233192341","627286792f25495f123cc27b","6406d7f26dd5b7fc1e3377bd","6407ce6fd3623ecb803c8488","1920","937","","2016","","{""Q0"":1}","[0]","complexity","media/stimuli/animate_005_left.png","animate","pair","left","","","","","","","","","","","","","",""
"","","","","","survey-likert","117","332561","0.0-117.0","SS1678233192341","627286792f25495f123cc27b","6406d7f26dd5b7fc1e3377bd","6407ce6fd3623ecb803c8488","1920","937","","2309","","{""Q0"":0}","[0]","complexity","media/stimuli/inanimate_003_right.png","inanimate","single","right","","","","","","","","","","","","","",""
"","","","","","survey-likert","118","334743","0.0-118.0","SS1678233192341","627286792f25495f123cc27b","6406d7f26dd5b7fc1e3377bd","6407ce6fd3623ecb803c8488","1920","937","","2179","","{""Q0"":0}","[0]","complexity","media/stimuli/inanimate_009_left.png","inanimate","pair","left","","","","","","","","","","","","","",""
"","","","","","survey-likert","119","336978","0.0-119.0","SS1678233192341","627286792f25495f123cc27b","6406d7f26dd5b7fc1e3377bd","6407ce6fd3623ecb803c8488","1920","937","","2231","","{""Q0"":0}","[0]","complexity","media/stimuli/inanimate_003_left.png","inanimate","single","left","","","","","","","","","","","","","",""
"","","","","","survey-likert","120","338891","0.0-120.0","SS1678233192341","627286792f25495f123cc27b","6406d7f26dd5b7fc1e3377bd","6407ce6fd3623ecb803c8488","1920","937","","1910","","{""Q0"":0}","[0]","complexity","media/stimuli/inanimate_011_left.png","inanimate","single","left","","","","","","","","","","","","","",""
"","","","","","survey-likert","121","341029","0.0-121.0","SS1678233192341","627286792f25495f123cc27b","6406d7f26dd5b7fc1e3377bd","6407ce6fd3623ecb803c8488","1920","937","","2135","","{""Q0"":0}","[0]","complexity","media/stimuli/inanimate_007_right.png","inanimate","pair","right","","","","","","","","","","","","","",""
"","","","","","survey-likert","122","343199","0.0-122.0","SS1678233192341","627286792f25495f123cc27b","6406d7f26dd5b7fc1e3377bd","6407ce6fd3623ecb803c8488","1920","937","","2167","","{""Q0"":0}","[0]","complexity","media/stimuli/inanimate_006_left.png","inanimate","single","left","","","","","","","","","","","","","",""
