"success","timeout","failed_images","failed_audio","failed_video","trial_type","trial_index","time_elapsed","internal_node_id","subject","prolific_id","study","session","window_width","window_height","view_history","rt","stimulus_type","response","question_order","rating_type","rating_stimulus","rating_animacy","rating_number","rating_pose","stimulus","target","target_animacy","target_pose","target_number","left","left_animacy","left_pose","left_number","right","right_animacy","right_pose","right_number","comparison_type"
"true","false","[]","[]","[]","preload","0","17031","0.0-0.0","SS1678233171353","5e04f438afb8b0f5afa75f08","6406d7f26dd5b7fc1e3377bd","6407ce4a364ca27467f07e4a","1280","621","","","","","","","","","","","","","","","","","","","","","","","",""
"","","","","","instructions","1","22030","0.0-1.0","SS1678233171353","5e04f438afb8b0f5afa75f08","6406d7f26dd5b7fc1e3377bd","6407ce4a364ca27467f07e4a","1280","621","[{""page_index"":0,""viewing_time"":4997}]","4997","","","","","","","","","","","","","","","","","","","","","",""
"","","","","","instructions","2","29973","0.0-2.0","SS1678233171353","5e04f438afb8b0f5afa75f08","6406d7f26dd5b7fc1e3377bd","6407ce4a364ca27467f07e4a","1280","621","[{""page_index"":0,""viewing_time"":5938}]","5938","instructions","","","","","","","","","","","","","","","","","","","","",""
"","","","","","instructions","3","31419","0.0-3.0","SS1678233171353","5e04f438afb8b0f5afa75f08","6406d7f26dd5b7fc1e3377bd","6407ce4a364ca27467f07e4a","1280","621","[{""page_index"":0,""viewing_time"":1444}]","1445","instructions","","","","","","","","","","","","","","","","","","","","",""
"","","","","","survey-likert","4","42571","0.0-4.0","SS1678233171353","5e04f438afb8b0f5afa75f08","6406d7f26dd5b7fc1e3377bd","6407ce4a364ca27467f07e4a","1280","621","","11149","","{""Q0"":2}","[0]","anchoring","","","","","","","","","","","","","","","","","",""
"","","","","","survey-likert","5","51461","0.0-5.0","SS1678233171353","5e04f438afb8b0f5afa75f08","6406d7f26dd5b7fc1e3377bd","6407ce4a364ca27467f07e4a","1280","621","","8887","","{""Q0"":1}","[0]","anchoring","","","","","","","","","","","","","","","","","",""
"","","","","","instructions","6","52518","0.0-6.0","SS1678233171353","5e04f438afb8b0f5afa75f08","6406d7f26dd5b7fc1e3377bd","6407ce4a364ca27467f07e4a","1280","621","[{""page_index"":0,""viewing_time"":1052}]","1052","instructions","","","","","","","","","","","","","","","","","","","","",""
"true","","","","","fullscreen","7","56460","0.0-7.0","SS1678233171353","5e04f438afb8b0f5afa75f08","6406d7f26dd5b7fc1e3377bd","6407ce4a364ca27467f07e4a","1280","621","","","","","","","","","","","","","","","","","","","","","","","",""
"","","","","","survey-likert","8","63037","0.0-8.0","SS1678233171353","5e04f438afb8b0f5afa75f08","6406d7f26dd5b7fc1e3377bd","6407ce4a364ca27467f07e4a","1280","621","","6575","","{""Q0"":2}","[0]","complexity","media/stimuli/inanimate_005_right.png","inanimate","single","right","","","","","","","","","","","","","",""
"","","","","","survey-likert","9","70016","0.0-9.0","SS1678233171353","5e04f438afb8b0f5afa75f08","6406d7f26dd5b7fc1e3377bd","6407ce4a364ca27467f07e4a","1280","621","","6975","","{""Q0"":2}","[0]","complexity","media/stimuli/inanimate_008_left.png","inanimate","pair","left","","","","","","","","","","","","","",""
"","","","","","survey-likert","10","74756","0.0-10.0","SS1678233171353","5e04f438afb8b0f5afa75f08","6406d7f26dd5b7fc1e3377bd","6407ce4a364ca27467f07e4a","1280","621","","4735","","{""Q0"":2}","[0]","complexity","media/stimuli/inanimate_006_left.png","inanimate","pair","left","","","","","","","","","","","","","",""
"","","","","","survey-likert","11","81270","0.0-11.0","SS1678233171353","5e04f438afb8b0f5afa75f08","6406d7f26dd5b7fc1e3377bd","6407ce4a364ca27467f07e4a","1280","621","","6510","","{""Q0"":2}","[0]","complexity","media/stimuli/inanimate_001_left.png","inanimate","pair","left","","","","","","","","","","","","","",""
"","","","","","survey-likert","12","86044","0.0-12.0","SS1678233171353","5e04f438afb8b0f5afa75f08","6406d7f26dd5b7fc1e3377bd","6407ce4a364ca27467f07e4a","1280","621","","4769","","{""Q0"":2}","[0]","complexity","media/stimuli/inanimate_003_right.png","inanimate","pair","right","","","","","","","","","","","","","",""
"","","","","","survey-likert","13","89305","0.0-13.0","SS1678233171353","5e04f438afb8b0f5afa75f08","6406d7f26dd5b7fc1e3377bd","6407ce4a364ca27467f07e4a","1280","621","","3256","","{""Q0"":2}","[0]","complexity","media/stimuli/inanimate_005_right.png","inanimate","pair","right","","","","","","","","","","","","","",""
"","","","","","survey-likert","14","94606","0.0-14.0","SS1678233171353","5e04f438afb8b0f5afa75f08","6406d7f26dd5b7fc1e3377bd","6407ce4a364ca27467f07e4a","1280","621","","5296","","{""Q0"":1}","[0]","complexity","media/stimuli/inanimate_002_right.png","inanimate","single","right","","","","","","","","","","","","","",""
"","","","","","survey-likert","15","99055","0.0-15.0","SS1678233171353","5e04f438afb8b0f5afa75f08","6406d7f26dd5b7fc1e3377bd","6407ce4a364ca27467f07e4a","1280","621","","4445","","{""Q0"":2}","[0]","complexity","media/stimuli/animate_002_left.png","animate","pair","left","","","","","","","","","","","","","",""
"","","","","","survey-likert","16","101688","0.0-16.0","SS1678233171353","5e04f438afb8b0f5afa75f08","6406d7f26dd5b7fc1e3377bd","6407ce4a364ca27467f07e4a","1280","621","","2629","","{""Q0"":1}","[0]","complexity","media/stimuli/inanimate_007_right.png","inanimate","single","right","","","","","","","","","","","","","",""
"","","","","","survey-likert","17","105156","0.0-17.0","SS1678233171353","5e04f438afb8b0f5afa75f08","6406d7f26dd5b7fc1e3377bd","6407ce4a364ca27467f07e4a","1280","621","","3462","","{""Q0"":1}","[0]","complexity","media/stimuli/animate_006_left.png","animate","single","left","","","","","","","","","","","","","",""
"","","","","","survey-likert","18","110261","0.0-18.0","SS1678233171353","5e04f438afb8b0f5afa75f08","6406d7f26dd5b7fc1e3377bd","6407ce4a364ca27467f07e4a","1280","621","","5101","","{""Q0"":1}","[0]","complexity","media/stimuli/inanimate_004_right.png","inanimate","single","right","","","","","","","","","","","","","",""
"","","","","","survey-likert","19","112813","0.0-19.0","SS1678233171353","5e04f438afb8b0f5afa75f08","6406d7f26dd5b7fc1e3377bd","6407ce4a364ca27467f07e4a","1280","621","","2548","","{""Q0"":1}","[0]","complexity","media/stimuli/animate_006_right.png","animate","single","right","","","","","","","","","","","","","",""
"","","","","","html-keyboard-response","20","114804","0.0-20.0","SS1678233171353","5e04f438afb8b0f5afa75f08","6406d7f26dd5b7fc1e3377bd","6407ce4a364ca27467f07e4a","1280","621","","1987",""," ","","","","","","","","","","","","","","","","","","","",""
"","","","","","html-keyboard-response","21","120932","0.0-21.0","SS1678233171353","5e04f438afb8b0f5afa75f08","6406d7f26dd5b7fc1e3377bd","6407ce4a364ca27467f07e4a","1280","621","","6126","","f","","","","","","","<img src=""media/stimuli/inanimate_003_left.png"" class=""coveredImage test"" style = ""width:100px; height:100px; position:fixed; top:10%;    transform: translate(-50%, -50%);left:44.5%""></img><img src=""media/stimuli/inanimate_003_left.png"" class=""coveredImage test"" style = ""width:100px; height:100px; position:fixed; top:10%;    transform: translate(-50%, -50%);left:51.5%""></img><img src=""media/stimuli/inanimate_003_right.png"" class=""coveredImage test"" style = ""width:100px; height:100px;position:fixed; top:25%;        transform: translate(-50%, -50%);left:34.5%""></img><img src=""media/stimuli/inanimate_003_right.png"" class=""coveredImage test"" style = ""width:100px; height:100px;position:fixed; top:25%;        transform: translate(-50%, -50%);left:41.5%""></img><img src=""media/stimuli/inanimate_003_left.png"" class=""coveredImage test"" style = ""width:100px; height:100px;position:fixed; top:25%;        transform: translate(-50%, -50%);left:58%""></img><img src=""media/f.png""style = ""width:30px x; height:30px;position:fixed; top:43%;    transform: translate(-50%, -50%);left:40%""></img><img src=""media/j.png""style = ""width:30px; height:30px;position:fixed; top:43%;    transform: translate(-50%, -50%);left:60%""></img>","media/stimuli/inanimate_003_left.png","inanimate","left","pair","media/stimuli/inanimate_003_right.png","inanimate","right","pair","media/stimuli/inanimate_003_left.png","inanimate","left","single","pose_number"
"","","","","","html-keyboard-response","22","128150","0.0-22.0","SS1678233171353","5e04f438afb8b0f5afa75f08","6406d7f26dd5b7fc1e3377bd","6407ce4a364ca27467f07e4a","1280","621","","7215","","f","","","","","","","<img src=""media/stimuli/inanimate_008_right.png"" class=""coveredImage test"" style = ""width:100px; height:100px; position:fixed; top:10%;    transform: translate(-50%, -50%);left:44.5%""></img><img src=""media/stimuli/inanimate_008_right.png"" class=""coveredImage test"" style = ""width:100px; height:100px; position:fixed; top:10%;    transform: translate(-50%, -50%);left:51.5%""></img><img src=""media/stimuli/animate_002_right.png"" class=""coveredImage test"" style = ""width:100px; height:100px;position:fixed; top:25%;        transform: translate(-50%, -50%);left:34.5%""></img><img src=""media/stimuli/animate_002_right.png"" class=""coveredImage test"" style = ""width:100px; height:100px;position:fixed; top:25%;        transform: translate(-50%, -50%);left:41.5%""></img><img src=""media/stimuli/inanimate_008_right.png"" class=""coveredImage test"" style = ""width:100px; height:100px;position:fixed; top:25%;        transform: translate(-50%, -50%);left:58%""></img><img src=""media/f.png""style = ""width:30px x; height:30px;position:fixed; top:43%;    transform: translate(-50%, -50%);left:40%""></img><img src=""media/j.png""style = ""width:30px; height:30px;position:fixed; top:43%;    transform: translate(-50%, -50%);left:60%""></img>","media/stimuli/inanimate_008_right.png","inanimate","right","pair","media/stimuli/animate_002_right.png","animate","right","pair","media/stimuli/inanimate_008_right.png","inanimate","right","single","animacy_number"
"","","","","","html-keyboard-response","23","134154","0.0-23.0","SS1678233171353","5e04f438afb8b0f5afa75f08","6406d7f26dd5b7fc1e3377bd","6407ce4a364ca27467f07e4a","1280","621","","6002","","j","","","","","","","<img src=""media/stimuli/animate_004_left.png"" class=""coveredImage test"" style = ""width:100px; height:100px; position:fixed; top:10%;    transform: translate(-50%, -50%);left:44.5%""></img><img src=""media/stimuli/animate_004_left.png"" class=""coveredImage test"" style = ""width:100px; height:100px; position:fixed; top:10%;    transform: translate(-50%, -50%);left:51.5%""></img><img src=""media/stimuli/animate_004_left.png"" class=""coveredImage test"" style = ""width:100px; height:100px;position:fixed; top:25%;        transform: translate(-50%, -50%);left:38%""></img><img src=""media/stimuli/animate_006_left.png"" class=""coveredImage test"" style = ""width:100px; height:100px;position:fixed; top:25%;        transform: translate(-50%, -50%);left:54.5%""></img><img src=""media/stimuli/animate_006_left.png"" class=""coveredImage test"" style = ""width:100px; height:100px;position:fixed; top:25%;        transform: translate(-50%, -50%);left:61.5%""></img><img src=""media/f.png""style = ""width:30px x; height:30px;position:fixed; top:43%;    transform: translate(-50%, -50%);left:40%""></img><img src=""media/j.png""style = ""width:30px; height:30px;position:fixed; top:43%;    transform: translate(-50%, -50%);left:60%""></img>","media/stimuli/animate_004_left.png","animate","left","pair","media/stimuli/animate_004_left.png","animate","left","single","media/stimuli/animate_006_left.png","animate","left","pair","number_identity"
"","","","","","html-keyboard-response","24","135557","0.0-24.0","SS1678233171353","5e04f438afb8b0f5afa75f08","6406d7f26dd5b7fc1e3377bd","6407ce4a364ca27467f07e4a","1280","621","","1400","","j","","","","","","","<img src=""media/stimuli/animate_007_left.png"" class=""coveredImage test"" style = ""width:100px; height:100px; position:fixed; top:10%;    transform: translate(-50%, -50%);left:44.5%""></img><img src=""media/stimuli/animate_007_left.png"" class=""coveredImage test"" style = ""width:100px; height:100px; position:fixed; top:10%;    transform: translate(-50%, -50%);left:51.5%""></img><img src=""media/stimuli/animate_007_left.png"" class=""coveredImage test"" style = ""width:100px; height:100px;position:fixed; top:25%;        transform: translate(-50%, -50%);left:38%""></img><img src=""media/stimuli/animate_005_left.png"" class=""coveredImage test"" style = ""width:100px; height:100px;position:fixed; top:25%;        transform: translate(-50%, -50%);left:54.5%""></img><img src=""media/stimuli/animate_005_left.png"" class=""coveredImage test"" style = ""width:100px; height:100px;position:fixed; top:25%;        transform: translate(-50%, -50%);left:61.5%""></img><img src=""media/f.png""style = ""width:30px x; height:30px;position:fixed; top:43%;    transform: translate(-50%, -50%);left:40%""></img><img src=""media/j.png""style = ""width:30px; height:30px;position:fixed; top:43%;    transform: translate(-50%, -50%);left:60%""></img>","media/stimuli/animate_007_left.png","animate","left","pair","media/stimuli/animate_007_left.png","animate","left","single","media/stimuli/animate_005_left.png","animate","left","pair","number_identity"
"","","","","","html-keyboard-response","25","137481","0.0-25.0","SS1678233171353","5e04f438afb8b0f5afa75f08","6406d7f26dd5b7fc1e3377bd","6407ce4a364ca27467f07e4a","1280","621","","1920","","f","","","","","","","<img src=""media/stimuli/inanimate_004_right.png"" class=""coveredImage test"" style = ""width:100px; height:100px; position:fixed; top:10%;    transform: translate(-50%, -50%);left:48%""></img><img src=""media/stimuli/inanimate_004_left.png"" class=""coveredImage test"" style = ""width:100px; height:100px;position:fixed; top:25%;        transform: translate(-50%, -50%);left:38%""></img><img src=""media/stimuli/animate_007_right.png"" class=""coveredImage test"" style = ""width:100px; height:100px;position:fixed; top:25%;        transform: translate(-50%, -50%);left:58%""></img><img src=""media/f.png""style = ""width:30px x; height:30px;position:fixed; top:43%;    transform: translate(-50%, -50%);left:40%""></img><img src=""media/j.png""style = ""width:30px; height:30px;position:fixed; top:43%;    transform: translate(-50%, -50%);left:60%""></img>","media/stimuli/inanimate_004_right.png","inanimate","right","single","media/stimuli/inanimate_004_left.png","inanimate","left","single","media/stimuli/animate_007_right.png","animate","right","single","pose_animacy"
"","","","","","html-keyboard-response","26","141278","0.0-26.0","SS1678233171353","5e04f438afb8b0f5afa75f08","6406d7f26dd5b7fc1e3377bd","6407ce4a364ca27467f07e4a","1280","621","","3795","","j","","","","","","","<img src=""media/stimuli/inanimate_009_left.png"" class=""coveredImage test"" style = ""width:100px; height:100px; position:fixed; top:10%;    transform: translate(-50%, -50%);left:44.5%""></img><img src=""media/stimuli/inanimate_009_left.png"" class=""coveredImage test"" style = ""width:100px; height:100px; position:fixed; top:10%;    transform: translate(-50%, -50%);left:51.5%""></img><img src=""media/stimuli/inanimate_009_left.png"" class=""coveredImage test"" style = ""width:100px; height:100px;position:fixed; top:25%;        transform: translate(-50%, -50%);left:38%""></img><img src=""media/stimuli/inanimate_006_left.png"" class=""coveredImage test"" style = ""width:100px; height:100px;position:fixed; top:25%;        transform: translate(-50%, -50%);left:54.5%""></img><img src=""media/stimuli/inanimate_006_left.png"" class=""coveredImage test"" style = ""width:100px; height:100px;position:fixed; top:25%;        transform: translate(-50%, -50%);left:61.5%""></img><img src=""media/f.png""style = ""width:30px x; height:30px;position:fixed; top:43%;    transform: translate(-50%, -50%);left:40%""></img><img src=""media/j.png""style = ""width:30px; height:30px;position:fixed; top:43%;    transform: translate(-50%, -50%);left:60%""></img>","media/stimuli/inanimate_009_left.png","inanimate","left","pair","media/stimuli/inanimate_009_left.png","inanimate","left","single","media/stimuli/inanimate_006_left.png","inanimate","left","pair","number_identity"
"","","","","","html-keyboard-response","27","142115","0.0-27.0","SS1678233171353","5e04f438afb8b0f5afa75f08","6406d7f26dd5b7fc1e3377bd","6407ce4a364ca27467f07e4a","1280","621","","833","","f","","","","","","","<img src=""media/stimuli/inanimate_004_left.png"" class=""coveredImage test"" style = ""width:100px; height:100px; position:fixed; top:10%;    transform: translate(-50%, -50%);left:44.5%""></img><img src=""media/stimuli/inanimate_004_left.png"" class=""coveredImage test"" style = ""width:100px; height:100px; position:fixed; top:10%;    transform: translate(-50%, -50%);left:51.5%""></img><img src=""media/stimuli/inanimate_001_left.png"" class=""coveredImage test"" style = ""width:100px; height:100px;position:fixed; top:25%;        transform: translate(-50%, -50%);left:34.5%""></img><img src=""media/stimuli/inanimate_001_left.png"" class=""coveredImage test"" style = ""width:100px; height:100px;position:fixed; top:25%;        transform: translate(-50%, -50%);left:41.5%""></img><img src=""media/stimuli/inanimate_004_left.png"" class=""coveredImage test"" style = ""width:100px; height:100px;position:fixed; top:25%;        transform: translate(-50%, -50%);left:58%""></img><img src=""media/f.png""style = ""width:30px x; height:30px;position:fixed; top:43%;    transform: translate(-50%, -50%);left:40%""></img><img src=""media/j.png""style = ""width:30px; height:30px;position:fixed; top:43%;    transform: translate(-50%, -50%);left:60%""></img>","media/stimuli/inanimate_004_left.png","inanimate","left","pair","media/stimuli/inanimate_001_left.png","inanimate","left","pair","media/stimuli/inanimate_004_left.png","inanimate","left","single","identity_number"
"","","","","","html-keyboard-response","28","147568","0.0-28.0","SS1678233171353","5e04f438afb8b0f5afa75f08","6406d7f26dd5b7fc1e3377bd","6407ce4a364ca27467f07e4a","1280","621","","5450","","f","","","","","","","<img src=""media/stimuli/inanimate_012_left.png"" class=""coveredImage test"" style = ""width:100px; height:100px; position:fixed; top:10%;    transform: translate(-50%, -50%);left:48%""></img><img src=""media/stimuli/animate_003_left.png"" class=""coveredImage test"" style = ""width:100px; height:100px;position:fixed; top:25%;        transform: translate(-50%, -50%);left:38%""></img><img src=""media/stimuli/inanimate_012_left.png"" class=""coveredImage test"" style = ""width:100px; height:100px;position:fixed; top:25%;        transform: translate(-50%, -50%);left:54.5%""></img><img src=""media/stimuli/inanimate_012_left.png"" class=""coveredImage test"" style = ""width:100px; height:100px;position:fixed; top:25%;        transform: translate(-50%, -50%);left:61.5%""></img><img src=""media/f.png""style = ""width:30px x; height:30px;position:fixed; top:43%;    transform: translate(-50%, -50%);left:40%""></img><img src=""media/j.png""style = ""width:30px; height:30px;position:fixed; top:43%;    transform: translate(-50%, -50%);left:60%""></img>","media/stimuli/inanimate_012_left.png","inanimate","left","single","media/stimuli/animate_003_left.png","animate","left","single","media/stimuli/inanimate_012_left.png","inanimate","left","pair","animacy_number"
"","","","","","html-keyboard-response","29","150238","0.0-29.0","SS1678233171353","5e04f438afb8b0f5afa75f08","6406d7f26dd5b7fc1e3377bd","6407ce4a364ca27467f07e4a","1280","621","","2667","","f","","","","","","","<img src=""media/stimuli/animate_003_right.png"" class=""coveredImage test"" style = ""width:100px; height:100px; position:fixed; top:10%;    transform: translate(-50%, -50%);left:48%""></img><img src=""media/stimuli/animate_009_right.png"" class=""coveredImage test"" style = ""width:100px; height:100px;position:fixed; top:25%;        transform: translate(-50%, -50%);left:38%""></img><img src=""media/stimuli/animate_003_left.png"" class=""coveredImage test"" style = ""width:100px; height:100px;position:fixed; top:25%;        transform: translate(-50%, -50%);left:58%""></img><img src=""media/f.png""style = ""width:30px x; height:30px;position:fixed; top:43%;    transform: translate(-50%, -50%);left:40%""></img><img src=""media/j.png""style = ""width:30px; height:30px;position:fixed; top:43%;    transform: translate(-50%, -50%);left:60%""></img>","media/stimuli/animate_003_right.png","animate","right","single","media/stimuli/animate_009_right.png","animate","right","single","media/stimuli/animate_003_left.png","animate","left","single","identity_pose"
"","","","","","html-keyboard-response","30","152880","0.0-30.0","SS1678233171353","5e04f438afb8b0f5afa75f08","6406d7f26dd5b7fc1e3377bd","6407ce4a364ca27467f07e4a","1280","621","","2639","","j","","","","","","","<img src=""media/stimuli/inanimate_001_left.png"" class=""coveredImage test"" style = ""width:100px; height:100px; position:fixed; top:10%;    transform: translate(-50%, -50%);left:48%""></img><img src=""media/stimuli/inanimate_001_left.png"" class=""coveredImage test"" style = ""width:100px; height:100px;position:fixed; top:25%;        transform: translate(-50%, -50%);left:34.5%""></img><img src=""media/stimuli/inanimate_001_left.png"" class=""coveredImage test"" style = ""width:100px; height:100px;position:fixed; top:25%;        transform: translate(-50%, -50%);left:41.5%""></img><img src=""media/stimuli/inanimate_001_right.png"" class=""coveredImage test"" style = ""width:100px; height:100px;position:fixed; top:25%;        transform: translate(-50%, -50%);left:58%""></img><img src=""media/f.png""style = ""width:30px x; height:30px;position:fixed; top:43%;    transform: translate(-50%, -50%);left:40%""></img><img src=""media/j.png""style = ""width:30px; height:30px;position:fixed; top:43%;    transform: translate(-50%, -50%);left:60%""></img>","media/stimuli/inanimate_001_left.png","inanimate","left","single","media/stimuli/inanimate_001_left.png","inanimate","left","pair","media/stimuli/inanimate_001_right.png","inanimate","right","single","number_pose"
"","","","","","html-keyboard-response","31","158077","0.0-31.0","SS1678233171353","5e04f438afb8b0f5afa75f08","6406d7f26dd5b7fc1e3377bd","6407ce4a364ca27467f07e4a","1280","621","","5193","","f","","","","","","","<img src=""media/stimuli/inanimate_002_right.png"" class=""coveredImage test"" style = ""width:100px; height:100px; position:fixed; top:10%;    transform: translate(-50%, -50%);left:44.5%""></img><img src=""media/stimuli/inanimate_002_right.png"" class=""coveredImage test"" style = ""width:100px; height:100px; position:fixed; top:10%;    transform: translate(-50%, -50%);left:51.5%""></img><img src=""media/stimuli/inanimate_003_right.png"" class=""coveredImage test"" style = ""width:100px; height:100px;position:fixed; top:25%;        transform: translate(-50%, -50%);left:34.5%""></img><img src=""media/stimuli/inanimate_003_right.png"" class=""coveredImage test"" style = ""width:100px; height:100px;position:fixed; top:25%;        transform: translate(-50%, -50%);left:41.5%""></img><img src=""media/stimuli/animate_001_right.png"" class=""coveredImage test"" style = ""width:100px; height:100px;position:fixed; top:25%;        transform: translate(-50%, -50%);left:54.5%""></img><img src=""media/stimuli/animate_001_right.png"" class=""coveredImage test"" style = ""width:100px; height:100px;position:fixed; top:25%;        transform: translate(-50%, -50%);left:61.5%""></img><img src=""media/f.png""style = ""width:30px x; height:30px;position:fixed; top:43%;    transform: translate(-50%, -50%);left:40%""></img><img src=""media/j.png""style = ""width:30px; height:30px;position:fixed; top:43%;    transform: translate(-50%, -50%);left:60%""></img>","media/stimuli/inanimate_002_right.png","inanimate","right","pair","media/stimuli/inanimate_003_right.png","inanimate","right","pair","media/stimuli/animate_001_right.png","animate","right","pair","identity_animacy"
"","","","","","html-keyboard-response","32","159994","0.0-32.0","SS1678233171353","5e04f438afb8b0f5afa75f08","6406d7f26dd5b7fc1e3377bd","6407ce4a364ca27467f07e4a","1280","621","","1915","","j","","","","","","","<img src=""media/stimuli/animate_003_left.png"" class=""coveredImage test"" style = ""width:100px; height:100px; position:fixed; top:10%;    transform: translate(-50%, -50%);left:48%""></img><img src=""media/stimuli/inanimate_010_left.png"" class=""coveredImage test"" style = ""width:100px; height:100px;position:fixed; top:25%;        transform: translate(-50%, -50%);left:38%""></img><img src=""media/stimuli/animate_006_left.png"" class=""coveredImage test"" style = ""width:100px; height:100px;position:fixed; top:25%;        transform: translate(-50%, -50%);left:58%""></img><img src=""media/f.png""style = ""width:30px x; height:30px;position:fixed; top:43%;    transform: translate(-50%, -50%);left:40%""></img><img src=""media/j.png""style = ""width:30px; height:30px;position:fixed; top:43%;    transform: translate(-50%, -50%);left:60%""></img>","media/stimuli/animate_003_left.png","animate","left","single","media/stimuli/inanimate_010_left.png","inanimate","left","single","media/stimuli/animate_006_left.png","animate","left","single","animacy_identity"
"","","","","","html-keyboard-response","33","161306","0.0-33.0","SS1678233171353","5e04f438afb8b0f5afa75f08","6406d7f26dd5b7fc1e3377bd","6407ce4a364ca27467f07e4a","1280","621","","1309",""," ","","","","","","","","","","","","","","","","","","","",""
"","","","","","html-keyboard-response","34","164321","0.0-34.0","SS1678233171353","5e04f438afb8b0f5afa75f08","6406d7f26dd5b7fc1e3377bd","6407ce4a364ca27467f07e4a","1280","621","","3012","","f","","","","","","","<img src=""media/stimuli/inanimate_006_left.png"" class=""coveredImage test"" style = ""width:100px; height:100px; position:fixed; top:10%;    transform: translate(-50%, -50%);left:48%""></img><img src=""media/stimuli/inanimate_006_right.png"" class=""coveredImage test"" style = ""width:100px; height:100px;position:fixed; top:25%;        transform: translate(-50%, -50%);left:38%""></img><img src=""media/stimuli/inanimate_006_left.png"" class=""coveredImage test"" style = ""width:100px; height:100px;position:fixed; top:25%;        transform: translate(-50%, -50%);left:54.5%""></img><img src=""media/stimuli/inanimate_006_left.png"" class=""coveredImage test"" style = ""width:100px; height:100px;position:fixed; top:25%;        transform: translate(-50%, -50%);left:61.5%""></img><img src=""media/f.png""style = ""width:30px x; height:30px;position:fixed; top:43%;    transform: translate(-50%, -50%);left:40%""></img><img src=""media/j.png""style = ""width:30px; height:30px;position:fixed; top:43%;    transform: translate(-50%, -50%);left:60%""></img>","media/stimuli/inanimate_006_left.png","inanimate","left","single","media/stimuli/inanimate_006_right.png","inanimate","right","single","media/stimuli/inanimate_006_left.png","inanimate","left","pair","pose_number"
"","","","","","html-keyboard-response","35","165761","0.0-35.0","SS1678233171353","5e04f438afb8b0f5afa75f08","6406d7f26dd5b7fc1e3377bd","6407ce4a364ca27467f07e4a","1280","621","","1437","","j","","","","","","","<img src=""media/stimuli/inanimate_005_left.png"" class=""coveredImage test"" style = ""width:100px; height:100px; position:fixed; top:10%;    transform: translate(-50%, -50%);left:44.5%""></img><img src=""media/stimuli/inanimate_005_left.png"" class=""coveredImage test"" style = ""width:100px; height:100px; position:fixed; top:10%;    transform: translate(-50%, -50%);left:51.5%""></img><img src=""media/stimuli/inanimate_005_left.png"" class=""coveredImage test"" style = ""width:100px; height:100px;position:fixed; top:25%;        transform: translate(-50%, -50%);left:38%""></img><img src=""media/stimuli/inanimate_005_right.png"" class=""coveredImage test"" style = ""width:100px; height:100px;position:fixed; top:25%;        transform: translate(-50%, -50%);left:54.5%""></img><img src=""media/stimuli/inanimate_005_right.png"" class=""coveredImage test"" style = ""width:100px; height:100px;position:fixed; top:25%;        transform: translate(-50%, -50%);left:61.5%""></img><img src=""media/f.png""style = ""width:30px x; height:30px;position:fixed; top:43%;    transform: translate(-50%, -50%);left:40%""></img><img src=""media/j.png""style = ""width:30px; height:30px;position:fixed; top:43%;    transform: translate(-50%, -50%);left:60%""></img>","media/stimuli/inanimate_005_left.png","inanimate","left","pair","media/stimuli/inanimate_005_left.png","inanimate","left","single","media/stimuli/inanimate_005_right.png","inanimate","right","pair","number_pose"
"","","","","","html-keyboard-response","36","167043","0.0-36.0","SS1678233171353","5e04f438afb8b0f5afa75f08","6406d7f26dd5b7fc1e3377bd","6407ce4a364ca27467f07e4a","1280","621","","1279","","j","","","","","","","<img src=""media/stimuli/animate_011_left.png"" class=""coveredImage test"" style = ""width:100px; height:100px; position:fixed; top:10%;    transform: translate(-50%, -50%);left:48%""></img><img src=""media/stimuli/inanimate_004_left.png"" class=""coveredImage test"" style = ""width:100px; height:100px;position:fixed; top:25%;        transform: translate(-50%, -50%);left:38%""></img><img src=""media/stimuli/animate_001_left.png"" class=""coveredImage test"" style = ""width:100px; height:100px;position:fixed; top:25%;        transform: translate(-50%, -50%);left:58%""></img><img src=""media/f.png""style = ""width:30px x; height:30px;position:fixed; top:43%;    transform: translate(-50%, -50%);left:40%""></img><img src=""media/j.png""style = ""width:30px; height:30px;position:fixed; top:43%;    transform: translate(-50%, -50%);left:60%""></img>","media/stimuli/animate_011_left.png","animate","left","single","media/stimuli/inanimate_004_left.png","inanimate","left","single","media/stimuli/animate_001_left.png","animate","left","single","animacy_identity"
"","","","","","html-keyboard-response","37","168747","0.0-37.0","SS1678233171353","5e04f438afb8b0f5afa75f08","6406d7f26dd5b7fc1e3377bd","6407ce4a364ca27467f07e4a","1280","621","","1700","","f","","","","","","","<img src=""media/stimuli/inanimate_010_left.png"" class=""coveredImage test"" style = ""width:100px; height:100px; position:fixed; top:10%;    transform: translate(-50%, -50%);left:48%""></img><img src=""media/stimuli/animate_001_left.png"" class=""coveredImage test"" style = ""width:100px; height:100px;position:fixed; top:25%;        transform: translate(-50%, -50%);left:38%""></img><img src=""media/stimuli/inanimate_010_left.png"" class=""coveredImage test"" style = ""width:100px; height:100px;position:fixed; top:25%;        transform: translate(-50%, -50%);left:54.5%""></img><img src=""media/stimuli/inanimate_010_left.png"" class=""coveredImage test"" style = ""width:100px; height:100px;position:fixed; top:25%;        transform: translate(-50%, -50%);left:61.5%""></img><img src=""media/f.png""style = ""width:30px x; height:30px;position:fixed; top:43%;    transform: translate(-50%, -50%);left:40%""></img><img src=""media/j.png""style = ""width:30px; height:30px;position:fixed; top:43%;    transform: translate(-50%, -50%);left:60%""></img>","media/stimuli/inanimate_010_left.png","inanimate","left","single","media/stimuli/animate_001_left.png","animate","left","single","media/stimuli/inanimate_010_left.png","inanimate","left","pair","animacy_number"
"","","","","","html-keyboard-response","38","171160","0.0-38.0","SS1678233171353","5e04f438afb8b0f5afa75f08","6406d7f26dd5b7fc1e3377bd","6407ce4a364ca27467f07e4a","1280","621","","2410","","j","","","","","","","<img src=""media/stimuli/inanimate_005_right.png"" class=""coveredImage test"" style = ""width:100px; height:100px; position:fixed; top:10%;    transform: translate(-50%, -50%);left:48%""></img><img src=""media/stimuli/inanimate_005_right.png"" class=""coveredImage test"" style = ""width:100px; height:100px;position:fixed; top:25%;        transform: translate(-50%, -50%);left:34.5%""></img><img src=""media/stimuli/inanimate_005_right.png"" class=""coveredImage test"" style = ""width:100px; height:100px;position:fixed; top:25%;        transform: translate(-50%, -50%);left:41.5%""></img><img src=""media/stimuli/animate_012_right.png"" class=""coveredImage test"" style = ""width:100px; height:100px;position:fixed; top:25%;        transform: translate(-50%, -50%);left:58%""></img><img src=""media/f.png""style = ""width:30px x; height:30px;position:fixed; top:43%;    transform: translate(-50%, -50%);left:40%""></img><img src=""media/j.png""style = ""width:30px; height:30px;position:fixed; top:43%;    transform: translate(-50%, -50%);left:60%""></img>","media/stimuli/inanimate_005_right.png","inanimate","right","single","media/stimuli/inanimate_005_right.png","inanimate","right","pair","media/stimuli/animate_012_right.png","animate","right","single","number_animacy"
"","","","","","html-keyboard-response","39","172865","0.0-39.0","SS1678233171353","5e04f438afb8b0f5afa75f08","6406d7f26dd5b7fc1e3377bd","6407ce4a364ca27467f07e4a","1280","621","","1701","","f","","","","","","","<img src=""media/stimuli/inanimate_003_right.png"" class=""coveredImage test"" style = ""width:100px; height:100px; position:fixed; top:10%;    transform: translate(-50%, -50%);left:44.5%""></img><img src=""media/stimuli/inanimate_003_right.png"" class=""coveredImage test"" style = ""width:100px; height:100px; position:fixed; top:10%;    transform: translate(-50%, -50%);left:51.5%""></img><img src=""media/stimuli/inanimate_007_right.png"" class=""coveredImage test"" style = ""width:100px; height:100px;position:fixed; top:25%;        transform: translate(-50%, -50%);left:34.5%""></img><img src=""media/stimuli/inanimate_007_right.png"" class=""coveredImage test"" style = ""width:100px; height:100px;position:fixed; top:25%;        transform: translate(-50%, -50%);left:41.5%""></img><img src=""media/stimuli/inanimate_003_left.png"" class=""coveredImage test"" style = ""width:100px; height:100px;position:fixed; top:25%;        transform: translate(-50%, -50%);left:54.5%""></img><img src=""media/stimuli/inanimate_003_left.png"" class=""coveredImage test"" style = ""width:100px; height:100px;position:fixed; top:25%;        transform: translate(-50%, -50%);left:61.5%""></img><img src=""media/f.png""style = ""width:30px x; height:30px;position:fixed; top:43%;    transform: translate(-50%, -50%);left:40%""></img><img src=""media/j.png""style = ""width:30px; height:30px;position:fixed; top:43%;    transform: translate(-50%, -50%);left:60%""></img>","media/stimuli/inanimate_003_right.png","inanimate","right","pair","media/stimuli/inanimate_007_right.png","inanimate","right","pair","media/stimuli/inanimate_003_left.png","inanimate","left","pair","identity_pose"
"","","","","","html-keyboard-response","40","173937","0.0-40.0","SS1678233171353","5e04f438afb8b0f5afa75f08","6406d7f26dd5b7fc1e3377bd","6407ce4a364ca27467f07e4a","1280","621","","1069","","j","","","","","","","<img src=""media/stimuli/inanimate_011_right.png"" class=""coveredImage test"" style = ""width:100px; height:100px; position:fixed; top:10%;    transform: translate(-50%, -50%);left:44.5%""></img><img src=""media/stimuli/inanimate_011_right.png"" class=""coveredImage test"" style = ""width:100px; height:100px; position:fixed; top:10%;    transform: translate(-50%, -50%);left:51.5%""></img><img src=""media/stimuli/inanimate_011_right.png"" class=""coveredImage test"" style = ""width:100px; height:100px;position:fixed; top:25%;        transform: translate(-50%, -50%);left:38%""></img><img src=""media/stimuli/inanimate_011_right.png"" class=""coveredImage test"" style = ""width:100px; height:100px;position:fixed; top:25%;        transform: translate(-50%, -50%);left:54.5%""></img><img src=""media/stimuli/inanimate_011_right.png"" class=""coveredImage test"" style = ""width:100px; height:100px;position:fixed; top:25%;        transform: translate(-50%, -50%);left:61.5%""></img><img src=""media/f.png""style = ""width:30px x; height:30px;position:fixed; top:43%;    transform: translate(-50%, -50%);left:40%""></img><img src=""media/j.png""style = ""width:30px; height:30px;position:fixed; top:43%;    transform: translate(-50%, -50%);left:60%""></img>","media/stimuli/inanimate_011_right.png","inanimate","right","pair","media/stimuli/inanimate_011_right.png","inanimate","right","single","media/stimuli/inanimate_011_right.png","inanimate","right","pair","number_filler"
"","","","","","html-keyboard-response","41","175684","0.0-41.0","SS1678233171353","5e04f438afb8b0f5afa75f08","6406d7f26dd5b7fc1e3377bd","6407ce4a364ca27467f07e4a","1280","621","","1745","","f","","","","","","","<img src=""media/stimuli/animate_001_left.png"" class=""coveredImage test"" style = ""width:100px; height:100px; position:fixed; top:10%;    transform: translate(-50%, -50%);left:48%""></img><img src=""media/stimuli/animate_001_right.png"" class=""coveredImage test"" style = ""width:100px; height:100px;position:fixed; top:25%;        transform: translate(-50%, -50%);left:38%""></img><img src=""media/stimuli/animate_001_left.png"" class=""coveredImage test"" style = ""width:100px; height:100px;position:fixed; top:25%;        transform: translate(-50%, -50%);left:54.5%""></img><img src=""media/stimuli/animate_001_left.png"" class=""coveredImage test"" style = ""width:100px; height:100px;position:fixed; top:25%;        transform: translate(-50%, -50%);left:61.5%""></img><img src=""media/f.png""style = ""width:30px x; height:30px;position:fixed; top:43%;    transform: translate(-50%, -50%);left:40%""></img><img src=""media/j.png""style = ""width:30px; height:30px;position:fixed; top:43%;    transform: translate(-50%, -50%);left:60%""></img>","media/stimuli/animate_001_left.png","animate","left","single","media/stimuli/animate_001_right.png","animate","right","single","media/stimuli/animate_001_left.png","animate","left","pair","pose_number"
"","","","","","html-keyboard-response","42","179076","0.0-42.0","SS1678233171353","5e04f438afb8b0f5afa75f08","6406d7f26dd5b7fc1e3377bd","6407ce4a364ca27467f07e4a","1280","621","","3387","","f","","","","","","","<img src=""media/stimuli/animate_009_right.png"" class=""coveredImage test"" style = ""width:100px; height:100px; position:fixed; top:10%;    transform: translate(-50%, -50%);left:44.5%""></img><img src=""media/stimuli/animate_009_right.png"" class=""coveredImage test"" style = ""width:100px; height:100px; position:fixed; top:10%;    transform: translate(-50%, -50%);left:51.5%""></img><img src=""media/stimuli/animate_009_left.png"" class=""coveredImage test"" style = ""width:100px; height:100px;position:fixed; top:25%;        transform: translate(-50%, -50%);left:38%""></img><img src=""media/stimuli/inanimate_006_right.png"" class=""coveredImage test"" style = ""width:100px; height:100px;position:fixed; top:25%;        transform: translate(-50%, -50%);left:58%""></img><img src=""media/f.png""style = ""width:30px x; height:30px;position:fixed; top:43%;    transform: translate(-50%, -50%);left:40%""></img><img src=""media/j.png""style = ""width:30px; height:30px;position:fixed; top:43%;    transform: translate(-50%, -50%);left:60%""></img>","media/stimuli/animate_009_right.png","animate","right","pair","media/stimuli/animate_009_left.png","animate","left","single","media/stimuli/inanimate_006_right.png","inanimate","right","single","pose_animacy"
"","","","","","html-keyboard-response","43","180520","0.0-43.0","SS1678233171353","5e04f438afb8b0f5afa75f08","6406d7f26dd5b7fc1e3377bd","6407ce4a364ca27467f07e4a","1280","621","","1441","","j","","","","","","","<img src=""media/stimuli/animate_005_right.png"" class=""coveredImage test"" style = ""width:100px; height:100px; position:fixed; top:10%;    transform: translate(-50%, -50%);left:48%""></img><img src=""media/stimuli/animate_005_right.png"" class=""coveredImage test"" style = ""width:100px; height:100px;position:fixed; top:25%;        transform: translate(-50%, -50%);left:34.5%""></img><img src=""media/stimuli/animate_005_right.png"" class=""coveredImage test"" style = ""width:100px; height:100px;position:fixed; top:25%;        transform: translate(-50%, -50%);left:41.5%""></img><img src=""media/stimuli/animate_005_left.png"" class=""coveredImage test"" style = ""width:100px; height:100px;position:fixed; top:25%;        transform: translate(-50%, -50%);left:58%""></img><img src=""media/f.png""style = ""width:30px x; height:30px;position:fixed; top:43%;    transform: translate(-50%, -50%);left:40%""></img><img src=""media/j.png""style = ""width:30px; height:30px;position:fixed; top:43%;    transform: translate(-50%, -50%);left:60%""></img>","media/stimuli/animate_005_right.png","animate","right","single","media/stimuli/animate_005_right.png","animate","right","pair","media/stimuli/animate_005_left.png","animate","left","single","number_pose"
"","","","","","html-keyboard-response","44","182280","0.0-44.0","SS1678233171353","5e04f438afb8b0f5afa75f08","6406d7f26dd5b7fc1e3377bd","6407ce4a364ca27467f07e4a","1280","621","","1757","","f","","","","","","","<img src=""media/stimuli/inanimate_008_left.png"" class=""coveredImage test"" style = ""width:100px; height:100px; position:fixed; top:10%;    transform: translate(-50%, -50%);left:48%""></img><img src=""media/stimuli/inanimate_009_left.png"" class=""coveredImage test"" style = ""width:100px; height:100px;position:fixed; top:25%;        transform: translate(-50%, -50%);left:38%""></img><img src=""media/stimuli/animate_012_left.png"" class=""coveredImage test"" style = ""width:100px; height:100px;position:fixed; top:25%;        transform: translate(-50%, -50%);left:58%""></img><img src=""media/f.png""style = ""width:30px x; height:30px;position:fixed; top:43%;    transform: translate(-50%, -50%);left:40%""></img><img src=""media/j.png""style = ""width:30px; height:30px;position:fixed; top:43%;    transform: translate(-50%, -50%);left:60%""></img>","media/stimuli/inanimate_008_left.png","inanimate","left","single","media/stimuli/inanimate_009_left.png","inanimate","left","single","media/stimuli/animate_012_left.png","animate","left","single","identity_animacy"
"","","","","","html-keyboard-response","45","183802","0.0-45.0","SS1678233171353","5e04f438afb8b0f5afa75f08","6406d7f26dd5b7fc1e3377bd","6407ce4a364ca27467f07e4a","1280","621","","1518","","f","","","","","","","<img src=""media/stimuli/inanimate_005_right.png"" class=""coveredImage test"" style = ""width:100px; height:100px; position:fixed; top:10%;    transform: translate(-50%, -50%);left:48%""></img><img src=""media/stimuli/animate_002_right.png"" class=""coveredImage test"" style = ""width:100px; height:100px;position:fixed; top:25%;        transform: translate(-50%, -50%);left:38%""></img><img src=""media/stimuli/inanimate_005_right.png"" class=""coveredImage test"" style = ""width:100px; height:100px;position:fixed; top:25%;        transform: translate(-50%, -50%);left:54.5%""></img><img src=""media/stimuli/inanimate_005_right.png"" class=""coveredImage test"" style = ""width:100px; height:100px;position:fixed; top:25%;        transform: translate(-50%, -50%);left:61.5%""></img><img src=""media/f.png""style = ""width:30px x; height:30px;position:fixed; top:43%;    transform: translate(-50%, -50%);left:40%""></img><img src=""media/j.png""style = ""width:30px; height:30px;position:fixed; top:43%;    transform: translate(-50%, -50%);left:60%""></img>","media/stimuli/inanimate_005_right.png","inanimate","right","single","media/stimuli/animate_002_right.png","animate","right","single","media/stimuli/inanimate_005_right.png","inanimate","right","pair","animacy_number"
"","","","","","html-keyboard-response","46","184984","0.0-46.0","SS1678233171353","5e04f438afb8b0f5afa75f08","6406d7f26dd5b7fc1e3377bd","6407ce4a364ca27467f07e4a","1280","621","","1179",""," ","","","","","","","","","","","","","","","","","","","",""
"","","","","","html-keyboard-response","47","185936","0.0-47.0","SS1678233171353","5e04f438afb8b0f5afa75f08","6406d7f26dd5b7fc1e3377bd","6407ce4a364ca27467f07e4a","1280","621","","948","","f","","","","","","","<img src=""media/stimuli/inanimate_007_right.png"" class=""coveredImage test"" style = ""width:100px; height:100px; position:fixed; top:10%;    transform: translate(-50%, -50%);left:44.5%""></img><img src=""media/stimuli/inanimate_007_right.png"" class=""coveredImage test"" style = ""width:100px; height:100px; position:fixed; top:10%;    transform: translate(-50%, -50%);left:51.5%""></img><img src=""media/stimuli/inanimate_007_right.png"" class=""coveredImage test"" style = ""width:100px; height:100px;position:fixed; top:25%;        transform: translate(-50%, -50%);left:34.5%""></img><img src=""media/stimuli/inanimate_007_right.png"" class=""coveredImage test"" style = ""width:100px; height:100px;position:fixed; top:25%;        transform: translate(-50%, -50%);left:41.5%""></img><img src=""media/stimuli/animate_011_left.png"" class=""coveredImage test"" style = ""width:100px; height:100px;position:fixed; top:25%;        transform: translate(-50%, -50%);left:54.5%""></img><img src=""media/stimuli/animate_011_left.png"" class=""coveredImage test"" style = ""width:100px; height:100px;position:fixed; top:25%;        transform: translate(-50%, -50%);left:61.5%""></img><img src=""media/f.png""style = ""width:30px x; height:30px;position:fixed; top:43%;    transform: translate(-50%, -50%);left:40%""></img><img src=""media/j.png""style = ""width:30px; height:30px;position:fixed; top:43%;    transform: translate(-50%, -50%);left:60%""></img>","media/stimuli/inanimate_007_right.png","inanimate","right","pair","media/stimuli/inanimate_007_right.png","inanimate","right","pair","media/stimuli/animate_011_left.png","animate","left","pair","pose_animacy"
"","","","","","html-keyboard-response","48","187556","0.0-48.0","SS1678233171353","5e04f438afb8b0f5afa75f08","6406d7f26dd5b7fc1e3377bd","6407ce4a364ca27467f07e4a","1280","621","","1615","","j","","","","","","","<img src=""media/stimuli/inanimate_006_left.png"" class=""coveredImage test"" style = ""width:100px; height:100px; position:fixed; top:10%;    transform: translate(-50%, -50%);left:48%""></img><img src=""media/stimuli/animate_009_left.png"" class=""coveredImage test"" style = ""width:100px; height:100px;position:fixed; top:25%;        transform: translate(-50%, -50%);left:38%""></img><img src=""media/stimuli/inanimate_010_left.png"" class=""coveredImage test"" style = ""width:100px; height:100px;position:fixed; top:25%;        transform: translate(-50%, -50%);left:58%""></img><img src=""media/f.png""style = ""width:30px x; height:30px;position:fixed; top:43%;    transform: translate(-50%, -50%);left:40%""></img><img src=""media/j.png""style = ""width:30px; height:30px;position:fixed; top:43%;    transform: translate(-50%, -50%);left:60%""></img>","media/stimuli/inanimate_006_left.png","inanimate","left","single","media/stimuli/animate_009_left.png","animate","left","single","media/stimuli/inanimate_010_left.png","inanimate","left","single","animacy_identity"
"","","","","","html-keyboard-response","49","190569","0.0-49.0","SS1678233171353","5e04f438afb8b0f5afa75f08","6406d7f26dd5b7fc1e3377bd","6407ce4a364ca27467f07e4a","1280","621","","3009","","f","","","","","","","<img src=""media/stimuli/animate_007_left.png"" class=""coveredImage test"" style = ""width:100px; height:100px; position:fixed; top:10%;    transform: translate(-50%, -50%);left:44.5%""></img><img src=""media/stimuli/animate_007_left.png"" class=""coveredImage test"" style = ""width:100px; height:100px; position:fixed; top:10%;    transform: translate(-50%, -50%);left:51.5%""></img><img src=""media/stimuli/animate_007_right.png"" class=""coveredImage test"" style = ""width:100px; height:100px;position:fixed; top:25%;        transform: translate(-50%, -50%);left:34.5%""></img><img src=""media/stimuli/animate_007_right.png"" class=""coveredImage test"" style = ""width:100px; height:100px;position:fixed; top:25%;        transform: translate(-50%, -50%);left:41.5%""></img><img src=""media/stimuli/animate_001_left.png"" class=""coveredImage test"" style = ""width:100px; height:100px;position:fixed; top:25%;        transform: translate(-50%, -50%);left:54.5%""></img><img src=""media/stimuli/animate_001_left.png"" class=""coveredImage test"" style = ""width:100px; height:100px;position:fixed; top:25%;        transform: translate(-50%, -50%);left:61.5%""></img><img src=""media/f.png""style = ""width:30px x; height:30px;position:fixed; top:43%;    transform: translate(-50%, -50%);left:40%""></img><img src=""media/j.png""style = ""width:30px; height:30px;position:fixed; top:43%;    transform: translate(-50%, -50%);left:60%""></img>","media/stimuli/animate_007_left.png","animate","left","pair","media/stimuli/animate_007_right.png","animate","right","pair","media/stimuli/animate_001_left.png","animate","left","pair","pose_identity"
"","","","","","html-keyboard-response","50","191805","0.0-50.0","SS1678233171353","5e04f438afb8b0f5afa75f08","6406d7f26dd5b7fc1e3377bd","6407ce4a364ca27467f07e4a","1280","621","","1232","","f","","","","","","","<img src=""media/stimuli/inanimate_005_left.png"" class=""coveredImage test"" style = ""width:100px; height:100px; position:fixed; top:10%;    transform: translate(-50%, -50%);left:44.5%""></img><img src=""media/stimuli/inanimate_005_left.png"" class=""coveredImage test"" style = ""width:100px; height:100px; position:fixed; top:10%;    transform: translate(-50%, -50%);left:51.5%""></img><img src=""media/stimuli/inanimate_012_left.png"" class=""coveredImage test"" style = ""width:100px; height:100px;position:fixed; top:25%;        transform: translate(-50%, -50%);left:34.5%""></img><img src=""media/stimuli/inanimate_012_left.png"" class=""coveredImage test"" style = ""width:100px; height:100px;position:fixed; top:25%;        transform: translate(-50%, -50%);left:41.5%""></img><img src=""media/stimuli/animate_007_left.png"" class=""coveredImage test"" style = ""width:100px; height:100px;position:fixed; top:25%;        transform: translate(-50%, -50%);left:54.5%""></img><img src=""media/stimuli/animate_007_left.png"" class=""coveredImage test"" style = ""width:100px; height:100px;position:fixed; top:25%;        transform: translate(-50%, -50%);left:61.5%""></img><img src=""media/f.png""style = ""width:30px x; height:30px;position:fixed; top:43%;    transform: translate(-50%, -50%);left:40%""></img><img src=""media/j.png""style = ""width:30px; height:30px;position:fixed; top:43%;    transform: translate(-50%, -50%);left:60%""></img>","media/stimuli/inanimate_005_left.png","inanimate","left","pair","media/stimuli/inanimate_012_left.png","inanimate","left","pair","media/stimuli/animate_007_left.png","animate","left","pair","identity_animacy"
"","","","","","html-keyboard-response","51","193248","0.0-51.0","SS1678233171353","5e04f438afb8b0f5afa75f08","6406d7f26dd5b7fc1e3377bd","6407ce4a364ca27467f07e4a","1280","621","","1438","","j","","","","","","","<img src=""media/stimuli/animate_009_right.png"" class=""coveredImage test"" style = ""width:100px; height:100px; position:fixed; top:10%;    transform: translate(-50%, -50%);left:44.5%""></img><img src=""media/stimuli/animate_009_right.png"" class=""coveredImage test"" style = ""width:100px; height:100px; position:fixed; top:10%;    transform: translate(-50%, -50%);left:51.5%""></img><img src=""media/stimuli/animate_009_right.png"" class=""coveredImage test"" style = ""width:100px; height:100px;position:fixed; top:25%;        transform: translate(-50%, -50%);left:38%""></img><img src=""media/stimuli/animate_009_left.png"" class=""coveredImage test"" style = ""width:100px; height:100px;position:fixed; top:25%;        transform: translate(-50%, -50%);left:54.5%""></img><img src=""media/stimuli/animate_009_left.png"" class=""coveredImage test"" style = ""width:100px; height:100px;position:fixed; top:25%;        transform: translate(-50%, -50%);left:61.5%""></img><img src=""media/f.png""style = ""width:30px x; height:30px;position:fixed; top:43%;    transform: translate(-50%, -50%);left:40%""></img><img src=""media/j.png""style = ""width:30px; height:30px;position:fixed; top:43%;    transform: translate(-50%, -50%);left:60%""></img>","media/stimuli/animate_009_right.png","animate","right","pair","media/stimuli/animate_009_right.png","animate","right","single","media/stimuli/animate_009_left.png","animate","left","pair","number_pose"
"","","","","","html-keyboard-response","52","194466","0.0-52.0","SS1678233171353","5e04f438afb8b0f5afa75f08","6406d7f26dd5b7fc1e3377bd","6407ce4a364ca27467f07e4a","1280","621","","1216","","j","","","","","","","<img src=""media/stimuli/animate_011_left.png"" class=""coveredImage test"" style = ""width:100px; height:100px; position:fixed; top:10%;    transform: translate(-50%, -50%);left:48%""></img><img src=""media/stimuli/inanimate_009_left.png"" class=""coveredImage test"" style = ""width:100px; height:100px;position:fixed; top:25%;        transform: translate(-50%, -50%);left:38%""></img><img src=""media/stimuli/animate_001_left.png"" class=""coveredImage test"" style = ""width:100px; height:100px;position:fixed; top:25%;        transform: translate(-50%, -50%);left:58%""></img><img src=""media/f.png""style = ""width:30px x; height:30px;position:fixed; top:43%;    transform: translate(-50%, -50%);left:40%""></img><img src=""media/j.png""style = ""width:30px; height:30px;position:fixed; top:43%;    transform: translate(-50%, -50%);left:60%""></img>","media/stimuli/animate_011_left.png","animate","left","single","media/stimuli/inanimate_009_left.png","inanimate","left","single","media/stimuli/animate_001_left.png","animate","left","single","animacy_identity"
"","","","","","html-keyboard-response","53","195748","0.0-53.0","SS1678233171353","5e04f438afb8b0f5afa75f08","6406d7f26dd5b7fc1e3377bd","6407ce4a364ca27467f07e4a","1280","621","","1278","","j","","","","","","","<img src=""media/stimuli/inanimate_008_left.png"" class=""coveredImage test"" style = ""width:100px; height:100px; position:fixed; top:10%;    transform: translate(-50%, -50%);left:48%""></img><img src=""media/stimuli/animate_004_left.png"" class=""coveredImage test"" style = ""width:100px; height:100px;position:fixed; top:25%;        transform: translate(-50%, -50%);left:38%""></img><img src=""media/stimuli/inanimate_010_left.png"" class=""coveredImage test"" style = ""width:100px; height:100px;position:fixed; top:25%;        transform: translate(-50%, -50%);left:58%""></img><img src=""media/f.png""style = ""width:30px x; height:30px;position:fixed; top:43%;    transform: translate(-50%, -50%);left:40%""></img><img src=""media/j.png""style = ""width:30px; height:30px;position:fixed; top:43%;    transform: translate(-50%, -50%);left:60%""></img>","media/stimuli/inanimate_008_left.png","inanimate","left","single","media/stimuli/animate_004_left.png","animate","left","single","media/stimuli/inanimate_010_left.png","inanimate","left","single","animacy_identity"
"","","","","","html-keyboard-response","54","197427","0.0-54.0","SS1678233171353","5e04f438afb8b0f5afa75f08","6406d7f26dd5b7fc1e3377bd","6407ce4a364ca27467f07e4a","1280","621","","1674","","j","","","","","","","<img src=""media/stimuli/animate_009_left.png"" class=""coveredImage test"" style = ""width:100px; height:100px; position:fixed; top:10%;    transform: translate(-50%, -50%);left:44.5%""></img><img src=""media/stimuli/animate_009_left.png"" class=""coveredImage test"" style = ""width:100px; height:100px; position:fixed; top:10%;    transform: translate(-50%, -50%);left:51.5%""></img><img src=""media/stimuli/animate_009_left.png"" class=""coveredImage test"" style = ""width:100px; height:100px;position:fixed; top:25%;        transform: translate(-50%, -50%);left:38%""></img><img src=""media/stimuli/inanimate_009_left.png"" class=""coveredImage test"" style = ""width:100px; height:100px;position:fixed; top:25%;        transform: translate(-50%, -50%);left:54.5%""></img><img src=""media/stimuli/inanimate_009_left.png"" class=""coveredImage test"" style = ""width:100px; height:100px;position:fixed; top:25%;        transform: translate(-50%, -50%);left:61.5%""></img><img src=""media/f.png""style = ""width:30px x; height:30px;position:fixed; top:43%;    transform: translate(-50%, -50%);left:40%""></img><img src=""media/j.png""style = ""width:30px; height:30px;position:fixed; top:43%;    transform: translate(-50%, -50%);left:60%""></img>","media/stimuli/animate_009_left.png","animate","left","pair","media/stimuli/animate_009_left.png","animate","left","single","media/stimuli/inanimate_009_left.png","inanimate","left","pair","number_animacy"
"","","","","","html-keyboard-response","55","199736","0.0-55.0","SS1678233171353","5e04f438afb8b0f5afa75f08","6406d7f26dd5b7fc1e3377bd","6407ce4a364ca27467f07e4a","1280","621","","2306","","f","","","","","","","<img src=""media/stimuli/inanimate_004_left.png"" class=""coveredImage test"" style = ""width:100px; height:100px; position:fixed; top:10%;    transform: translate(-50%, -50%);left:48%""></img><img src=""media/stimuli/inanimate_004_left.png"" class=""coveredImage test"" style = ""width:100px; height:100px;position:fixed; top:25%;        transform: translate(-50%, -50%);left:34.5%""></img><img src=""media/stimuli/inanimate_004_left.png"" class=""coveredImage test"" style = ""width:100px; height:100px;position:fixed; top:25%;        transform: translate(-50%, -50%);left:41.5%""></img><img src=""media/stimuli/animate_011_left.png"" class=""coveredImage test"" style = ""width:100px; height:100px;position:fixed; top:25%;        transform: translate(-50%, -50%);left:58%""></img><img src=""media/f.png""style = ""width:30px x; height:30px;position:fixed; top:43%;    transform: translate(-50%, -50%);left:40%""></img><img src=""media/j.png""style = ""width:30px; height:30px;position:fixed; top:43%;    transform: translate(-50%, -50%);left:60%""></img>","media/stimuli/inanimate_004_left.png","inanimate","left","single","media/stimuli/inanimate_004_left.png","inanimate","left","pair","media/stimuli/animate_011_left.png","animate","left","single","number_animacy"
"","","","","","html-keyboard-response","56","200906","0.0-56.0","SS1678233171353","5e04f438afb8b0f5afa75f08","6406d7f26dd5b7fc1e3377bd","6407ce4a364ca27467f07e4a","1280","621","","1166","","f","","","","","","","<img src=""media/stimuli/inanimate_001_right.png"" class=""coveredImage test"" style = ""width:100px; height:100px; position:fixed; top:10%;    transform: translate(-50%, -50%);left:44.5%""></img><img src=""media/stimuli/inanimate_001_right.png"" class=""coveredImage test"" style = ""width:100px; height:100px; position:fixed; top:10%;    transform: translate(-50%, -50%);left:51.5%""></img><img src=""media/stimuli/inanimate_001_right.png"" class=""coveredImage test"" style = ""width:100px; height:100px;position:fixed; top:25%;        transform: translate(-50%, -50%);left:34.5%""></img><img src=""media/stimuli/inanimate_001_right.png"" class=""coveredImage test"" style = ""width:100px; height:100px;position:fixed; top:25%;        transform: translate(-50%, -50%);left:41.5%""></img><img src=""media/stimuli/animate_011_left.png"" class=""coveredImage test"" style = ""width:100px; height:100px;position:fixed; top:25%;        transform: translate(-50%, -50%);left:54.5%""></img><img src=""media/stimuli/animate_011_left.png"" class=""coveredImage test"" style = ""width:100px; height:100px;position:fixed; top:25%;        transform: translate(-50%, -50%);left:61.5%""></img><img src=""media/f.png""style = ""width:30px x; height:30px;position:fixed; top:43%;    transform: translate(-50%, -50%);left:40%""></img><img src=""media/j.png""style = ""width:30px; height:30px;position:fixed; top:43%;    transform: translate(-50%, -50%);left:60%""></img>","media/stimuli/inanimate_001_right.png","inanimate","right","pair","media/stimuli/inanimate_001_right.png","inanimate","right","pair","media/stimuli/animate_011_left.png","animate","left","pair","pose_animacy"
"","","","","","html-keyboard-response","57","203160","0.0-57.0","SS1678233171353","5e04f438afb8b0f5afa75f08","6406d7f26dd5b7fc1e3377bd","6407ce4a364ca27467f07e4a","1280","621","","2250","","f","","","","","","","<img src=""media/stimuli/inanimate_012_right.png"" class=""coveredImage test"" style = ""width:100px; height:100px; position:fixed; top:10%;    transform: translate(-50%, -50%);left:44.5%""></img><img src=""media/stimuli/inanimate_012_right.png"" class=""coveredImage test"" style = ""width:100px; height:100px; position:fixed; top:10%;    transform: translate(-50%, -50%);left:51.5%""></img><img src=""media/stimuli/inanimate_012_left.png"" class=""coveredImage test"" style = ""width:100px; height:100px;position:fixed; top:25%;        transform: translate(-50%, -50%);left:34.5%""></img><img src=""media/stimuli/inanimate_012_left.png"" class=""coveredImage test"" style = ""width:100px; height:100px;position:fixed; top:25%;        transform: translate(-50%, -50%);left:41.5%""></img><img src=""media/stimuli/inanimate_006_right.png"" class=""coveredImage test"" style = ""width:100px; height:100px;position:fixed; top:25%;        transform: translate(-50%, -50%);left:54.5%""></img><img src=""media/stimuli/inanimate_006_right.png"" class=""coveredImage test"" style = ""width:100px; height:100px;position:fixed; top:25%;        transform: translate(-50%, -50%);left:61.5%""></img><img src=""media/f.png""style = ""width:30px x; height:30px;position:fixed; top:43%;    transform: translate(-50%, -50%);left:40%""></img><img src=""media/j.png""style = ""width:30px; height:30px;position:fixed; top:43%;    transform: translate(-50%, -50%);left:60%""></img>","media/stimuli/inanimate_012_right.png","inanimate","right","pair","media/stimuli/inanimate_012_left.png","inanimate","left","pair","media/stimuli/inanimate_006_right.png","inanimate","right","pair","pose_identity"
"","","","","","html-keyboard-response","58","204545","0.0-58.0","SS1678233171353","5e04f438afb8b0f5afa75f08","6406d7f26dd5b7fc1e3377bd","6407ce4a364ca27467f07e4a","1280","621","","1381","","j","","","","","","","<img src=""media/stimuli/inanimate_007_left.png"" class=""coveredImage test"" style = ""width:100px; height:100px; position:fixed; top:10%;    transform: translate(-50%, -50%);left:44.5%""></img><img src=""media/stimuli/inanimate_007_left.png"" class=""coveredImage test"" style = ""width:100px; height:100px; position:fixed; top:10%;    transform: translate(-50%, -50%);left:51.5%""></img><img src=""media/stimuli/inanimate_007_left.png"" class=""coveredImage test"" style = ""width:100px; height:100px;position:fixed; top:25%;        transform: translate(-50%, -50%);left:38%""></img><img src=""media/stimuli/animate_004_left.png"" class=""coveredImage test"" style = ""width:100px; height:100px;position:fixed; top:25%;        transform: translate(-50%, -50%);left:54.5%""></img><img src=""media/stimuli/animate_004_left.png"" class=""coveredImage test"" style = ""width:100px; height:100px;position:fixed; top:25%;        transform: translate(-50%, -50%);left:61.5%""></img><img src=""media/f.png""style = ""width:30px x; height:30px;position:fixed; top:43%;    transform: translate(-50%, -50%);left:40%""></img><img src=""media/j.png""style = ""width:30px; height:30px;position:fixed; top:43%;    transform: translate(-50%, -50%);left:60%""></img>","media/stimuli/inanimate_007_left.png","inanimate","left","pair","media/stimuli/inanimate_007_left.png","inanimate","left","single","media/stimuli/animate_004_left.png","animate","left","pair","number_animacy"
"","","","","","html-keyboard-response","59","205235","0.0-59.0","SS1678233171353","5e04f438afb8b0f5afa75f08","6406d7f26dd5b7fc1e3377bd","6407ce4a364ca27467f07e4a","1280","621","","686","","j","","","","","","","","","","","","","","","","","","","",""
"","","","","","html-keyboard-response","60","206785","0.0-60.0","SS1678233171353","5e04f438afb8b0f5afa75f08","6406d7f26dd5b7fc1e3377bd","6407ce4a364ca27467f07e4a","1280","621","","1546","","f","","","","","","","<img src=""media/stimuli/inanimate_003_right.png"" class=""coveredImage test"" style = ""width:100px; height:100px; position:fixed; top:10%;    transform: translate(-50%, -50%);left:44.5%""></img><img src=""media/stimuli/inanimate_003_right.png"" class=""coveredImage test"" style = ""width:100px; height:100px; position:fixed; top:10%;    transform: translate(-50%, -50%);left:51.5%""></img><img src=""media/stimuli/inanimate_003_left.png"" class=""coveredImage test"" style = ""width:100px; height:100px;position:fixed; top:25%;        transform: translate(-50%, -50%);left:34.5%""></img><img src=""media/stimuli/inanimate_003_left.png"" class=""coveredImage test"" style = ""width:100px; height:100px;position:fixed; top:25%;        transform: translate(-50%, -50%);left:41.5%""></img><img src=""media/stimuli/inanimate_010_right.png"" class=""coveredImage test"" style = ""width:100px; height:100px;position:fixed; top:25%;        transform: translate(-50%, -50%);left:54.5%""></img><img src=""media/stimuli/inanimate_010_right.png"" class=""coveredImage test"" style = ""width:100px; height:100px;position:fixed; top:25%;        transform: translate(-50%, -50%);left:61.5%""></img><img src=""media/f.png""style = ""width:30px x; height:30px;position:fixed; top:43%;    transform: translate(-50%, -50%);left:40%""></img><img src=""media/j.png""style = ""width:30px; height:30px;position:fixed; top:43%;    transform: translate(-50%, -50%);left:60%""></img>","media/stimuli/inanimate_003_right.png","inanimate","right","pair","media/stimuli/inanimate_003_left.png","inanimate","left","pair","media/stimuli/inanimate_010_right.png","inanimate","right","pair","pose_identity"
"","","","","","html-keyboard-response","61","208306","0.0-61.0","SS1678233171353","5e04f438afb8b0f5afa75f08","6406d7f26dd5b7fc1e3377bd","6407ce4a364ca27467f07e4a","1280","621","","1516","","j","","","","","","","<img src=""media/stimuli/inanimate_010_left.png"" class=""coveredImage test"" style = ""width:100px; height:100px; position:fixed; top:10%;    transform: translate(-50%, -50%);left:48%""></img><img src=""media/stimuli/animate_001_left.png"" class=""coveredImage test"" style = ""width:100px; height:100px;position:fixed; top:25%;        transform: translate(-50%, -50%);left:34.5%""></img><img src=""media/stimuli/animate_001_left.png"" class=""coveredImage test"" style = ""width:100px; height:100px;position:fixed; top:25%;        transform: translate(-50%, -50%);left:41.5%""></img><img src=""media/stimuli/inanimate_010_right.png"" class=""coveredImage test"" style = ""width:100px; height:100px;position:fixed; top:25%;        transform: translate(-50%, -50%);left:54.5%""></img><img src=""media/stimuli/inanimate_010_right.png"" class=""coveredImage test"" style = ""width:100px; height:100px;position:fixed; top:25%;        transform: translate(-50%, -50%);left:61.5%""></img><img src=""media/f.png""style = ""width:30px x; height:30px;position:fixed; top:43%;    transform: translate(-50%, -50%);left:40%""></img><img src=""media/j.png""style = ""width:30px; height:30px;position:fixed; top:43%;    transform: translate(-50%, -50%);left:60%""></img>","media/stimuli/inanimate_010_left.png","inanimate","left","single","media/stimuli/animate_001_left.png","animate","left","pair","media/stimuli/inanimate_010_right.png","inanimate","right","pair","animacy_pose"
"","","","","","html-keyboard-response","62","209514","0.0-62.0","SS1678233171353","5e04f438afb8b0f5afa75f08","6406d7f26dd5b7fc1e3377bd","6407ce4a364ca27467f07e4a","1280","621","","1203","","j","","","","","","","<img src=""media/stimuli/inanimate_007_left.png"" class=""coveredImage test"" style = ""width:100px; height:100px; position:fixed; top:10%;    transform: translate(-50%, -50%);left:48%""></img><img src=""media/stimuli/inanimate_010_left.png"" class=""coveredImage test"" style = ""width:100px; height:100px;position:fixed; top:25%;        transform: translate(-50%, -50%);left:38%""></img><img src=""media/stimuli/inanimate_007_right.png"" class=""coveredImage test"" style = ""width:100px; height:100px;position:fixed; top:25%;        transform: translate(-50%, -50%);left:58%""></img><img src=""media/f.png""style = ""width:30px x; height:30px;position:fixed; top:43%;    transform: translate(-50%, -50%);left:40%""></img><img src=""media/j.png""style = ""width:30px; height:30px;position:fixed; top:43%;    transform: translate(-50%, -50%);left:60%""></img>","media/stimuli/inanimate_007_left.png","inanimate","left","single","media/stimuli/inanimate_010_left.png","inanimate","left","single","media/stimuli/inanimate_007_right.png","inanimate","right","single","identity_pose"
"","","","","","html-keyboard-response","63","210579","0.0-63.0","SS1678233171353","5e04f438afb8b0f5afa75f08","6406d7f26dd5b7fc1e3377bd","6407ce4a364ca27467f07e4a","1280","621","","1060","","f","","","","","","","<img src=""media/stimuli/inanimate_004_left.png"" class=""coveredImage test"" style = ""width:100px; height:100px; position:fixed; top:10%;    transform: translate(-50%, -50%);left:44.5%""></img><img src=""media/stimuli/inanimate_004_left.png"" class=""coveredImage test"" style = ""width:100px; height:100px; position:fixed; top:10%;    transform: translate(-50%, -50%);left:51.5%""></img><img src=""media/stimuli/inanimate_004_right.png"" class=""coveredImage test"" style = ""width:100px; height:100px;position:fixed; top:25%;        transform: translate(-50%, -50%);left:34.5%""></img><img src=""media/stimuli/inanimate_004_right.png"" class=""coveredImage test"" style = ""width:100px; height:100px;position:fixed; top:25%;        transform: translate(-50%, -50%);left:41.5%""></img><img src=""media/stimuli/inanimate_004_left.png"" class=""coveredImage test"" style = ""width:100px; height:100px;position:fixed; top:25%;        transform: translate(-50%, -50%);left:58%""></img><img src=""media/f.png""style = ""width:30px x; height:30px;position:fixed; top:43%;    transform: translate(-50%, -50%);left:40%""></img><img src=""media/j.png""style = ""width:30px; height:30px;position:fixed; top:43%;    transform: translate(-50%, -50%);left:60%""></img>","media/stimuli/inanimate_004_left.png","inanimate","left","pair","media/stimuli/inanimate_004_right.png","inanimate","right","pair","media/stimuli/inanimate_004_left.png","inanimate","left","single","pose_number"
"","","","","","html-keyboard-response","64","211651","0.0-64.0","SS1678233171353","5e04f438afb8b0f5afa75f08","6406d7f26dd5b7fc1e3377bd","6407ce4a364ca27467f07e4a","1280","621","","1068","","j","","","","","","","<img src=""media/stimuli/animate_002_left.png"" class=""coveredImage test"" style = ""width:100px; height:100px; position:fixed; top:10%;    transform: translate(-50%, -50%);left:44.5%""></img><img src=""media/stimuli/animate_002_left.png"" class=""coveredImage test"" style = ""width:100px; height:100px; position:fixed; top:10%;    transform: translate(-50%, -50%);left:51.5%""></img><img src=""media/stimuli/animate_002_left.png"" class=""coveredImage test"" style = ""width:100px; height:100px;position:fixed; top:25%;        transform: translate(-50%, -50%);left:38%""></img><img src=""media/stimuli/animate_002_right.png"" class=""coveredImage test"" style = ""width:100px; height:100px;position:fixed; top:25%;        transform: translate(-50%, -50%);left:54.5%""></img><img src=""media/stimuli/animate_002_right.png"" class=""coveredImage test"" style = ""width:100px; height:100px;position:fixed; top:25%;        transform: translate(-50%, -50%);left:61.5%""></img><img src=""media/f.png""style = ""width:30px x; height:30px;position:fixed; top:43%;    transform: translate(-50%, -50%);left:40%""></img><img src=""media/j.png""style = ""width:30px; height:30px;position:fixed; top:43%;    transform: translate(-50%, -50%);left:60%""></img>","media/stimuli/animate_002_left.png","animate","left","pair","media/stimuli/animate_002_left.png","animate","left","single","media/stimuli/animate_002_right.png","animate","right","pair","number_pose"
"","","","","","html-keyboard-response","65","212777","0.0-65.0","SS1678233171353","5e04f438afb8b0f5afa75f08","6406d7f26dd5b7fc1e3377bd","6407ce4a364ca27467f07e4a","1280","621","","1122","","j","","","","","","","<img src=""media/stimuli/inanimate_002_left.png"" class=""coveredImage test"" style = ""width:100px; height:100px; position:fixed; top:10%;    transform: translate(-50%, -50%);left:44.5%""></img><img src=""media/stimuli/inanimate_002_left.png"" class=""coveredImage test"" style = ""width:100px; height:100px; position:fixed; top:10%;    transform: translate(-50%, -50%);left:51.5%""></img><img src=""media/stimuli/animate_004_left.png"" class=""coveredImage test"" style = ""width:100px; height:100px;position:fixed; top:25%;        transform: translate(-50%, -50%);left:38%""></img><img src=""media/stimuli/inanimate_002_right.png"" class=""coveredImage test"" style = ""width:100px; height:100px;position:fixed; top:25%;        transform: translate(-50%, -50%);left:58%""></img><img src=""media/f.png""style = ""width:30px x; height:30px;position:fixed; top:43%;    transform: translate(-50%, -50%);left:40%""></img><img src=""media/j.png""style = ""width:30px; height:30px;position:fixed; top:43%;    transform: translate(-50%, -50%);left:60%""></img>","media/stimuli/inanimate_002_left.png","inanimate","left","pair","media/stimuli/animate_004_left.png","animate","left","single","media/stimuli/inanimate_002_right.png","inanimate","right","single","animacy_pose"
"","","","","","html-keyboard-response","66","213858","0.0-66.0","SS1678233171353","5e04f438afb8b0f5afa75f08","6406d7f26dd5b7fc1e3377bd","6407ce4a364ca27467f07e4a","1280","621","","1077","","j","","","","","","","<img src=""media/stimuli/animate_007_right.png"" class=""coveredImage test"" style = ""width:100px; height:100px; position:fixed; top:10%;    transform: translate(-50%, -50%);left:48%""></img><img src=""media/stimuli/inanimate_008_right.png"" class=""coveredImage test"" style = ""width:100px; height:100px;position:fixed; top:25%;        transform: translate(-50%, -50%);left:38%""></img><img src=""media/stimuli/animate_007_right.png"" class=""coveredImage test"" style = ""width:100px; height:100px;position:fixed; top:25%;        transform: translate(-50%, -50%);left:54.5%""></img><img src=""media/stimuli/animate_007_right.png"" class=""coveredImage test"" style = ""width:100px; height:100px;position:fixed; top:25%;        transform: translate(-50%, -50%);left:61.5%""></img><img src=""media/f.png""style = ""width:30px x; height:30px;position:fixed; top:43%;    transform: translate(-50%, -50%);left:40%""></img><img src=""media/j.png""style = ""width:30px; height:30px;position:fixed; top:43%;    transform: translate(-50%, -50%);left:60%""></img>","media/stimuli/animate_007_right.png","animate","right","single","media/stimuli/inanimate_008_right.png","inanimate","right","single","media/stimuli/animate_007_right.png","animate","right","pair","animacy_number"
"","","","","","html-keyboard-response","67","215031","0.0-67.0","SS1678233171353","5e04f438afb8b0f5afa75f08","6406d7f26dd5b7fc1e3377bd","6407ce4a364ca27467f07e4a","1280","621","","1169","","f","","","","","","","<img src=""media/stimuli/animate_007_right.png"" class=""coveredImage test"" style = ""width:100px; height:100px; position:fixed; top:10%;    transform: translate(-50%, -50%);left:48%""></img><img src=""media/stimuli/animate_007_right.png"" class=""coveredImage test"" style = ""width:100px; height:100px;position:fixed; top:25%;        transform: translate(-50%, -50%);left:34.5%""></img><img src=""media/stimuli/animate_007_right.png"" class=""coveredImage test"" style = ""width:100px; height:100px;position:fixed; top:25%;        transform: translate(-50%, -50%);left:41.5%""></img><img src=""media/stimuli/inanimate_004_right.png"" class=""coveredImage test"" style = ""width:100px; height:100px;position:fixed; top:25%;        transform: translate(-50%, -50%);left:58%""></img><img src=""media/f.png""style = ""width:30px x; height:30px;position:fixed; top:43%;    transform: translate(-50%, -50%);left:40%""></img><img src=""media/j.png""style = ""width:30px; height:30px;position:fixed; top:43%;    transform: translate(-50%, -50%);left:60%""></img>","media/stimuli/animate_007_right.png","animate","right","single","media/stimuli/animate_007_right.png","animate","right","pair","media/stimuli/inanimate_004_right.png","inanimate","right","single","number_animacy"
"","","","","","html-keyboard-response","68","216082","0.0-68.0","SS1678233171353","5e04f438afb8b0f5afa75f08","6406d7f26dd5b7fc1e3377bd","6407ce4a364ca27467f07e4a","1280","621","","1046","","j","","","","","","","<img src=""media/stimuli/animate_003_left.png"" class=""coveredImage test"" style = ""width:100px; height:100px; position:fixed; top:10%;    transform: translate(-50%, -50%);left:44.5%""></img><img src=""media/stimuli/animate_003_left.png"" class=""coveredImage test"" style = ""width:100px; height:100px; position:fixed; top:10%;    transform: translate(-50%, -50%);left:51.5%""></img><img src=""media/stimuli/inanimate_012_left.png"" class=""coveredImage test"" style = ""width:100px; height:100px;position:fixed; top:25%;        transform: translate(-50%, -50%);left:34.5%""></img><img src=""media/stimuli/inanimate_012_left.png"" class=""coveredImage test"" style = ""width:100px; height:100px;position:fixed; top:25%;        transform: translate(-50%, -50%);left:41.5%""></img><img src=""media/stimuli/animate_003_right.png"" class=""coveredImage test"" style = ""width:100px; height:100px;position:fixed; top:25%;        transform: translate(-50%, -50%);left:54.5%""></img><img src=""media/stimuli/animate_003_right.png"" class=""coveredImage test"" style = ""width:100px; height:100px;position:fixed; top:25%;        transform: translate(-50%, -50%);left:61.5%""></img><img src=""media/f.png""style = ""width:30px x; height:30px;position:fixed; top:43%;    transform: translate(-50%, -50%);left:40%""></img><img src=""media/j.png""style = ""width:30px; height:30px;position:fixed; top:43%;    transform: translate(-50%, -50%);left:60%""></img>","media/stimuli/animate_003_left.png","animate","left","pair","media/stimuli/inanimate_012_left.png","inanimate","left","pair","media/stimuli/animate_003_right.png","animate","right","pair","animacy_pose"
"","","","","","html-keyboard-response","69","217239","0.0-69.0","SS1678233171353","5e04f438afb8b0f5afa75f08","6406d7f26dd5b7fc1e3377bd","6407ce4a364ca27467f07e4a","1280","621","","1153","","f","","","","","","","<img src=""media/stimuli/inanimate_009_left.png"" class=""coveredImage test"" style = ""width:100px; height:100px; position:fixed; top:10%;    transform: translate(-50%, -50%);left:48%""></img><img src=""media/stimuli/inanimate_009_right.png"" class=""coveredImage test"" style = ""width:100px; height:100px;position:fixed; top:25%;        transform: translate(-50%, -50%);left:38%""></img><img src=""media/stimuli/inanimate_009_left.png"" class=""coveredImage test"" style = ""width:100px; height:100px;position:fixed; top:25%;        transform: translate(-50%, -50%);left:54.5%""></img><img src=""media/stimuli/inanimate_009_left.png"" class=""coveredImage test"" style = ""width:100px; height:100px;position:fixed; top:25%;        transform: translate(-50%, -50%);left:61.5%""></img><img src=""media/f.png""style = ""width:30px x; height:30px;position:fixed; top:43%;    transform: translate(-50%, -50%);left:40%""></img><img src=""media/j.png""style = ""width:30px; height:30px;position:fixed; top:43%;    transform: translate(-50%, -50%);left:60%""></img>","media/stimuli/inanimate_009_left.png","inanimate","left","single","media/stimuli/inanimate_009_right.png","inanimate","right","single","media/stimuli/inanimate_009_left.png","inanimate","left","pair","pose_number"
"","","","","","html-keyboard-response","70","219218","0.0-70.0","SS1678233171353","5e04f438afb8b0f5afa75f08","6406d7f26dd5b7fc1e3377bd","6407ce4a364ca27467f07e4a","1280","621","","1975","","f","","","","","","","<img src=""media/stimuli/inanimate_009_left.png"" class=""coveredImage test"" style = ""width:100px; height:100px; position:fixed; top:10%;    transform: translate(-50%, -50%);left:44.5%""></img><img src=""media/stimuli/inanimate_009_left.png"" class=""coveredImage test"" style = ""width:100px; height:100px; position:fixed; top:10%;    transform: translate(-50%, -50%);left:51.5%""></img><img src=""media/stimuli/animate_012_left.png"" class=""coveredImage test"" style = ""width:100px; height:100px;position:fixed; top:25%;        transform: translate(-50%, -50%);left:34.5%""></img><img src=""media/stimuli/animate_012_left.png"" class=""coveredImage test"" style = ""width:100px; height:100px;position:fixed; top:25%;        transform: translate(-50%, -50%);left:41.5%""></img><img src=""media/stimuli/inanimate_009_left.png"" class=""coveredImage test"" style = ""width:100px; height:100px;position:fixed; top:25%;        transform: translate(-50%, -50%);left:58%""></img><img src=""media/f.png""style = ""width:30px x; height:30px;position:fixed; top:43%;    transform: translate(-50%, -50%);left:40%""></img><img src=""media/j.png""style = ""width:30px; height:30px;position:fixed; top:43%;    transform: translate(-50%, -50%);left:60%""></img>","media/stimuli/inanimate_009_left.png","inanimate","left","pair","media/stimuli/animate_012_left.png","animate","left","pair","media/stimuli/inanimate_009_left.png","inanimate","left","single","animacy_number"
"","","","","","html-keyboard-response","71","220335","0.0-71.0","SS1678233171353","5e04f438afb8b0f5afa75f08","6406d7f26dd5b7fc1e3377bd","6407ce4a364ca27467f07e4a","1280","621","","1113","","f","","","","","","","<img src=""media/stimuli/inanimate_001_right.png"" class=""coveredImage test"" style = ""width:100px; height:100px; position:fixed; top:10%;    transform: translate(-50%, -50%);left:48%""></img><img src=""media/stimuli/inanimate_003_right.png"" class=""coveredImage test"" style = ""width:100px; height:100px;position:fixed; top:25%;        transform: translate(-50%, -50%);left:38%""></img><img src=""media/stimuli/animate_004_right.png"" class=""coveredImage test"" style = ""width:100px; height:100px;position:fixed; top:25%;        transform: translate(-50%, -50%);left:58%""></img><img src=""media/f.png""style = ""width:30px x; height:30px;position:fixed; top:43%;    transform: translate(-50%, -50%);left:40%""></img><img src=""media/j.png""style = ""width:30px; height:30px;position:fixed; top:43%;    transform: translate(-50%, -50%);left:60%""></img>","media/stimuli/inanimate_001_right.png","inanimate","right","single","media/stimuli/inanimate_003_right.png","inanimate","right","single","media/stimuli/animate_004_right.png","animate","right","single","identity_animacy"
"","","","","","html-keyboard-response","72","221423","0.0-72.0","SS1678233171353","5e04f438afb8b0f5afa75f08","6406d7f26dd5b7fc1e3377bd","6407ce4a364ca27467f07e4a","1280","621","","1084",""," ","","","","","","","","","","","","","","","","","","","",""
"","","","","","survey-likert","73","224445","0.0-73.0","SS1678233171353","5e04f438afb8b0f5afa75f08","6406d7f26dd5b7fc1e3377bd","6407ce4a364ca27467f07e4a","1280","621","","3018","","{""Q0"":1}","[0]","complexity","media/stimuli/animate_004_left.png","animate","single","left","","","","","","","","","","","","","",""
"","","","","","survey-likert","74","225863","0.0-74.0","SS1678233171353","5e04f438afb8b0f5afa75f08","6406d7f26dd5b7fc1e3377bd","6407ce4a364ca27467f07e4a","1280","621","","1411","","{""Q0"":1}","[0]","complexity","media/stimuli/inanimate_009_right.png","inanimate","single","right","","","","","","","","","","","","","",""
"","","","","","survey-likert","75","227471","0.0-75.0","SS1678233171353","5e04f438afb8b0f5afa75f08","6406d7f26dd5b7fc1e3377bd","6407ce4a364ca27467f07e4a","1280","621","","1602","","{""Q0"":2}","[0]","complexity","media/stimuli/inanimate_004_right.png","inanimate","pair","right","","","","","","","","","","","","","",""
"","","","","","survey-likert","76","228930","0.0-76.0","SS1678233171353","5e04f438afb8b0f5afa75f08","6406d7f26dd5b7fc1e3377bd","6407ce4a364ca27467f07e4a","1280","621","","1452","","{""Q0"":1}","[0]","complexity","media/stimuli/inanimate_006_right.png","inanimate","single","right","","","","","","","","","","","","","",""
"","","","","","survey-likert","77","230460","0.0-77.0","SS1678233171353","5e04f438afb8b0f5afa75f08","6406d7f26dd5b7fc1e3377bd","6407ce4a364ca27467f07e4a","1280","621","","1520","","{""Q0"":1}","[0]","complexity","media/stimuli/inanimate_010_left.png","inanimate","single","left","","","","","","","","","","","","","",""
"","","","","","survey-likert","78","232051","0.0-78.0","SS1678233171353","5e04f438afb8b0f5afa75f08","6406d7f26dd5b7fc1e3377bd","6407ce4a364ca27467f07e4a","1280","621","","1584","","{""Q0"":2}","[0]","complexity","media/stimuli/animate_007_left.png","animate","pair","left","","","","","","","","","","","","","",""
"","","","","","survey-likert","79","233341","0.0-79.0","SS1678233171353","5e04f438afb8b0f5afa75f08","6406d7f26dd5b7fc1e3377bd","6407ce4a364ca27467f07e4a","1280","621","","1282","","{""Q0"":2}","[0]","complexity","media/stimuli/animate_007_right.png","animate","pair","right","","","","","","","","","","","","","",""
"","","","","","survey-likert","80","235024","0.0-80.0","SS1678233171353","5e04f438afb8b0f5afa75f08","6406d7f26dd5b7fc1e3377bd","6407ce4a364ca27467f07e4a","1280","621","","1676","","{""Q0"":1}","[0]","complexity","media/stimuli/animate_007_left.png","animate","single","left","","","","","","","","","","","","","",""
"","","","","","survey-likert","81","236669","0.0-81.0","SS1678233171353","5e04f438afb8b0f5afa75f08","6406d7f26dd5b7fc1e3377bd","6407ce4a364ca27467f07e4a","1280","621","","1638","","{""Q0"":2}","[0]","complexity","media/stimuli/animate_005_left.png","animate","pair","left","","","","","","","","","","","","","",""
"","","","","","survey-likert","82","238257","0.0-82.0","SS1678233171353","5e04f438afb8b0f5afa75f08","6406d7f26dd5b7fc1e3377bd","6407ce4a364ca27467f07e4a","1280","621","","1582","","{""Q0"":1}","[0]","complexity","media/stimuli/inanimate_008_right.png","inanimate","single","right","","","","","","","","","","","","","",""
"","","","","","survey-likert","83","240415","0.0-83.0","SS1678233171353","5e04f438afb8b0f5afa75f08","6406d7f26dd5b7fc1e3377bd","6407ce4a364ca27467f07e4a","1280","621","","2152","","{""Q0"":1}","[0]","complexity","media/stimuli/animate_008_right.png","animate","single","right","","","","","","","","","","","","","",""
"","","","","","survey-likert","84","242466","0.0-84.0","SS1678233171353","5e04f438afb8b0f5afa75f08","6406d7f26dd5b7fc1e3377bd","6407ce4a364ca27467f07e4a","1280","621","","2043","","{""Q0"":2}","[0]","complexity","media/stimuli/inanimate_012_right.png","inanimate","pair","right","","","","","","","","","","","","","",""
"","","","","","html-keyboard-response","85","243587","0.0-85.0","SS1678233171353","5e04f438afb8b0f5afa75f08","6406d7f26dd5b7fc1e3377bd","6407ce4a364ca27467f07e4a","1280","621","","1116",""," ","","","","","","","","","","","","","","","","","","","",""
"","","","","","survey-likert","86","246265","0.0-86.0","SS1678233171353","5e04f438afb8b0f5afa75f08","6406d7f26dd5b7fc1e3377bd","6407ce4a364ca27467f07e4a","1280","621","","2674","","{""Q0"":2}","[0]","complexity","media/stimuli/animate_008_left.png","animate","pair","left","","","","","","","","","","","","","",""
"","","","","","survey-likert","87","247902","0.0-87.0","SS1678233171353","5e04f438afb8b0f5afa75f08","6406d7f26dd5b7fc1e3377bd","6407ce4a364ca27467f07e4a","1280","621","","1630","","{""Q0"":2}","[0]","complexity","media/stimuli/animate_010_left.png","animate","pair","left","","","","","","","","","","","","","",""
"","","","","","survey-likert","88","250294","0.0-88.0","SS1678233171353","5e04f438afb8b0f5afa75f08","6406d7f26dd5b7fc1e3377bd","6407ce4a364ca27467f07e4a","1280","621","","2386","","{""Q0"":1}","[0]","complexity","media/stimuli/inanimate_009_left.png","inanimate","single","left","","","","","","","","","","","","","",""
"","","","","","survey-likert","89","252064","0.0-89.0","SS1678233171353","5e04f438afb8b0f5afa75f08","6406d7f26dd5b7fc1e3377bd","6407ce4a364ca27467f07e4a","1280","621","","1763","","{""Q0"":1}","[0]","complexity","media/stimuli/animate_010_left.png","animate","single","left","","","","","","","","","","","","","",""
"","","","","","survey-likert","90","254215","0.0-90.0","SS1678233171353","5e04f438afb8b0f5afa75f08","6406d7f26dd5b7fc1e3377bd","6407ce4a364ca27467f07e4a","1280","621","","2142","","{""Q0"":1}","[0]","complexity","media/stimuli/inanimate_012_left.png","inanimate","single","left","","","","","","","","","","","","","",""
"","","","","","survey-likert","91","255675","0.0-91.0","SS1678233171353","5e04f438afb8b0f5afa75f08","6406d7f26dd5b7fc1e3377bd","6407ce4a364ca27467f07e4a","1280","621","","1450","","{""Q0"":2}","[0]","complexity","media/stimuli/inanimate_004_left.png","inanimate","pair","left","","","","","","","","","","","","","",""
"","","","","","survey-likert","92","257264","0.0-92.0","SS1678233171353","5e04f438afb8b0f5afa75f08","6406d7f26dd5b7fc1e3377bd","6407ce4a364ca27467f07e4a","1280","621","","1581","","{""Q0"":2}","[0]","complexity","media/stimuli/inanimate_010_right.png","inanimate","pair","right","","","","","","","","","","","","","",""
"","","","","","survey-likert","93","258592","0.0-93.0","SS1678233171353","5e04f438afb8b0f5afa75f08","6406d7f26dd5b7fc1e3377bd","6407ce4a364ca27467f07e4a","1280","621","","1321","","{""Q0"":2}","[0]","complexity","media/stimuli/animate_011_left.png","animate","pair","left","","","","","","","","","","","","","",""
"","","","","","survey-likert","94","260114","0.0-94.0","SS1678233171353","5e04f438afb8b0f5afa75f08","6406d7f26dd5b7fc1e3377bd","6407ce4a364ca27467f07e4a","1280","621","","1515","","{""Q0"":1}","[0]","complexity","media/stimuli/inanimate_012_right.png","inanimate","single","right","","","","","","","","","","","","","",""
"","","","","","survey-likert","95","261754","0.0-95.0","SS1678233171353","5e04f438afb8b0f5afa75f08","6406d7f26dd5b7fc1e3377bd","6407ce4a364ca27467f07e4a","1280","621","","1631","","{""Q0"":2}","[0]","complexity","media/stimuli/animate_003_right.png","animate","pair","right","","","","","","","","","","","","","",""
"","","","","","survey-likert","96","263340","0.0-96.0","SS1678233171353","5e04f438afb8b0f5afa75f08","6406d7f26dd5b7fc1e3377bd","6407ce4a364ca27467f07e4a","1280","621","","1578","","{""Q0"":1}","[0]","complexity","media/stimuli/animate_001_right.png","animate","single","right","","","","","","","","","","","","","",""
"","","","","","survey-likert","97","264942","0.0-97.0","SS1678233171353","5e04f438afb8b0f5afa75f08","6406d7f26dd5b7fc1e3377bd","6407ce4a364ca27467f07e4a","1280","621","","1594","","{""Q0"":1}","[0]","complexity","media/stimuli/animate_010_right.png","animate","single","right","","","","","","","","","","","","","",""
"","","","","","html-keyboard-response","98","265863","0.0-98.0","SS1678233171353","5e04f438afb8b0f5afa75f08","6406d7f26dd5b7fc1e3377bd","6407ce4a364ca27467f07e4a","1280","621","","914",""," ","","","","","","","","","","","","","","","","","","","",""
"","","","","","survey-likert","99","267581","0.0-99.0","SS1678233171353","5e04f438afb8b0f5afa75f08","6406d7f26dd5b7fc1e3377bd","6407ce4a364ca27467f07e4a","1280","621","","1713","","{""Q0"":2}","[0]","complexity","media/stimuli/inanimate_007_right.png","inanimate","pair","right","","","","","","","","","","","","","",""
"","","","","","survey-likert","100","268887","0.0-100.0","SS1678233171353","5e04f438afb8b0f5afa75f08","6406d7f26dd5b7fc1e3377bd","6407ce4a364ca27467f07e4a","1280","621","","1300","","{""Q0"":2}","[0]","complexity","media/stimuli/animate_006_right.png","animate","pair","right","","","","","","","","","","","","","",""
"","","","","","survey-likert","101","270966","0.0-101.0","SS1678233171353","5e04f438afb8b0f5afa75f08","6406d7f26dd5b7fc1e3377bd","6407ce4a364ca27467f07e4a","1280","621","","2071","","{""Q0"":1}","[0]","complexity","media/stimuli/inanimate_008_left.png","inanimate","single","left","","","","","","","","","","","","","",""
"","","","","","survey-likert","102","272628","0.0-102.0","SS1678233171353","5e04f438afb8b0f5afa75f08","6406d7f26dd5b7fc1e3377bd","6407ce4a364ca27467f07e4a","1280","621","","1654","","{""Q0"":2}","[0]","complexity","media/stimuli/animate_002_right.png","animate","pair","right","","","","","","","","","","","","","",""
"","","","","","survey-likert","103","274527","0.0-103.0","SS1678233171353","5e04f438afb8b0f5afa75f08","6406d7f26dd5b7fc1e3377bd","6407ce4a364ca27467f07e4a","1280","621","","1892","","{""Q0"":2}","[0]","complexity","media/stimuli/inanimate_009_left.png","inanimate","pair","left","","","","","","","","","","","","","",""
"","","","","","survey-likert","104","276241","0.0-104.0","SS1678233171353","5e04f438afb8b0f5afa75f08","6406d7f26dd5b7fc1e3377bd","6407ce4a364ca27467f07e4a","1280","621","","1704","","{""Q0"":2}","[0]","complexity","media/stimuli/inanimate_008_right.png","inanimate","pair","right","","","","","","","","","","","","","",""
"","","","","","survey-likert","105","277846","0.0-105.0","SS1678233171353","5e04f438afb8b0f5afa75f08","6406d7f26dd5b7fc1e3377bd","6407ce4a364ca27467f07e4a","1280","621","","1597","","{""Q0"":1}","[0]","complexity","media/stimuli/animate_005_right.png","animate","single","right","","","","","","","","","","","","","",""
"","","","","","survey-likert","106","279217","0.0-106.0","SS1678233171353","5e04f438afb8b0f5afa75f08","6406d7f26dd5b7fc1e3377bd","6407ce4a364ca27467f07e4a","1280","621","","1365","","{""Q0"":1}","[0]","complexity","media/stimuli/animate_011_left.png","animate","single","left","","","","","","","","","","","","","",""
"","","","","","survey-likert","107","280693","0.0-107.0","SS1678233171353","5e04f438afb8b0f5afa75f08","6406d7f26dd5b7fc1e3377bd","6407ce4a364ca27467f07e4a","1280","621","","1469","","{""Q0"":1}","[0]","complexity","media/stimuli/inanimate_005_left.png","inanimate","single","left","","","","","","","","","","","","","",""
"","","","","","survey-likert","108","282276","0.0-108.0","SS1678233171353","5e04f438afb8b0f5afa75f08","6406d7f26dd5b7fc1e3377bd","6407ce4a364ca27467f07e4a","1280","621","","1575","","{""Q0"":2}","[0]","complexity","media/stimuli/inanimate_002_right.png","inanimate","pair","right","","","","","","","","","","","","","",""
"","","","","","survey-likert","109","283749","0.0-109.0","SS1678233171353","5e04f438afb8b0f5afa75f08","6406d7f26dd5b7fc1e3377bd","6407ce4a364ca27467f07e4a","1280","621","","1464","","{""Q0"":1}","[0]","complexity","media/stimuli/inanimate_001_right.png","inanimate","single","right","","","","","","","","","","","","","",""
"","","","","","survey-likert","110","284969","0.0-110.0","SS1678233171353","5e04f438afb8b0f5afa75f08","6406d7f26dd5b7fc1e3377bd","6407ce4a364ca27467f07e4a","1280","621","","1213","","{""Q0"":2}","[0]","complexity","media/stimuli/inanimate_003_left.png","inanimate","pair","left","","","","","","","","","","","","","",""
"","","","","","html-keyboard-response","111","285912","0.0-111.0","SS1678233171353","5e04f438afb8b0f5afa75f08","6406d7f26dd5b7fc1e3377bd","6407ce4a364ca27467f07e4a","1280","621","","937",""," ","","","","","","","","","","","","","","","","","","","",""
"","","","","","survey-likert","112","287840","0.0-112.0","SS1678233171353","5e04f438afb8b0f5afa75f08","6406d7f26dd5b7fc1e3377bd","6407ce4a364ca27467f07e4a","1280","621","","1922","","{""Q0"":1}","[0]","complexity","media/stimuli/inanimate_011_right.png","inanimate","single","right","","","","","","","","","","","","","",""
"","","","","","survey-likert","113","289427","0.0-113.0","SS1678233171353","5e04f438afb8b0f5afa75f08","6406d7f26dd5b7fc1e3377bd","6407ce4a364ca27467f07e4a","1280","621","","1579","","{""Q0"":2}","[0]","complexity","media/stimuli/animate_011_right.png","animate","pair","right","","","","","","","","","","","","","",""
"","","","","","survey-likert","114","290813","0.0-114.0","SS1678233171353","5e04f438afb8b0f5afa75f08","6406d7f26dd5b7fc1e3377bd","6407ce4a364ca27467f07e4a","1280","621","","1377","","{""Q0"":1}","[0]","complexity","media/stimuli/inanimate_002_left.png","inanimate","single","left","","","","","","","","","","","","","",""
"","","","","","survey-likert","115","292325","0.0-115.0","SS1678233171353","5e04f438afb8b0f5afa75f08","6406d7f26dd5b7fc1e3377bd","6407ce4a364ca27467f07e4a","1280","621","","1503","","{""Q0"":1}","[0]","complexity","media/stimuli/animate_003_right.png","animate","single","right","","","","","","","","","","","","","",""
"","","","","","survey-likert","116","293973","0.0-116.0","SS1678233171353","5e04f438afb8b0f5afa75f08","6406d7f26dd5b7fc1e3377bd","6407ce4a364ca27467f07e4a","1280","621","","1640","","{""Q0"":1}","[0]","complexity","media/stimuli/animate_002_right.png","animate","single","right","","","","","","","","","","","","","",""
"","","","","","survey-likert","117","295448","0.0-117.0","SS1678233171353","5e04f438afb8b0f5afa75f08","6406d7f26dd5b7fc1e3377bd","6407ce4a364ca27467f07e4a","1280","621","","1467","","{""Q0"":1}","[0]","complexity","media/stimuli/animate_009_right.png","animate","single","right","","","","","","","","","","","","","",""
"","","","","","survey-likert","118","296870","0.0-118.0","SS1678233171353","5e04f438afb8b0f5afa75f08","6406d7f26dd5b7fc1e3377bd","6407ce4a364ca27467f07e4a","1280","621","","1412","","{""Q0"":1}","[0]","complexity","media/stimuli/animate_003_left.png","animate","single","left","","","","","","","","","","","","","",""
"","","","","","survey-likert","119","298480","0.0-119.0","SS1678233171353","5e04f438afb8b0f5afa75f08","6406d7f26dd5b7fc1e3377bd","6407ce4a364ca27467f07e4a","1280","621","","1601","","{""Q0"":2}","[0]","complexity","media/stimuli/animate_010_right.png","animate","pair","right","","","","","","","","","","","","","",""
"","","","","","survey-likert","120","300011","0.0-120.0","SS1678233171353","5e04f438afb8b0f5afa75f08","6406d7f26dd5b7fc1e3377bd","6407ce4a364ca27467f07e4a","1280","621","","1523","","{""Q0"":2}","[0]","complexity","media/stimuli/inanimate_012_left.png","inanimate","pair","left","","","","","","","","","","","","","",""
"","","","","","survey-likert","121","301489","0.0-121.0","SS1678233171353","5e04f438afb8b0f5afa75f08","6406d7f26dd5b7fc1e3377bd","6407ce4a364ca27467f07e4a","1280","621","","1469","","{""Q0"":1}","[0]","complexity","media/stimuli/inanimate_011_left.png","inanimate","single","left","","","","","","","","","","","","","",""
"","","","","","survey-likert","122","302843","0.0-122.0","SS1678233171353","5e04f438afb8b0f5afa75f08","6406d7f26dd5b7fc1e3377bd","6407ce4a364ca27467f07e4a","1280","621","","1346","","{""Q0"":2}","[0]","complexity","media/stimuli/animate_005_right.png","animate","pair","right","","","","","","","","","","","","","",""
"","","","","","survey-likert","123","304749","0.0-123.0","SS1678233171353","5e04f438afb8b0f5afa75f08","6406d7f26dd5b7fc1e3377bd","6407ce4a364ca27467f07e4a","1280","621","","1898","","{""Q0"":1}","[0]","complexity","media/stimuli/animate_001_left.png","animate","single","left","","","","","","","","","","","","","",""
