"success","timeout","failed_images","failed_audio","failed_video","trial_type","trial_index","time_elapsed","internal_node_id","subject","prolific_id","study","session","window_width","window_height","view_history","rt","stimulus_type","response","question_order","rating_type","rating_stimulus","rating_animacy","rating_number","rating_pose","stimulus","target","target_animacy","target_pose","target_number","left","left_animacy","left_pose","left_number","right","right_animacy","right_pose","right_number","comparison_type"
"true","false","[]","[]","[]","preload","0","3167","0.0-0.0","SS1678233219900","63ebb210456ad684e3fe6ded","6406d7f26dd5b7fc1e3377bd","6407ce7e6be4326bb307add7","1920","969","","","","","","","","","","","","","","","","","","","","","","","",""
"","","","","","instructions","1","6303","0.0-1.0","SS1678233219900","63ebb210456ad684e3fe6ded","6406d7f26dd5b7fc1e3377bd","6407ce7e6be4326bb307add7","1920","969","[{""page_index"":0,""viewing_time"":3134}]","3134","","","","","","","","","","","","","","","","","","","","","",""
"","","","","","instructions","2","17999","0.0-2.0","SS1678233219900","63ebb210456ad684e3fe6ded","6406d7f26dd5b7fc1e3377bd","6407ce7e6be4326bb307add7","1920","969","[{""page_index"":0,""viewing_time"":9687}]","9688","instructions","","","","","","","","","","","","","","","","","","","","",""
"","","","","","instructions","3","20505","0.0-3.0","SS1678233219900","63ebb210456ad684e3fe6ded","6406d7f26dd5b7fc1e3377bd","6407ce7e6be4326bb307add7","1920","969","[{""page_index"":0,""viewing_time"":2505}]","2506","instructions","","","","","","","","","","","","","","","","","","","","",""
"","","","","","survey-likert","4","34267","0.0-4.0","SS1678233219900","63ebb210456ad684e3fe6ded","6406d7f26dd5b7fc1e3377bd","6407ce7e6be4326bb307add7","1920","969","","13761","","{""Q0"":1}","[0]","anchoring","","","","","","","","","","","","","","","","","",""
"","","","","","survey-likert","5","37689","0.0-5.0","SS1678233219900","63ebb210456ad684e3fe6ded","6406d7f26dd5b7fc1e3377bd","6407ce7e6be4326bb307add7","1920","969","","3419","","{""Q0"":1}","[0]","anchoring","","","","","","","","","","","","","","","","","",""
"","","","","","instructions","6","38744","0.0-6.0","SS1678233219900","63ebb210456ad684e3fe6ded","6406d7f26dd5b7fc1e3377bd","6407ce7e6be4326bb307add7","1920","969","[{""page_index"":0,""viewing_time"":1052}]","1052","instructions","","","","","","","","","","","","","","","","","","","","",""
"true","","","","","fullscreen","7","41628","0.0-7.0","SS1678233219900","63ebb210456ad684e3fe6ded","6406d7f26dd5b7fc1e3377bd","6407ce7e6be4326bb307add7","1920","969","","","","","","","","","","","","","","","","","","","","","","","",""
"","","","","","survey-likert","8","45289","0.0-8.0","SS1678233219900","63ebb210456ad684e3fe6ded","6406d7f26dd5b7fc1e3377bd","6407ce7e6be4326bb307add7","1920","969","","3660","","{""Q0"":1}","[0]","complexity","media/stimuli/animate_001_left.png","animate","single","left","","","","","","","","","","","","","",""
"","","","","","survey-likert","9","50773","0.0-9.0","SS1678233219900","63ebb210456ad684e3fe6ded","6406d7f26dd5b7fc1e3377bd","6407ce7e6be4326bb307add7","1920","969","","5480","","{""Q0"":1}","[0]","complexity","media/stimuli/animate_002_left.png","animate","pair","left","","","","","","","","","","","","","",""
"","","","","","survey-likert","10","53669","0.0-10.0","SS1678233219900","63ebb210456ad684e3fe6ded","6406d7f26dd5b7fc1e3377bd","6407ce7e6be4326bb307add7","1920","969","","2894","","{""Q0"":2}","[0]","complexity","media/stimuli/inanimate_002_left.png","inanimate","pair","left","","","","","","","","","","","","","",""
"","","","","","survey-likert","11","56491","0.0-11.0","SS1678233219900","63ebb210456ad684e3fe6ded","6406d7f26dd5b7fc1e3377bd","6407ce7e6be4326bb307add7","1920","969","","2818","","{""Q0"":2}","[0]","complexity","media/stimuli/inanimate_004_right.png","inanimate","single","right","","","","","","","","","","","","","",""
"","","","","","survey-likert","12","59955","0.0-12.0","SS1678233219900","63ebb210456ad684e3fe6ded","6406d7f26dd5b7fc1e3377bd","6407ce7e6be4326bb307add7","1920","969","","3461","","{""Q0"":2}","[0]","complexity","media/stimuli/animate_005_right.png","animate","pair","right","","","","","","","","","","","","","",""
"","","","","","survey-likert","13","62549","0.0-13.0","SS1678233219900","63ebb210456ad684e3fe6ded","6406d7f26dd5b7fc1e3377bd","6407ce7e6be4326bb307add7","1920","969","","2591","","{""Q0"":2}","[0]","complexity","media/stimuli/inanimate_002_right.png","inanimate","single","right","","","","","","","","","","","","","",""
"","","","","","survey-likert","14","65776","0.0-14.0","SS1678233219900","63ebb210456ad684e3fe6ded","6406d7f26dd5b7fc1e3377bd","6407ce7e6be4326bb307add7","1920","969","","3224","","{""Q0"":2}","[0]","complexity","media/stimuli/inanimate_010_left.png","inanimate","single","left","","","","","","","","","","","","","",""
"","","","","","survey-likert","15","68007","0.0-15.0","SS1678233219900","63ebb210456ad684e3fe6ded","6406d7f26dd5b7fc1e3377bd","6407ce7e6be4326bb307add7","1920","969","","2228","","{""Q0"":2}","[0]","complexity","media/stimuli/inanimate_012_right.png","inanimate","pair","right","","","","","","","","","","","","","",""
"","","","","","survey-likert","16","70618","0.0-16.0","SS1678233219900","63ebb210456ad684e3fe6ded","6406d7f26dd5b7fc1e3377bd","6407ce7e6be4326bb307add7","1920","969","","2607","","{""Q0"":2}","[0]","complexity","media/stimuli/inanimate_001_right.png","inanimate","pair","right","","","","","","","","","","","","","",""
"","","","","","survey-likert","17","73092","0.0-17.0","SS1678233219900","63ebb210456ad684e3fe6ded","6406d7f26dd5b7fc1e3377bd","6407ce7e6be4326bb307add7","1920","969","","2471","","{""Q0"":2}","[0]","complexity","media/stimuli/animate_010_left.png","animate","single","left","","","","","","","","","","","","","",""
"","","","","","survey-likert","18","75166","0.0-18.0","SS1678233219900","63ebb210456ad684e3fe6ded","6406d7f26dd5b7fc1e3377bd","6407ce7e6be4326bb307add7","1920","969","","2071","","{""Q0"":2}","[0]","complexity","media/stimuli/inanimate_005_left.png","inanimate","pair","left","","","","","","","","","","","","","",""
"","","","","","survey-likert","19","77208","0.0-19.0","SS1678233219900","63ebb210456ad684e3fe6ded","6406d7f26dd5b7fc1e3377bd","6407ce7e6be4326bb307add7","1920","969","","2039","","{""Q0"":2}","[0]","complexity","media/stimuli/inanimate_011_left.png","inanimate","pair","left","","","","","","","","","","","","","",""
"","","","","","html-keyboard-response","20","79432","0.0-20.0","SS1678233219900","63ebb210456ad684e3fe6ded","6406d7f26dd5b7fc1e3377bd","6407ce7e6be4326bb307add7","1920","969","","2221","","n","","","","","","","","","","","","","","","","","","","",""
"","","","","","survey-likert","21","84237","0.0-21.0","SS1678233219900","63ebb210456ad684e3fe6ded","6406d7f26dd5b7fc1e3377bd","6407ce7e6be4326bb307add7","1920","969","","4804","","{""Q0"":2}","[0]","complexity","media/stimuli/animate_009_left.png","animate","pair","left","","","","","","","","","","","","","",""
"","","","","","survey-likert","22","85877","0.0-22.0","SS1678233219900","63ebb210456ad684e3fe6ded","6406d7f26dd5b7fc1e3377bd","6407ce7e6be4326bb307add7","1920","969","","1637","","{""Q0"":2}","[0]","complexity","media/stimuli/animate_008_right.png","animate","pair","right","","","","","","","","","","","","","",""
"","","","","","survey-likert","23","87865","0.0-23.0","SS1678233219900","63ebb210456ad684e3fe6ded","6406d7f26dd5b7fc1e3377bd","6407ce7e6be4326bb307add7","1920","969","","1985","","{""Q0"":2}","[0]","complexity","media/stimuli/animate_006_left.png","animate","pair","left","","","","","","","","","","","","","",""
"","","","","","survey-likert","24","89489","0.0-24.0","SS1678233219900","63ebb210456ad684e3fe6ded","6406d7f26dd5b7fc1e3377bd","6407ce7e6be4326bb307add7","1920","969","","1621","","{""Q0"":2}","[0]","complexity","media/stimuli/inanimate_011_right.png","inanimate","single","right","","","","","","","","","","","","","",""
"","","","","","survey-likert","25","91150","0.0-25.0","SS1678233219900","63ebb210456ad684e3fe6ded","6406d7f26dd5b7fc1e3377bd","6407ce7e6be4326bb307add7","1920","969","","1658","","{""Q0"":2}","[0]","complexity","media/stimuli/inanimate_007_left.png","inanimate","single","left","","","","","","","","","","","","","",""
"","","","","","survey-likert","26","92505","0.0-26.0","SS1678233219900","63ebb210456ad684e3fe6ded","6406d7f26dd5b7fc1e3377bd","6407ce7e6be4326bb307add7","1920","969","","1352","","{""Q0"":2}","[0]","complexity","media/stimuli/inanimate_001_left.png","inanimate","single","left","","","","","","","","","","","","","",""
"","","","","","survey-likert","27","93904","0.0-27.0","SS1678233219900","63ebb210456ad684e3fe6ded","6406d7f26dd5b7fc1e3377bd","6407ce7e6be4326bb307add7","1920","969","","1396","","{""Q0"":2}","[0]","complexity","media/stimuli/animate_002_right.png","animate","single","right","","","","","","","","","","","","","",""
"","","","","","survey-likert","28","95315","0.0-28.0","SS1678233219900","63ebb210456ad684e3fe6ded","6406d7f26dd5b7fc1e3377bd","6407ce7e6be4326bb307add7","1920","969","","1408","","{""Q0"":2}","[0]","complexity","media/stimuli/animate_010_right.png","animate","single","right","","","","","","","","","","","","","",""
"","","","","","survey-likert","29","96672","0.0-29.0","SS1678233219900","63ebb210456ad684e3fe6ded","6406d7f26dd5b7fc1e3377bd","6407ce7e6be4326bb307add7","1920","969","","1353","","{""Q0"":2}","[0]","complexity","media/stimuli/animate_006_right.png","animate","single","right","","","","","","","","","","","","","",""
"","","","","","survey-likert","30","97909","0.0-30.0","SS1678233219900","63ebb210456ad684e3fe6ded","6406d7f26dd5b7fc1e3377bd","6407ce7e6be4326bb307add7","1920","969","","1233","","{""Q0"":2}","[0]","complexity","media/stimuli/inanimate_007_right.png","inanimate","single","right","","","","","","","","","","","","","",""
"","","","","","survey-likert","31","99254","0.0-31.0","SS1678233219900","63ebb210456ad684e3fe6ded","6406d7f26dd5b7fc1e3377bd","6407ce7e6be4326bb307add7","1920","969","","1342","","{""Q0"":2}","[0]","complexity","media/stimuli/animate_005_left.png","animate","single","left","","","","","","","","","","","","","",""
"","","","","","survey-likert","32","100389","0.0-32.0","SS1678233219900","63ebb210456ad684e3fe6ded","6406d7f26dd5b7fc1e3377bd","6407ce7e6be4326bb307add7","1920","969","","1131","","{""Q0"":2}","[0]","complexity","media/stimuli/animate_005_left.png","animate","pair","left","","","","","","","","","","","","","",""
"","","","","","html-keyboard-response","33","102155","0.0-33.0","SS1678233219900","63ebb210456ad684e3fe6ded","6406d7f26dd5b7fc1e3377bd","6407ce7e6be4326bb307add7","1920","969","","1764","","k","","","","","","","","","","","","","","","","","","","",""
"","","","","","html-keyboard-response","34","160655","0.0-34.0","SS1678233219900","63ebb210456ad684e3fe6ded","6406d7f26dd5b7fc1e3377bd","6407ce7e6be4326bb307add7","1920","969","","58499","","f","","","","","","","<img src=""media/stimuli/inanimate_004_left.png"" class=""coveredImage test"" style = ""width:100px; height:100px; position:fixed; top:10%;    transform: translate(-50%, -50%);left:44.5%""></img><img src=""media/stimuli/inanimate_004_left.png"" class=""coveredImage test"" style = ""width:100px; height:100px; position:fixed; top:10%;    transform: translate(-50%, -50%);left:51.5%""></img><img src=""media/stimuli/inanimate_004_left.png"" class=""coveredImage test"" style = ""width:100px; height:100px;position:fixed; top:25%;        transform: translate(-50%, -50%);left:38%""></img><img src=""media/stimuli/inanimate_004_right.png"" class=""coveredImage test"" style = ""width:100px; height:100px;position:fixed; top:25%;        transform: translate(-50%, -50%);left:54.5%""></img><img src=""media/stimuli/inanimate_004_right.png"" class=""coveredImage test"" style = ""width:100px; height:100px;position:fixed; top:25%;        transform: translate(-50%, -50%);left:61.5%""></img><img src=""media/f.png""style = ""width:30px x; height:30px;position:fixed; top:43%;    transform: translate(-50%, -50%);left:40%""></img><img src=""media/j.png""style = ""width:30px; height:30px;position:fixed; top:43%;    transform: translate(-50%, -50%);left:60%""></img>","media/stimuli/inanimate_004_left.png","inanimate","left","pair","media/stimuli/inanimate_004_left.png","inanimate","left","single","media/stimuli/inanimate_004_right.png","inanimate","right","pair","number_pose"
"","","","","","html-keyboard-response","35","166949","0.0-35.0","SS1678233219900","63ebb210456ad684e3fe6ded","6406d7f26dd5b7fc1e3377bd","6407ce7e6be4326bb307add7","1920","969","","6293","","f","","","","","","","<img src=""media/stimuli/animate_011_right.png"" class=""coveredImage test"" style = ""width:100px; height:100px; position:fixed; top:10%;    transform: translate(-50%, -50%);left:48%""></img><img src=""media/stimuli/animate_011_left.png"" class=""coveredImage test"" style = ""width:100px; height:100px;position:fixed; top:25%;        transform: translate(-50%, -50%);left:38%""></img><img src=""media/stimuli/inanimate_007_right.png"" class=""coveredImage test"" style = ""width:100px; height:100px;position:fixed; top:25%;        transform: translate(-50%, -50%);left:58%""></img><img src=""media/f.png""style = ""width:30px x; height:30px;position:fixed; top:43%;    transform: translate(-50%, -50%);left:40%""></img><img src=""media/j.png""style = ""width:30px; height:30px;position:fixed; top:43%;    transform: translate(-50%, -50%);left:60%""></img>","media/stimuli/animate_011_right.png","animate","right","single","media/stimuli/animate_011_left.png","animate","left","single","media/stimuli/inanimate_007_right.png","inanimate","right","single","pose_animacy"
"","","","","","html-keyboard-response","36","169350","0.0-36.0","SS1678233219900","63ebb210456ad684e3fe6ded","6406d7f26dd5b7fc1e3377bd","6407ce7e6be4326bb307add7","1920","969","","2399","","j","","","","","","","<img src=""media/stimuli/inanimate_001_right.png"" class=""coveredImage test"" style = ""width:100px; height:100px; position:fixed; top:10%;    transform: translate(-50%, -50%);left:44.5%""></img><img src=""media/stimuli/inanimate_001_right.png"" class=""coveredImage test"" style = ""width:100px; height:100px; position:fixed; top:10%;    transform: translate(-50%, -50%);left:51.5%""></img><img src=""media/stimuli/inanimate_001_left.png"" class=""coveredImage test"" style = ""width:100px; height:100px;position:fixed; top:25%;        transform: translate(-50%, -50%);left:34.5%""></img><img src=""media/stimuli/inanimate_001_left.png"" class=""coveredImage test"" style = ""width:100px; height:100px;position:fixed; top:25%;        transform: translate(-50%, -50%);left:41.5%""></img><img src=""media/stimuli/inanimate_001_right.png"" class=""coveredImage test"" style = ""width:100px; height:100px;position:fixed; top:25%;        transform: translate(-50%, -50%);left:58%""></img><img src=""media/f.png""style = ""width:30px x; height:30px;position:fixed; top:43%;    transform: translate(-50%, -50%);left:40%""></img><img src=""media/j.png""style = ""width:30px; height:30px;position:fixed; top:43%;    transform: translate(-50%, -50%);left:60%""></img>","media/stimuli/inanimate_001_right.png","inanimate","right","pair","media/stimuli/inanimate_001_left.png","inanimate","left","pair","media/stimuli/inanimate_001_right.png","inanimate","right","single","pose_number"
"","","","","","html-keyboard-response","37","171139","0.0-37.0","SS1678233219900","63ebb210456ad684e3fe6ded","6406d7f26dd5b7fc1e3377bd","6407ce7e6be4326bb307add7","1920","969","","1788","","j","","","","","","","<img src=""media/stimuli/inanimate_002_left.png"" class=""coveredImage test"" style = ""width:100px; height:100px; position:fixed; top:10%;    transform: translate(-50%, -50%);left:44.5%""></img><img src=""media/stimuli/inanimate_002_left.png"" class=""coveredImage test"" style = ""width:100px; height:100px; position:fixed; top:10%;    transform: translate(-50%, -50%);left:51.5%""></img><img src=""media/stimuli/inanimate_010_left.png"" class=""coveredImage test"" style = ""width:100px; height:100px;position:fixed; top:25%;        transform: translate(-50%, -50%);left:34.5%""></img><img src=""media/stimuli/inanimate_010_left.png"" class=""coveredImage test"" style = ""width:100px; height:100px;position:fixed; top:25%;        transform: translate(-50%, -50%);left:41.5%""></img><img src=""media/stimuli/inanimate_002_left.png"" class=""coveredImage test"" style = ""width:100px; height:100px;position:fixed; top:25%;        transform: translate(-50%, -50%);left:58%""></img><img src=""media/f.png""style = ""width:30px x; height:30px;position:fixed; top:43%;    transform: translate(-50%, -50%);left:40%""></img><img src=""media/j.png""style = ""width:30px; height:30px;position:fixed; top:43%;    transform: translate(-50%, -50%);left:60%""></img>","media/stimuli/inanimate_002_left.png","inanimate","left","pair","media/stimuli/inanimate_010_left.png","inanimate","left","pair","media/stimuli/inanimate_002_left.png","inanimate","left","single","identity_number"
"","","","","","html-keyboard-response","38","172967","0.0-38.0","SS1678233219900","63ebb210456ad684e3fe6ded","6406d7f26dd5b7fc1e3377bd","6407ce7e6be4326bb307add7","1920","969","","1826","","f","","","","","","","<img src=""media/stimuli/inanimate_006_left.png"" class=""coveredImage test"" style = ""width:100px; height:100px; position:fixed; top:10%;    transform: translate(-50%, -50%);left:48%""></img><img src=""media/stimuli/inanimate_006_left.png"" class=""coveredImage test"" style = ""width:100px; height:100px;position:fixed; top:25%;        transform: translate(-50%, -50%);left:34.5%""></img><img src=""media/stimuli/inanimate_006_left.png"" class=""coveredImage test"" style = ""width:100px; height:100px;position:fixed; top:25%;        transform: translate(-50%, -50%);left:41.5%""></img><img src=""media/stimuli/animate_009_right.png"" class=""coveredImage test"" style = ""width:100px; height:100px;position:fixed; top:25%;        transform: translate(-50%, -50%);left:54.5%""></img><img src=""media/stimuli/animate_009_right.png"" class=""coveredImage test"" style = ""width:100px; height:100px;position:fixed; top:25%;        transform: translate(-50%, -50%);left:61.5%""></img><img src=""media/f.png""style = ""width:30px x; height:30px;position:fixed; top:43%;    transform: translate(-50%, -50%);left:40%""></img><img src=""media/j.png""style = ""width:30px; height:30px;position:fixed; top:43%;    transform: translate(-50%, -50%);left:60%""></img>","media/stimuli/inanimate_006_left.png","inanimate","left","single","media/stimuli/inanimate_006_left.png","inanimate","left","pair","media/stimuli/animate_009_right.png","animate","right","pair","pose_animacy"
"","","","","","html-keyboard-response","39","174751","0.0-39.0","SS1678233219900","63ebb210456ad684e3fe6ded","6406d7f26dd5b7fc1e3377bd","6407ce7e6be4326bb307add7","1920","969","","1782","","j","","","","","","","<img src=""media/stimuli/inanimate_001_left.png"" class=""coveredImage test"" style = ""width:100px; height:100px; position:fixed; top:10%;    transform: translate(-50%, -50%);left:44.5%""></img><img src=""media/stimuli/inanimate_001_left.png"" class=""coveredImage test"" style = ""width:100px; height:100px; position:fixed; top:10%;    transform: translate(-50%, -50%);left:51.5%""></img><img src=""media/stimuli/animate_008_left.png"" class=""coveredImage test"" style = ""width:100px; height:100px;position:fixed; top:25%;        transform: translate(-50%, -50%);left:34.5%""></img><img src=""media/stimuli/animate_008_left.png"" class=""coveredImage test"" style = ""width:100px; height:100px;position:fixed; top:25%;        transform: translate(-50%, -50%);left:41.5%""></img><img src=""media/stimuli/inanimate_001_right.png"" class=""coveredImage test"" style = ""width:100px; height:100px;position:fixed; top:25%;        transform: translate(-50%, -50%);left:54.5%""></img><img src=""media/stimuli/inanimate_001_right.png"" class=""coveredImage test"" style = ""width:100px; height:100px;position:fixed; top:25%;        transform: translate(-50%, -50%);left:61.5%""></img><img src=""media/f.png""style = ""width:30px x; height:30px;position:fixed; top:43%;    transform: translate(-50%, -50%);left:40%""></img><img src=""media/j.png""style = ""width:30px; height:30px;position:fixed; top:43%;    transform: translate(-50%, -50%);left:60%""></img>","media/stimuli/inanimate_001_left.png","inanimate","left","pair","media/stimuli/animate_008_left.png","animate","left","pair","media/stimuli/inanimate_001_right.png","inanimate","right","pair","animacy_pose"
"","","","","","html-keyboard-response","40","176492","0.0-40.0","SS1678233219900","63ebb210456ad684e3fe6ded","6406d7f26dd5b7fc1e3377bd","6407ce7e6be4326bb307add7","1920","969","","1739","","j","","","","","","","<img src=""media/stimuli/inanimate_002_left.png"" class=""coveredImage test"" style = ""width:100px; height:100px; position:fixed; top:10%;    transform: translate(-50%, -50%);left:48%""></img><img src=""media/stimuli/animate_001_left.png"" class=""coveredImage test"" style = ""width:100px; height:100px;position:fixed; top:25%;        transform: translate(-50%, -50%);left:38%""></img><img src=""media/stimuli/inanimate_002_left.png"" class=""coveredImage test"" style = ""width:100px; height:100px;position:fixed; top:25%;        transform: translate(-50%, -50%);left:54.5%""></img><img src=""media/stimuli/inanimate_002_left.png"" class=""coveredImage test"" style = ""width:100px; height:100px;position:fixed; top:25%;        transform: translate(-50%, -50%);left:61.5%""></img><img src=""media/f.png""style = ""width:30px x; height:30px;position:fixed; top:43%;    transform: translate(-50%, -50%);left:40%""></img><img src=""media/j.png""style = ""width:30px; height:30px;position:fixed; top:43%;    transform: translate(-50%, -50%);left:60%""></img>","media/stimuli/inanimate_002_left.png","inanimate","left","single","media/stimuli/animate_001_left.png","animate","left","single","media/stimuli/inanimate_002_left.png","inanimate","left","pair","animacy_number"
"","","","","","html-keyboard-response","41","178184","0.0-41.0","SS1678233219900","63ebb210456ad684e3fe6ded","6406d7f26dd5b7fc1e3377bd","6407ce7e6be4326bb307add7","1920","969","","1690","","j","","","","","","","<img src=""media/stimuli/inanimate_008_right.png"" class=""coveredImage test"" style = ""width:100px; height:100px; position:fixed; top:10%;    transform: translate(-50%, -50%);left:48%""></img><img src=""media/stimuli/animate_004_right.png"" class=""coveredImage test"" style = ""width:100px; height:100px;position:fixed; top:25%;        transform: translate(-50%, -50%);left:38%""></img><img src=""media/stimuli/inanimate_008_left.png"" class=""coveredImage test"" style = ""width:100px; height:100px;position:fixed; top:25%;        transform: translate(-50%, -50%);left:58%""></img><img src=""media/f.png""style = ""width:30px x; height:30px;position:fixed; top:43%;    transform: translate(-50%, -50%);left:40%""></img><img src=""media/j.png""style = ""width:30px; height:30px;position:fixed; top:43%;    transform: translate(-50%, -50%);left:60%""></img>","media/stimuli/inanimate_008_right.png","inanimate","right","single","media/stimuli/animate_004_right.png","animate","right","single","media/stimuli/inanimate_008_left.png","inanimate","left","single","animacy_pose"
"","","","","","html-keyboard-response","42","179056","0.0-42.0","SS1678233219900","63ebb210456ad684e3fe6ded","6406d7f26dd5b7fc1e3377bd","6407ce7e6be4326bb307add7","1920","969","","871","","j","","","","","","","<img src=""media/stimuli/inanimate_002_left.png"" class=""coveredImage test"" style = ""width:100px; height:100px; position:fixed; top:10%;    transform: translate(-50%, -50%);left:48%""></img><img src=""media/stimuli/animate_006_left.png"" class=""coveredImage test"" style = ""width:100px; height:100px;position:fixed; top:25%;        transform: translate(-50%, -50%);left:38%""></img><img src=""media/stimuli/inanimate_002_left.png"" class=""coveredImage test"" style = ""width:100px; height:100px;position:fixed; top:25%;        transform: translate(-50%, -50%);left:54.5%""></img><img src=""media/stimuli/inanimate_002_left.png"" class=""coveredImage test"" style = ""width:100px; height:100px;position:fixed; top:25%;        transform: translate(-50%, -50%);left:61.5%""></img><img src=""media/f.png""style = ""width:30px x; height:30px;position:fixed; top:43%;    transform: translate(-50%, -50%);left:40%""></img><img src=""media/j.png""style = ""width:30px; height:30px;position:fixed; top:43%;    transform: translate(-50%, -50%);left:60%""></img>","media/stimuli/inanimate_002_left.png","inanimate","left","single","media/stimuli/animate_006_left.png","animate","left","single","media/stimuli/inanimate_002_left.png","inanimate","left","pair","animacy_number"
"","","","","","html-keyboard-response","43","180127","0.0-43.0","SS1678233219900","63ebb210456ad684e3fe6ded","6406d7f26dd5b7fc1e3377bd","6407ce7e6be4326bb307add7","1920","969","","1070","","f","","","","","","","<img src=""media/stimuli/animate_001_right.png"" class=""coveredImage test"" style = ""width:100px; height:100px; position:fixed; top:10%;    transform: translate(-50%, -50%);left:48%""></img><img src=""media/stimuli/animate_001_right.png"" class=""coveredImage test"" style = ""width:100px; height:100px;position:fixed; top:25%;        transform: translate(-50%, -50%);left:34.5%""></img><img src=""media/stimuli/animate_001_right.png"" class=""coveredImage test"" style = ""width:100px; height:100px;position:fixed; top:25%;        transform: translate(-50%, -50%);left:41.5%""></img><img src=""media/stimuli/inanimate_001_right.png"" class=""coveredImage test"" style = ""width:100px; height:100px;position:fixed; top:25%;        transform: translate(-50%, -50%);left:58%""></img><img src=""media/f.png""style = ""width:30px x; height:30px;position:fixed; top:43%;    transform: translate(-50%, -50%);left:40%""></img><img src=""media/j.png""style = ""width:30px; height:30px;position:fixed; top:43%;    transform: translate(-50%, -50%);left:60%""></img>","media/stimuli/animate_001_right.png","animate","right","single","media/stimuli/animate_001_right.png","animate","right","pair","media/stimuli/inanimate_001_right.png","inanimate","right","single","number_animacy"
"","","","","","html-keyboard-response","44","181074","0.0-44.0","SS1678233219900","63ebb210456ad684e3fe6ded","6406d7f26dd5b7fc1e3377bd","6407ce7e6be4326bb307add7","1920","969","","946","","f","","","","","","","<img src=""media/stimuli/inanimate_008_right.png"" class=""coveredImage test"" style = ""width:100px; height:100px; position:fixed; top:10%;    transform: translate(-50%, -50%);left:48%""></img><img src=""media/stimuli/inanimate_008_left.png"" class=""coveredImage test"" style = ""width:100px; height:100px;position:fixed; top:25%;        transform: translate(-50%, -50%);left:38%""></img><img src=""media/stimuli/animate_003_right.png"" class=""coveredImage test"" style = ""width:100px; height:100px;position:fixed; top:25%;        transform: translate(-50%, -50%);left:58%""></img><img src=""media/f.png""style = ""width:30px x; height:30px;position:fixed; top:43%;    transform: translate(-50%, -50%);left:40%""></img><img src=""media/j.png""style = ""width:30px; height:30px;position:fixed; top:43%;    transform: translate(-50%, -50%);left:60%""></img>","media/stimuli/inanimate_008_right.png","inanimate","right","single","media/stimuli/inanimate_008_left.png","inanimate","left","single","media/stimuli/animate_003_right.png","animate","right","single","pose_animacy"
"","","","","","html-keyboard-response","45","183370","0.0-45.0","SS1678233219900","63ebb210456ad684e3fe6ded","6406d7f26dd5b7fc1e3377bd","6407ce7e6be4326bb307add7","1920","969","","2295","","j","","","","","","","<img src=""media/stimuli/inanimate_012_left.png"" class=""coveredImage test"" style = ""width:100px; height:100px; position:fixed; top:10%;    transform: translate(-50%, -50%);left:48%""></img><img src=""media/stimuli/inanimate_001_left.png"" class=""coveredImage test"" style = ""width:100px; height:100px;position:fixed; top:25%;        transform: translate(-50%, -50%);left:38%""></img><img src=""media/stimuli/inanimate_012_left.png"" class=""coveredImage test"" style = ""width:100px; height:100px;position:fixed; top:25%;        transform: translate(-50%, -50%);left:54.5%""></img><img src=""media/stimuli/inanimate_012_left.png"" class=""coveredImage test"" style = ""width:100px; height:100px;position:fixed; top:25%;        transform: translate(-50%, -50%);left:61.5%""></img><img src=""media/f.png""style = ""width:30px x; height:30px;position:fixed; top:43%;    transform: translate(-50%, -50%);left:40%""></img><img src=""media/j.png""style = ""width:30px; height:30px;position:fixed; top:43%;    transform: translate(-50%, -50%);left:60%""></img>","media/stimuli/inanimate_012_left.png","inanimate","left","single","media/stimuli/inanimate_001_left.png","inanimate","left","single","media/stimuli/inanimate_012_left.png","inanimate","left","pair","identity_number"
"","","","","","html-keyboard-response","46","184347","0.0-46.0","SS1678233219900","63ebb210456ad684e3fe6ded","6406d7f26dd5b7fc1e3377bd","6407ce7e6be4326bb307add7","1920","969","","976",""," ","","","","","","","","","","","","","","","","","","","",""
"","","","","","html-keyboard-response","47","186067","0.0-47.0","SS1678233219900","63ebb210456ad684e3fe6ded","6406d7f26dd5b7fc1e3377bd","6407ce7e6be4326bb307add7","1920","969","","1718","","j","","","","","","","<img src=""media/stimuli/animate_012_left.png"" class=""coveredImage test"" style = ""width:100px; height:100px; position:fixed; top:10%;    transform: translate(-50%, -50%);left:44.5%""></img><img src=""media/stimuli/animate_012_left.png"" class=""coveredImage test"" style = ""width:100px; height:100px; position:fixed; top:10%;    transform: translate(-50%, -50%);left:51.5%""></img><img src=""media/stimuli/inanimate_003_left.png"" class=""coveredImage test"" style = ""width:100px; height:100px;position:fixed; top:25%;        transform: translate(-50%, -50%);left:38%""></img><img src=""media/stimuli/animate_012_right.png"" class=""coveredImage test"" style = ""width:100px; height:100px;position:fixed; top:25%;        transform: translate(-50%, -50%);left:58%""></img><img src=""media/f.png""style = ""width:30px x; height:30px;position:fixed; top:43%;    transform: translate(-50%, -50%);left:40%""></img><img src=""media/j.png""style = ""width:30px; height:30px;position:fixed; top:43%;    transform: translate(-50%, -50%);left:60%""></img>","media/stimuli/animate_012_left.png","animate","left","pair","media/stimuli/inanimate_003_left.png","inanimate","left","single","media/stimuli/animate_012_right.png","animate","right","single","animacy_pose"
"","","","","","html-keyboard-response","48","188342","0.0-48.0","SS1678233219900","63ebb210456ad684e3fe6ded","6406d7f26dd5b7fc1e3377bd","6407ce7e6be4326bb307add7","1920","969","","2274","","f","","","","","","","<img src=""media/stimuli/animate_010_right.png"" class=""coveredImage test"" style = ""width:100px; height:100px; position:fixed; top:10%;    transform: translate(-50%, -50%);left:44.5%""></img><img src=""media/stimuli/animate_010_right.png"" class=""coveredImage test"" style = ""width:100px; height:100px; position:fixed; top:10%;    transform: translate(-50%, -50%);left:51.5%""></img><img src=""media/stimuli/animate_010_right.png"" class=""coveredImage test"" style = ""width:100px; height:100px;position:fixed; top:25%;        transform: translate(-50%, -50%);left:38%""></img><img src=""media/stimuli/animate_012_right.png"" class=""coveredImage test"" style = ""width:100px; height:100px;position:fixed; top:25%;        transform: translate(-50%, -50%);left:54.5%""></img><img src=""media/stimuli/animate_012_right.png"" class=""coveredImage test"" style = ""width:100px; height:100px;position:fixed; top:25%;        transform: translate(-50%, -50%);left:61.5%""></img><img src=""media/f.png""style = ""width:30px x; height:30px;position:fixed; top:43%;    transform: translate(-50%, -50%);left:40%""></img><img src=""media/j.png""style = ""width:30px; height:30px;position:fixed; top:43%;    transform: translate(-50%, -50%);left:60%""></img>","media/stimuli/animate_010_right.png","animate","right","pair","media/stimuli/animate_010_right.png","animate","right","single","media/stimuli/animate_012_right.png","animate","right","pair","number_identity"
"","","","","","html-keyboard-response","49","189738","0.0-49.0","SS1678233219900","63ebb210456ad684e3fe6ded","6406d7f26dd5b7fc1e3377bd","6407ce7e6be4326bb307add7","1920","969","","1393","","f","","","","","","","<img src=""media/stimuli/animate_008_right.png"" class=""coveredImage test"" style = ""width:100px; height:100px; position:fixed; top:10%;    transform: translate(-50%, -50%);left:44.5%""></img><img src=""media/stimuli/animate_008_right.png"" class=""coveredImage test"" style = ""width:100px; height:100px; position:fixed; top:10%;    transform: translate(-50%, -50%);left:51.5%""></img><img src=""media/stimuli/animate_008_left.png"" class=""coveredImage test"" style = ""width:100px; height:100px;position:fixed; top:25%;        transform: translate(-50%, -50%);left:34.5%""></img><img src=""media/stimuli/animate_008_left.png"" class=""coveredImage test"" style = ""width:100px; height:100px;position:fixed; top:25%;        transform: translate(-50%, -50%);left:41.5%""></img><img src=""media/stimuli/animate_004_right.png"" class=""coveredImage test"" style = ""width:100px; height:100px;position:fixed; top:25%;        transform: translate(-50%, -50%);left:54.5%""></img><img src=""media/stimuli/animate_004_right.png"" class=""coveredImage test"" style = ""width:100px; height:100px;position:fixed; top:25%;        transform: translate(-50%, -50%);left:61.5%""></img><img src=""media/f.png""style = ""width:30px x; height:30px;position:fixed; top:43%;    transform: translate(-50%, -50%);left:40%""></img><img src=""media/j.png""style = ""width:30px; height:30px;position:fixed; top:43%;    transform: translate(-50%, -50%);left:60%""></img>","media/stimuli/animate_008_right.png","animate","right","pair","media/stimuli/animate_008_left.png","animate","left","pair","media/stimuli/animate_004_right.png","animate","right","pair","pose_identity"
"","","","","","html-keyboard-response","50","191013","0.0-50.0","SS1678233219900","63ebb210456ad684e3fe6ded","6406d7f26dd5b7fc1e3377bd","6407ce7e6be4326bb307add7","1920","969","","1274","","j","","","","","","","<img src=""media/stimuli/animate_006_left.png"" class=""coveredImage test"" style = ""width:100px; height:100px; position:fixed; top:10%;    transform: translate(-50%, -50%);left:48%""></img><img src=""media/stimuli/animate_008_left.png"" class=""coveredImage test"" style = ""width:100px; height:100px;position:fixed; top:25%;        transform: translate(-50%, -50%);left:38%""></img><img src=""media/stimuli/animate_006_right.png"" class=""coveredImage test"" style = ""width:100px; height:100px;position:fixed; top:25%;        transform: translate(-50%, -50%);left:58%""></img><img src=""media/f.png""style = ""width:30px x; height:30px;position:fixed; top:43%;    transform: translate(-50%, -50%);left:40%""></img><img src=""media/j.png""style = ""width:30px; height:30px;position:fixed; top:43%;    transform: translate(-50%, -50%);left:60%""></img>","media/stimuli/animate_006_left.png","animate","left","single","media/stimuli/animate_008_left.png","animate","left","single","media/stimuli/animate_006_right.png","animate","right","single","identity_pose"
"","","","","","html-keyboard-response","51","193145","0.0-51.0","SS1678233219900","63ebb210456ad684e3fe6ded","6406d7f26dd5b7fc1e3377bd","6407ce7e6be4326bb307add7","1920","969","","2130","","f","","","","","","","<img src=""media/stimuli/inanimate_006_left.png"" class=""coveredImage test"" style = ""width:100px; height:100px; position:fixed; top:10%;    transform: translate(-50%, -50%);left:48%""></img><img src=""media/stimuli/inanimate_006_right.png"" class=""coveredImage test"" style = ""width:100px; height:100px;position:fixed; top:25%;        transform: translate(-50%, -50%);left:38%""></img><img src=""media/stimuli/inanimate_006_left.png"" class=""coveredImage test"" style = ""width:100px; height:100px;position:fixed; top:25%;        transform: translate(-50%, -50%);left:54.5%""></img><img src=""media/stimuli/inanimate_006_left.png"" class=""coveredImage test"" style = ""width:100px; height:100px;position:fixed; top:25%;        transform: translate(-50%, -50%);left:61.5%""></img><img src=""media/f.png""style = ""width:30px x; height:30px;position:fixed; top:43%;    transform: translate(-50%, -50%);left:40%""></img><img src=""media/j.png""style = ""width:30px; height:30px;position:fixed; top:43%;    transform: translate(-50%, -50%);left:60%""></img>","media/stimuli/inanimate_006_left.png","inanimate","left","single","media/stimuli/inanimate_006_right.png","inanimate","right","single","media/stimuli/inanimate_006_left.png","inanimate","left","pair","pose_number"
"","","","","","html-keyboard-response","52","194963","0.0-52.0","SS1678233219900","63ebb210456ad684e3fe6ded","6406d7f26dd5b7fc1e3377bd","6407ce7e6be4326bb307add7","1920","969","","1816","","f","","","","","","","<img src=""media/stimuli/animate_005_right.png"" class=""coveredImage test"" style = ""width:100px; height:100px; position:fixed; top:10%;    transform: translate(-50%, -50%);left:44.5%""></img><img src=""media/stimuli/animate_005_right.png"" class=""coveredImage test"" style = ""width:100px; height:100px; position:fixed; top:10%;    transform: translate(-50%, -50%);left:51.5%""></img><img src=""media/stimuli/animate_005_left.png"" class=""coveredImage test"" style = ""width:100px; height:100px;position:fixed; top:25%;        transform: translate(-50%, -50%);left:34.5%""></img><img src=""media/stimuli/animate_005_left.png"" class=""coveredImage test"" style = ""width:100px; height:100px;position:fixed; top:25%;        transform: translate(-50%, -50%);left:41.5%""></img><img src=""media/stimuli/animate_011_right.png"" class=""coveredImage test"" style = ""width:100px; height:100px;position:fixed; top:25%;        transform: translate(-50%, -50%);left:54.5%""></img><img src=""media/stimuli/animate_011_right.png"" class=""coveredImage test"" style = ""width:100px; height:100px;position:fixed; top:25%;        transform: translate(-50%, -50%);left:61.5%""></img><img src=""media/f.png""style = ""width:30px x; height:30px;position:fixed; top:43%;    transform: translate(-50%, -50%);left:40%""></img><img src=""media/j.png""style = ""width:30px; height:30px;position:fixed; top:43%;    transform: translate(-50%, -50%);left:60%""></img>","media/stimuli/animate_005_right.png","animate","right","pair","media/stimuli/animate_005_left.png","animate","left","pair","media/stimuli/animate_011_right.png","animate","right","pair","pose_identity"
"","","","","","html-keyboard-response","53","196040","0.0-53.0","SS1678233219900","63ebb210456ad684e3fe6ded","6406d7f26dd5b7fc1e3377bd","6407ce7e6be4326bb307add7","1920","969","","1075","","f","","","","","","","<img src=""media/stimuli/inanimate_003_right.png"" class=""coveredImage test"" style = ""width:100px; height:100px; position:fixed; top:10%;    transform: translate(-50%, -50%);left:48%""></img><img src=""media/stimuli/inanimate_003_left.png"" class=""coveredImage test"" style = ""width:100px; height:100px;position:fixed; top:25%;        transform: translate(-50%, -50%);left:38%""></img><img src=""media/stimuli/inanimate_007_right.png"" class=""coveredImage test"" style = ""width:100px; height:100px;position:fixed; top:25%;        transform: translate(-50%, -50%);left:58%""></img><img src=""media/f.png""style = ""width:30px x; height:30px;position:fixed; top:43%;    transform: translate(-50%, -50%);left:40%""></img><img src=""media/j.png""style = ""width:30px; height:30px;position:fixed; top:43%;    transform: translate(-50%, -50%);left:60%""></img>","media/stimuli/inanimate_003_right.png","inanimate","right","single","media/stimuli/inanimate_003_left.png","inanimate","left","single","media/stimuli/inanimate_007_right.png","inanimate","right","single","pose_identity"
"","","","","","html-keyboard-response","54","201578","0.0-54.0","SS1678233219900","63ebb210456ad684e3fe6ded","6406d7f26dd5b7fc1e3377bd","6407ce7e6be4326bb307add7","1920","969","","5536","","f","","","","","","","<img src=""media/stimuli/animate_007_right.png"" class=""coveredImage test"" style = ""width:100px; height:100px; position:fixed; top:10%;    transform: translate(-50%, -50%);left:44.5%""></img><img src=""media/stimuli/animate_007_right.png"" class=""coveredImage test"" style = ""width:100px; height:100px; position:fixed; top:10%;    transform: translate(-50%, -50%);left:51.5%""></img><img src=""media/stimuli/animate_011_right.png"" class=""coveredImage test"" style = ""width:100px; height:100px;position:fixed; top:25%;        transform: translate(-50%, -50%);left:34.5%""></img><img src=""media/stimuli/animate_011_right.png"" class=""coveredImage test"" style = ""width:100px; height:100px;position:fixed; top:25%;        transform: translate(-50%, -50%);left:41.5%""></img><img src=""media/stimuli/inanimate_011_right.png"" class=""coveredImage test"" style = ""width:100px; height:100px;position:fixed; top:25%;        transform: translate(-50%, -50%);left:54.5%""></img><img src=""media/stimuli/inanimate_011_right.png"" class=""coveredImage test"" style = ""width:100px; height:100px;position:fixed; top:25%;        transform: translate(-50%, -50%);left:61.5%""></img><img src=""media/f.png""style = ""width:30px x; height:30px;position:fixed; top:43%;    transform: translate(-50%, -50%);left:40%""></img><img src=""media/j.png""style = ""width:30px; height:30px;position:fixed; top:43%;    transform: translate(-50%, -50%);left:60%""></img>","media/stimuli/animate_007_right.png","animate","right","pair","media/stimuli/animate_011_right.png","animate","right","pair","media/stimuli/inanimate_011_right.png","inanimate","right","pair","identity_animacy"
"","","","","","html-keyboard-response","55","203228","0.0-55.0","SS1678233219900","63ebb210456ad684e3fe6ded","6406d7f26dd5b7fc1e3377bd","6407ce7e6be4326bb307add7","1920","969","","1648","","f","","","","","","","<img src=""media/stimuli/inanimate_002_left.png"" class=""coveredImage test"" style = ""width:100px; height:100px; position:fixed; top:10%;    transform: translate(-50%, -50%);left:44.5%""></img><img src=""media/stimuli/inanimate_002_left.png"" class=""coveredImage test"" style = ""width:100px; height:100px; position:fixed; top:10%;    transform: translate(-50%, -50%);left:51.5%""></img><img src=""media/stimuli/inanimate_003_left.png"" class=""coveredImage test"" style = ""width:100px; height:100px;position:fixed; top:25%;        transform: translate(-50%, -50%);left:34.5%""></img><img src=""media/stimuli/inanimate_003_left.png"" class=""coveredImage test"" style = ""width:100px; height:100px;position:fixed; top:25%;        transform: translate(-50%, -50%);left:41.5%""></img><img src=""media/stimuli/animate_003_left.png"" class=""coveredImage test"" style = ""width:100px; height:100px;position:fixed; top:25%;        transform: translate(-50%, -50%);left:54.5%""></img><img src=""media/stimuli/animate_003_left.png"" class=""coveredImage test"" style = ""width:100px; height:100px;position:fixed; top:25%;        transform: translate(-50%, -50%);left:61.5%""></img><img src=""media/f.png""style = ""width:30px x; height:30px;position:fixed; top:43%;    transform: translate(-50%, -50%);left:40%""></img><img src=""media/j.png""style = ""width:30px; height:30px;position:fixed; top:43%;    transform: translate(-50%, -50%);left:60%""></img>","media/stimuli/inanimate_002_left.png","inanimate","left","pair","media/stimuli/inanimate_003_left.png","inanimate","left","pair","media/stimuli/animate_003_left.png","animate","left","pair","identity_animacy"
"","","","","","html-keyboard-response","56","204698","0.0-56.0","SS1678233219900","63ebb210456ad684e3fe6ded","6406d7f26dd5b7fc1e3377bd","6407ce7e6be4326bb307add7","1920","969","","1468","","f","","","","","","","<img src=""media/stimuli/inanimate_012_right.png"" class=""coveredImage test"" style = ""width:100px; height:100px; position:fixed; top:10%;    transform: translate(-50%, -50%);left:48%""></img><img src=""media/stimuli/inanimate_012_left.png"" class=""coveredImage test"" style = ""width:100px; height:100px;position:fixed; top:25%;        transform: translate(-50%, -50%);left:38%""></img><img src=""media/stimuli/inanimate_012_right.png"" class=""coveredImage test"" style = ""width:100px; height:100px;position:fixed; top:25%;        transform: translate(-50%, -50%);left:54.5%""></img><img src=""media/stimuli/inanimate_012_right.png"" class=""coveredImage test"" style = ""width:100px; height:100px;position:fixed; top:25%;        transform: translate(-50%, -50%);left:61.5%""></img><img src=""media/f.png""style = ""width:30px x; height:30px;position:fixed; top:43%;    transform: translate(-50%, -50%);left:40%""></img><img src=""media/j.png""style = ""width:30px; height:30px;position:fixed; top:43%;    transform: translate(-50%, -50%);left:60%""></img>","media/stimuli/inanimate_012_right.png","inanimate","right","single","media/stimuli/inanimate_012_left.png","inanimate","left","single","media/stimuli/inanimate_012_right.png","inanimate","right","pair","pose_number"
"","","","","","html-keyboard-response","57","206748","0.0-57.0","SS1678233219900","63ebb210456ad684e3fe6ded","6406d7f26dd5b7fc1e3377bd","6407ce7e6be4326bb307add7","1920","969","","2048","","j","","","","","","","<img src=""media/stimuli/animate_006_right.png"" class=""coveredImage test"" style = ""width:100px; height:100px; position:fixed; top:10%;    transform: translate(-50%, -50%);left:48%""></img><img src=""media/stimuli/inanimate_003_right.png"" class=""coveredImage test"" style = ""width:100px; height:100px;position:fixed; top:25%;        transform: translate(-50%, -50%);left:38%""></img><img src=""media/stimuli/animate_012_right.png"" class=""coveredImage test"" style = ""width:100px; height:100px;position:fixed; top:25%;        transform: translate(-50%, -50%);left:58%""></img><img src=""media/f.png""style = ""width:30px x; height:30px;position:fixed; top:43%;    transform: translate(-50%, -50%);left:40%""></img><img src=""media/j.png""style = ""width:30px; height:30px;position:fixed; top:43%;    transform: translate(-50%, -50%);left:60%""></img>","media/stimuli/animate_006_right.png","animate","right","single","media/stimuli/inanimate_003_right.png","inanimate","right","single","media/stimuli/animate_012_right.png","animate","right","single","animacy_identity"
"","","","","","html-keyboard-response","58","210666","0.0-58.0","SS1678233219900","63ebb210456ad684e3fe6ded","6406d7f26dd5b7fc1e3377bd","6407ce7e6be4326bb307add7","1920","969","","3916","","f","","","","","","","<img src=""media/stimuli/inanimate_010_left.png"" class=""coveredImage test"" style = ""width:100px; height:100px; position:fixed; top:10%;    transform: translate(-50%, -50%);left:44.5%""></img><img src=""media/stimuli/inanimate_010_left.png"" class=""coveredImage test"" style = ""width:100px; height:100px; position:fixed; top:10%;    transform: translate(-50%, -50%);left:51.5%""></img><img src=""media/stimuli/inanimate_010_left.png"" class=""coveredImage test"" style = ""width:100px; height:100px;position:fixed; top:25%;        transform: translate(-50%, -50%);left:38%""></img><img src=""media/stimuli/inanimate_001_left.png"" class=""coveredImage test"" style = ""width:100px; height:100px;position:fixed; top:25%;        transform: translate(-50%, -50%);left:54.5%""></img><img src=""media/stimuli/inanimate_001_left.png"" class=""coveredImage test"" style = ""width:100px; height:100px;position:fixed; top:25%;        transform: translate(-50%, -50%);left:61.5%""></img><img src=""media/f.png""style = ""width:30px x; height:30px;position:fixed; top:43%;    transform: translate(-50%, -50%);left:40%""></img><img src=""media/j.png""style = ""width:30px; height:30px;position:fixed; top:43%;    transform: translate(-50%, -50%);left:60%""></img>","media/stimuli/inanimate_010_left.png","inanimate","left","pair","media/stimuli/inanimate_010_left.png","inanimate","left","single","media/stimuli/inanimate_001_left.png","inanimate","left","pair","number_identity"
"","","","","","html-keyboard-response","59","211676","0.0-59.0","SS1678233219900","63ebb210456ad684e3fe6ded","6406d7f26dd5b7fc1e3377bd","6407ce7e6be4326bb307add7","1920","969","","1009",""," ","","","","","","","","","","","","","","","","","","","",""
"","","","","","html-keyboard-response","60","213884","0.0-60.0","SS1678233219900","63ebb210456ad684e3fe6ded","6406d7f26dd5b7fc1e3377bd","6407ce7e6be4326bb307add7","1920","969","","2206","","f","","","","","","","<img src=""media/stimuli/inanimate_007_left.png"" class=""coveredImage test"" style = ""width:100px; height:100px; position:fixed; top:10%;    transform: translate(-50%, -50%);left:48%""></img><img src=""media/stimuli/inanimate_007_left.png"" class=""coveredImage test"" style = ""width:100px; height:100px;position:fixed; top:25%;        transform: translate(-50%, -50%);left:34.5%""></img><img src=""media/stimuli/inanimate_007_left.png"" class=""coveredImage test"" style = ""width:100px; height:100px;position:fixed; top:25%;        transform: translate(-50%, -50%);left:41.5%""></img><img src=""media/stimuli/inanimate_001_left.png"" class=""coveredImage test"" style = ""width:100px; height:100px;position:fixed; top:25%;        transform: translate(-50%, -50%);left:58%""></img><img src=""media/f.png""style = ""width:30px x; height:30px;position:fixed; top:43%;    transform: translate(-50%, -50%);left:40%""></img><img src=""media/j.png""style = ""width:30px; height:30px;position:fixed; top:43%;    transform: translate(-50%, -50%);left:60%""></img>","media/stimuli/inanimate_007_left.png","inanimate","left","single","media/stimuli/inanimate_007_left.png","inanimate","left","pair","media/stimuli/inanimate_001_left.png","inanimate","left","single","number_identity"
"","","","","","html-keyboard-response","61","215550","0.0-61.0","SS1678233219900","63ebb210456ad684e3fe6ded","6406d7f26dd5b7fc1e3377bd","6407ce7e6be4326bb307add7","1920","969","","1664","","f","","","","","","","<img src=""media/stimuli/inanimate_009_left.png"" class=""coveredImage test"" style = ""width:100px; height:100px; position:fixed; top:10%;    transform: translate(-50%, -50%);left:44.5%""></img><img src=""media/stimuli/inanimate_009_left.png"" class=""coveredImage test"" style = ""width:100px; height:100px; position:fixed; top:10%;    transform: translate(-50%, -50%);left:51.5%""></img><img src=""media/stimuli/inanimate_002_left.png"" class=""coveredImage test"" style = ""width:100px; height:100px;position:fixed; top:25%;        transform: translate(-50%, -50%);left:34.5%""></img><img src=""media/stimuli/inanimate_002_left.png"" class=""coveredImage test"" style = ""width:100px; height:100px;position:fixed; top:25%;        transform: translate(-50%, -50%);left:41.5%""></img><img src=""media/stimuli/animate_002_left.png"" class=""coveredImage test"" style = ""width:100px; height:100px;position:fixed; top:25%;        transform: translate(-50%, -50%);left:54.5%""></img><img src=""media/stimuli/animate_002_left.png"" class=""coveredImage test"" style = ""width:100px; height:100px;position:fixed; top:25%;        transform: translate(-50%, -50%);left:61.5%""></img><img src=""media/f.png""style = ""width:30px x; height:30px;position:fixed; top:43%;    transform: translate(-50%, -50%);left:40%""></img><img src=""media/j.png""style = ""width:30px; height:30px;position:fixed; top:43%;    transform: translate(-50%, -50%);left:60%""></img>","media/stimuli/inanimate_009_left.png","inanimate","left","pair","media/stimuli/inanimate_002_left.png","inanimate","left","pair","media/stimuli/animate_002_left.png","animate","left","pair","identity_animacy"
"","","","","","html-keyboard-response","62","216969","0.0-62.0","SS1678233219900","63ebb210456ad684e3fe6ded","6406d7f26dd5b7fc1e3377bd","6407ce7e6be4326bb307add7","1920","969","","1417","","f","","","","","","","<img src=""media/stimuli/inanimate_001_left.png"" class=""coveredImage test"" style = ""width:100px; height:100px; position:fixed; top:10%;    transform: translate(-50%, -50%);left:44.5%""></img><img src=""media/stimuli/inanimate_001_left.png"" class=""coveredImage test"" style = ""width:100px; height:100px; position:fixed; top:10%;    transform: translate(-50%, -50%);left:51.5%""></img><img src=""media/stimuli/inanimate_001_left.png"" class=""coveredImage test"" style = ""width:100px; height:100px;position:fixed; top:25%;        transform: translate(-50%, -50%);left:38%""></img><img src=""media/stimuli/inanimate_010_left.png"" class=""coveredImage test"" style = ""width:100px; height:100px;position:fixed; top:25%;        transform: translate(-50%, -50%);left:54.5%""></img><img src=""media/stimuli/inanimate_010_left.png"" class=""coveredImage test"" style = ""width:100px; height:100px;position:fixed; top:25%;        transform: translate(-50%, -50%);left:61.5%""></img><img src=""media/f.png""style = ""width:30px x; height:30px;position:fixed; top:43%;    transform: translate(-50%, -50%);left:40%""></img><img src=""media/j.png""style = ""width:30px; height:30px;position:fixed; top:43%;    transform: translate(-50%, -50%);left:60%""></img>","media/stimuli/inanimate_001_left.png","inanimate","left","pair","media/stimuli/inanimate_001_left.png","inanimate","left","single","media/stimuli/inanimate_010_left.png","inanimate","left","pair","number_identity"
"","","","","","html-keyboard-response","63","218001","0.0-63.0","SS1678233219900","63ebb210456ad684e3fe6ded","6406d7f26dd5b7fc1e3377bd","6407ce7e6be4326bb307add7","1920","969","","1030","","j","","","","","","","<img src=""media/stimuli/inanimate_008_right.png"" class=""coveredImage test"" style = ""width:100px; height:100px; position:fixed; top:10%;    transform: translate(-50%, -50%);left:48%""></img><img src=""media/stimuli/inanimate_012_right.png"" class=""coveredImage test"" style = ""width:100px; height:100px;position:fixed; top:25%;        transform: translate(-50%, -50%);left:38%""></img><img src=""media/stimuli/inanimate_008_left.png"" class=""coveredImage test"" style = ""width:100px; height:100px;position:fixed; top:25%;        transform: translate(-50%, -50%);left:58%""></img><img src=""media/f.png""style = ""width:30px x; height:30px;position:fixed; top:43%;    transform: translate(-50%, -50%);left:40%""></img><img src=""media/j.png""style = ""width:30px; height:30px;position:fixed; top:43%;    transform: translate(-50%, -50%);left:60%""></img>","media/stimuli/inanimate_008_right.png","inanimate","right","single","media/stimuli/inanimate_012_right.png","inanimate","right","single","media/stimuli/inanimate_008_left.png","inanimate","left","single","identity_pose"
"","","","","","html-keyboard-response","64","218939","0.0-64.0","SS1678233219900","63ebb210456ad684e3fe6ded","6406d7f26dd5b7fc1e3377bd","6407ce7e6be4326bb307add7","1920","969","","936","","f","","","","","","","<img src=""media/stimuli/animate_002_left.png"" class=""coveredImage test"" style = ""width:100px; height:100px; position:fixed; top:10%;    transform: translate(-50%, -50%);left:48%""></img><img src=""media/stimuli/animate_002_left.png"" class=""coveredImage test"" style = ""width:100px; height:100px;position:fixed; top:25%;        transform: translate(-50%, -50%);left:34.5%""></img><img src=""media/stimuli/animate_002_left.png"" class=""coveredImage test"" style = ""width:100px; height:100px;position:fixed; top:25%;        transform: translate(-50%, -50%);left:41.5%""></img><img src=""media/stimuli/animate_004_left.png"" class=""coveredImage test"" style = ""width:100px; height:100px;position:fixed; top:25%;        transform: translate(-50%, -50%);left:58%""></img><img src=""media/f.png""style = ""width:30px x; height:30px;position:fixed; top:43%;    transform: translate(-50%, -50%);left:40%""></img><img src=""media/j.png""style = ""width:30px; height:30px;position:fixed; top:43%;    transform: translate(-50%, -50%);left:60%""></img>","media/stimuli/animate_002_left.png","animate","left","single","media/stimuli/animate_002_left.png","animate","left","pair","media/stimuli/animate_004_left.png","animate","left","single","number_identity"
"","","","","","html-keyboard-response","65","220075","0.0-65.0","SS1678233219900","63ebb210456ad684e3fe6ded","6406d7f26dd5b7fc1e3377bd","6407ce7e6be4326bb307add7","1920","969","","1134","","j","","","","","","","<img src=""media/stimuli/inanimate_012_left.png"" class=""coveredImage test"" style = ""width:100px; height:100px; position:fixed; top:10%;    transform: translate(-50%, -50%);left:44.5%""></img><img src=""media/stimuli/inanimate_012_left.png"" class=""coveredImage test"" style = ""width:100px; height:100px; position:fixed; top:10%;    transform: translate(-50%, -50%);left:51.5%""></img><img src=""media/stimuli/animate_008_left.png"" class=""coveredImage test"" style = ""width:100px; height:100px;position:fixed; top:25%;        transform: translate(-50%, -50%);left:34.5%""></img><img src=""media/stimuli/animate_008_left.png"" class=""coveredImage test"" style = ""width:100px; height:100px;position:fixed; top:25%;        transform: translate(-50%, -50%);left:41.5%""></img><img src=""media/stimuli/inanimate_012_left.png"" class=""coveredImage test"" style = ""width:100px; height:100px;position:fixed; top:25%;        transform: translate(-50%, -50%);left:58%""></img><img src=""media/f.png""style = ""width:30px x; height:30px;position:fixed; top:43%;    transform: translate(-50%, -50%);left:40%""></img><img src=""media/j.png""style = ""width:30px; height:30px;position:fixed; top:43%;    transform: translate(-50%, -50%);left:60%""></img>","media/stimuli/inanimate_012_left.png","inanimate","left","pair","media/stimuli/animate_008_left.png","animate","left","pair","media/stimuli/inanimate_012_left.png","inanimate","left","single","animacy_number"
"","","","","","html-keyboard-response","66","221376","0.0-66.0","SS1678233219900","63ebb210456ad684e3fe6ded","6406d7f26dd5b7fc1e3377bd","6407ce7e6be4326bb307add7","1920","969","","1298","","j","","","","","","","<img src=""media/stimuli/animate_006_right.png"" class=""coveredImage test"" style = ""width:100px; height:100px; position:fixed; top:10%;    transform: translate(-50%, -50%);left:48%""></img><img src=""media/stimuli/inanimate_004_left.png"" class=""coveredImage test"" style = ""width:100px; height:100px;position:fixed; top:25%;        transform: translate(-50%, -50%);left:38%""></img><img src=""media/stimuli/animate_006_right.png"" class=""coveredImage test"" style = ""width:100px; height:100px;position:fixed; top:25%;        transform: translate(-50%, -50%);left:58%""></img><img src=""media/f.png""style = ""width:30px x; height:30px;position:fixed; top:43%;    transform: translate(-50%, -50%);left:40%""></img><img src=""media/j.png""style = ""width:30px; height:30px;position:fixed; top:43%;    transform: translate(-50%, -50%);left:60%""></img>","media/stimuli/animate_006_right.png","animate","right","single","media/stimuli/inanimate_004_left.png","inanimate","left","single","media/stimuli/animate_006_right.png","animate","right","single","animacy_pose"
"","","","","","html-keyboard-response","67","222425","0.0-67.0","SS1678233219900","63ebb210456ad684e3fe6ded","6406d7f26dd5b7fc1e3377bd","6407ce7e6be4326bb307add7","1920","969","","1046","","f","","","","","","","<img src=""media/stimuli/inanimate_006_right.png"" class=""coveredImage test"" style = ""width:100px; height:100px; position:fixed; top:10%;    transform: translate(-50%, -50%);left:44.5%""></img><img src=""media/stimuli/inanimate_006_right.png"" class=""coveredImage test"" style = ""width:100px; height:100px; position:fixed; top:10%;    transform: translate(-50%, -50%);left:51.5%""></img><img src=""media/stimuli/inanimate_006_right.png"" class=""coveredImage test"" style = ""width:100px; height:100px;position:fixed; top:25%;        transform: translate(-50%, -50%);left:38%""></img><img src=""media/stimuli/inanimate_009_right.png"" class=""coveredImage test"" style = ""width:100px; height:100px;position:fixed; top:25%;        transform: translate(-50%, -50%);left:54.5%""></img><img src=""media/stimuli/inanimate_009_right.png"" class=""coveredImage test"" style = ""width:100px; height:100px;position:fixed; top:25%;        transform: translate(-50%, -50%);left:61.5%""></img><img src=""media/f.png""style = ""width:30px x; height:30px;position:fixed; top:43%;    transform: translate(-50%, -50%);left:40%""></img><img src=""media/j.png""style = ""width:30px; height:30px;position:fixed; top:43%;    transform: translate(-50%, -50%);left:60%""></img>","media/stimuli/inanimate_006_right.png","inanimate","right","pair","media/stimuli/inanimate_006_right.png","inanimate","right","single","media/stimuli/inanimate_009_right.png","inanimate","right","pair","number_identity"
"","","","","","html-keyboard-response","68","224588","0.0-68.0","SS1678233219900","63ebb210456ad684e3fe6ded","6406d7f26dd5b7fc1e3377bd","6407ce7e6be4326bb307add7","1920","969","","2161","","j","","","","","","","<img src=""media/stimuli/animate_005_right.png"" class=""coveredImage test"" style = ""width:100px; height:100px; position:fixed; top:10%;    transform: translate(-50%, -50%);left:48%""></img><img src=""media/stimuli/animate_005_right.png"" class=""coveredImage test"" style = ""width:100px; height:100px;position:fixed; top:25%;        transform: translate(-50%, -50%);left:34.5%""></img><img src=""media/stimuli/animate_005_right.png"" class=""coveredImage test"" style = ""width:100px; height:100px;position:fixed; top:25%;        transform: translate(-50%, -50%);left:41.5%""></img><img src=""media/stimuli/animate_005_left.png"" class=""coveredImage test"" style = ""width:100px; height:100px;position:fixed; top:25%;        transform: translate(-50%, -50%);left:58%""></img><img src=""media/f.png""style = ""width:30px x; height:30px;position:fixed; top:43%;    transform: translate(-50%, -50%);left:40%""></img><img src=""media/j.png""style = ""width:30px; height:30px;position:fixed; top:43%;    transform: translate(-50%, -50%);left:60%""></img>","media/stimuli/animate_005_right.png","animate","right","single","media/stimuli/animate_005_right.png","animate","right","pair","media/stimuli/animate_005_left.png","animate","left","single","number_pose"
"","","","","","html-keyboard-response","69","225481","0.0-69.0","SS1678233219900","63ebb210456ad684e3fe6ded","6406d7f26dd5b7fc1e3377bd","6407ce7e6be4326bb307add7","1920","969","","891","","f","","","","","","","<img src=""media/stimuli/inanimate_007_left.png"" class=""coveredImage test"" style = ""width:100px; height:100px; position:fixed; top:10%;    transform: translate(-50%, -50%);left:44.5%""></img><img src=""media/stimuli/inanimate_007_left.png"" class=""coveredImage test"" style = ""width:100px; height:100px; position:fixed; top:10%;    transform: translate(-50%, -50%);left:51.5%""></img><img src=""media/stimuli/inanimate_007_left.png"" class=""coveredImage test"" style = ""width:100px; height:100px;position:fixed; top:25%;        transform: translate(-50%, -50%);left:38%""></img><img src=""media/stimuli/animate_006_left.png"" class=""coveredImage test"" style = ""width:100px; height:100px;position:fixed; top:25%;        transform: translate(-50%, -50%);left:54.5%""></img><img src=""media/stimuli/animate_006_left.png"" class=""coveredImage test"" style = ""width:100px; height:100px;position:fixed; top:25%;        transform: translate(-50%, -50%);left:61.5%""></img><img src=""media/f.png""style = ""width:30px x; height:30px;position:fixed; top:43%;    transform: translate(-50%, -50%);left:40%""></img><img src=""media/j.png""style = ""width:30px; height:30px;position:fixed; top:43%;    transform: translate(-50%, -50%);left:60%""></img>","media/stimuli/inanimate_007_left.png","inanimate","left","pair","media/stimuli/inanimate_007_left.png","inanimate","left","single","media/stimuli/animate_006_left.png","animate","left","pair","number_animacy"
"","","","","","html-keyboard-response","70","227174","0.0-70.0","SS1678233219900","63ebb210456ad684e3fe6ded","6406d7f26dd5b7fc1e3377bd","6407ce7e6be4326bb307add7","1920","969","","1691","","f","","","","","","","<img src=""media/stimuli/inanimate_003_right.png"" class=""coveredImage test"" style = ""width:100px; height:100px; position:fixed; top:10%;    transform: translate(-50%, -50%);left:48%""></img><img src=""media/stimuli/inanimate_003_left.png"" class=""coveredImage test"" style = ""width:100px; height:100px;position:fixed; top:25%;        transform: translate(-50%, -50%);left:38%""></img><img src=""media/stimuli/inanimate_006_right.png"" class=""coveredImage test"" style = ""width:100px; height:100px;position:fixed; top:25%;        transform: translate(-50%, -50%);left:58%""></img><img src=""media/f.png""style = ""width:30px x; height:30px;position:fixed; top:43%;    transform: translate(-50%, -50%);left:40%""></img><img src=""media/j.png""style = ""width:30px; height:30px;position:fixed; top:43%;    transform: translate(-50%, -50%);left:60%""></img>","media/stimuli/inanimate_003_right.png","inanimate","right","single","media/stimuli/inanimate_003_left.png","inanimate","left","single","media/stimuli/inanimate_006_right.png","inanimate","right","single","pose_identity"
"","","","","","html-keyboard-response","71","228331","0.0-71.0","SS1678233219900","63ebb210456ad684e3fe6ded","6406d7f26dd5b7fc1e3377bd","6407ce7e6be4326bb307add7","1920","969","","1155","","j","","","","","","","<img src=""media/stimuli/animate_007_right.png"" class=""coveredImage test"" style = ""width:100px; height:100px; position:fixed; top:10%;    transform: translate(-50%, -50%);left:44.5%""></img><img src=""media/stimuli/animate_007_right.png"" class=""coveredImage test"" style = ""width:100px; height:100px; position:fixed; top:10%;    transform: translate(-50%, -50%);left:51.5%""></img><img src=""media/stimuli/inanimate_005_right.png"" class=""coveredImage test"" style = ""width:100px; height:100px;position:fixed; top:25%;        transform: translate(-50%, -50%);left:34.5%""></img><img src=""media/stimuli/inanimate_005_right.png"" class=""coveredImage test"" style = ""width:100px; height:100px;position:fixed; top:25%;        transform: translate(-50%, -50%);left:41.5%""></img><img src=""media/stimuli/animate_012_right.png"" class=""coveredImage test"" style = ""width:100px; height:100px;position:fixed; top:25%;        transform: translate(-50%, -50%);left:54.5%""></img><img src=""media/stimuli/animate_012_right.png"" class=""coveredImage test"" style = ""width:100px; height:100px;position:fixed; top:25%;        transform: translate(-50%, -50%);left:61.5%""></img><img src=""media/f.png""style = ""width:30px x; height:30px;position:fixed; top:43%;    transform: translate(-50%, -50%);left:40%""></img><img src=""media/j.png""style = ""width:30px; height:30px;position:fixed; top:43%;    transform: translate(-50%, -50%);left:60%""></img>","media/stimuli/animate_007_right.png","animate","right","pair","media/stimuli/inanimate_005_right.png","inanimate","right","pair","media/stimuli/animate_012_right.png","animate","right","pair","animacy_identity"
"","","","","","html-keyboard-response","72","229086","0.0-72.0","SS1678233219900","63ebb210456ad684e3fe6ded","6406d7f26dd5b7fc1e3377bd","6407ce7e6be4326bb307add7","1920","969","","753",""," ","","","","","","","","","","","","","","","","","","","",""
"","","","","","html-keyboard-response","73","230428","0.0-73.0","SS1678233219900","63ebb210456ad684e3fe6ded","6406d7f26dd5b7fc1e3377bd","6407ce7e6be4326bb307add7","1920","969","","1340","","f","","","","","","","<img src=""media/stimuli/animate_002_left.png"" class=""coveredImage test"" style = ""width:100px; height:100px; position:fixed; top:10%;    transform: translate(-50%, -50%);left:48%""></img><img src=""media/stimuli/animate_002_left.png"" class=""coveredImage test"" style = ""width:100px; height:100px;position:fixed; top:25%;        transform: translate(-50%, -50%);left:34.5%""></img><img src=""media/stimuli/animate_002_left.png"" class=""coveredImage test"" style = ""width:100px; height:100px;position:fixed; top:25%;        transform: translate(-50%, -50%);left:41.5%""></img><img src=""media/stimuli/animate_005_left.png"" class=""coveredImage test"" style = ""width:100px; height:100px;position:fixed; top:25%;        transform: translate(-50%, -50%);left:58%""></img><img src=""media/f.png""style = ""width:30px x; height:30px;position:fixed; top:43%;    transform: translate(-50%, -50%);left:40%""></img><img src=""media/j.png""style = ""width:30px; height:30px;position:fixed; top:43%;    transform: translate(-50%, -50%);left:60%""></img>","media/stimuli/animate_002_left.png","animate","left","single","media/stimuli/animate_002_left.png","animate","left","pair","media/stimuli/animate_005_left.png","animate","left","single","number_identity"
"","","","","","html-keyboard-response","74","233621","0.0-74.0","SS1678233219900","63ebb210456ad684e3fe6ded","6406d7f26dd5b7fc1e3377bd","6407ce7e6be4326bb307add7","1920","969","","3191","","f","","","","","","","<img src=""media/stimuli/inanimate_012_left.png"" class=""coveredImage test"" style = ""width:100px; height:100px; position:fixed; top:10%;    transform: translate(-50%, -50%);left:48%""></img><img src=""media/stimuli/inanimate_007_left.png"" class=""coveredImage test"" style = ""width:100px; height:100px;position:fixed; top:25%;        transform: translate(-50%, -50%);left:38%""></img><img src=""media/stimuli/animate_011_left.png"" class=""coveredImage test"" style = ""width:100px; height:100px;position:fixed; top:25%;        transform: translate(-50%, -50%);left:58%""></img><img src=""media/f.png""style = ""width:30px x; height:30px;position:fixed; top:43%;    transform: translate(-50%, -50%);left:40%""></img><img src=""media/j.png""style = ""width:30px; height:30px;position:fixed; top:43%;    transform: translate(-50%, -50%);left:60%""></img>","media/stimuli/inanimate_012_left.png","inanimate","left","single","media/stimuli/inanimate_007_left.png","inanimate","left","single","media/stimuli/animate_011_left.png","animate","left","single","identity_animacy"
"","","","","","html-keyboard-response","75","234874","0.0-75.0","SS1678233219900","63ebb210456ad684e3fe6ded","6406d7f26dd5b7fc1e3377bd","6407ce7e6be4326bb307add7","1920","969","","1251","","f","","","","","","","<img src=""media/stimuli/inanimate_012_left.png"" class=""coveredImage test"" style = ""width:100px; height:100px; position:fixed; top:10%;    transform: translate(-50%, -50%);left:48%""></img><img src=""media/stimuli/inanimate_012_left.png"" class=""coveredImage test"" style = ""width:100px; height:100px;position:fixed; top:25%;        transform: translate(-50%, -50%);left:34.5%""></img><img src=""media/stimuli/inanimate_012_left.png"" class=""coveredImage test"" style = ""width:100px; height:100px;position:fixed; top:25%;        transform: translate(-50%, -50%);left:41.5%""></img><img src=""media/stimuli/inanimate_002_left.png"" class=""coveredImage test"" style = ""width:100px; height:100px;position:fixed; top:25%;        transform: translate(-50%, -50%);left:58%""></img><img src=""media/f.png""style = ""width:30px x; height:30px;position:fixed; top:43%;    transform: translate(-50%, -50%);left:40%""></img><img src=""media/j.png""style = ""width:30px; height:30px;position:fixed; top:43%;    transform: translate(-50%, -50%);left:60%""></img>","media/stimuli/inanimate_012_left.png","inanimate","left","single","media/stimuli/inanimate_012_left.png","inanimate","left","pair","media/stimuli/inanimate_002_left.png","inanimate","left","single","number_identity"
"","","","","","html-keyboard-response","76","236251","0.0-76.0","SS1678233219900","63ebb210456ad684e3fe6ded","6406d7f26dd5b7fc1e3377bd","6407ce7e6be4326bb307add7","1920","969","","1374","","j","","","","","","","<img src=""media/stimuli/inanimate_010_left.png"" class=""coveredImage test"" style = ""width:100px; height:100px; position:fixed; top:10%;    transform: translate(-50%, -50%);left:48%""></img><img src=""media/stimuli/inanimate_010_left.png"" class=""coveredImage test"" style = ""width:100px; height:100px;position:fixed; top:25%;        transform: translate(-50%, -50%);left:34.5%""></img><img src=""media/stimuli/inanimate_010_left.png"" class=""coveredImage test"" style = ""width:100px; height:100px;position:fixed; top:25%;        transform: translate(-50%, -50%);left:41.5%""></img><img src=""media/stimuli/inanimate_010_right.png"" class=""coveredImage test"" style = ""width:100px; height:100px;position:fixed; top:25%;        transform: translate(-50%, -50%);left:58%""></img><img src=""media/f.png""style = ""width:30px x; height:30px;position:fixed; top:43%;    transform: translate(-50%, -50%);left:40%""></img><img src=""media/j.png""style = ""width:30px; height:30px;position:fixed; top:43%;    transform: translate(-50%, -50%);left:60%""></img>","media/stimuli/inanimate_010_left.png","inanimate","left","single","media/stimuli/inanimate_010_left.png","inanimate","left","pair","media/stimuli/inanimate_010_right.png","inanimate","right","single","number_pose"
"","","","","","html-keyboard-response","77","237286","0.0-77.0","SS1678233219900","63ebb210456ad684e3fe6ded","6406d7f26dd5b7fc1e3377bd","6407ce7e6be4326bb307add7","1920","969","","1032","","j","","","","","","","<img src=""media/stimuli/inanimate_009_left.png"" class=""coveredImage test"" style = ""width:100px; height:100px; position:fixed; top:10%;    transform: translate(-50%, -50%);left:48%""></img><img src=""media/stimuli/inanimate_009_left.png"" class=""coveredImage test"" style = ""width:100px; height:100px;position:fixed; top:25%;        transform: translate(-50%, -50%);left:34.5%""></img><img src=""media/stimuli/inanimate_009_left.png"" class=""coveredImage test"" style = ""width:100px; height:100px;position:fixed; top:25%;        transform: translate(-50%, -50%);left:41.5%""></img><img src=""media/stimuli/inanimate_009_right.png"" class=""coveredImage test"" style = ""width:100px; height:100px;position:fixed; top:25%;        transform: translate(-50%, -50%);left:58%""></img><img src=""media/f.png""style = ""width:30px x; height:30px;position:fixed; top:43%;    transform: translate(-50%, -50%);left:40%""></img><img src=""media/j.png""style = ""width:30px; height:30px;position:fixed; top:43%;    transform: translate(-50%, -50%);left:60%""></img>","media/stimuli/inanimate_009_left.png","inanimate","left","single","media/stimuli/inanimate_009_left.png","inanimate","left","pair","media/stimuli/inanimate_009_right.png","inanimate","right","single","number_pose"
"","","","","","html-keyboard-response","78","238633","0.0-78.0","SS1678233219900","63ebb210456ad684e3fe6ded","6406d7f26dd5b7fc1e3377bd","6407ce7e6be4326bb307add7","1920","969","","1345","","j","","","","","","","<img src=""media/stimuli/inanimate_003_left.png"" class=""coveredImage test"" style = ""width:100px; height:100px; position:fixed; top:10%;    transform: translate(-50%, -50%);left:44.5%""></img><img src=""media/stimuli/inanimate_003_left.png"" class=""coveredImage test"" style = ""width:100px; height:100px; position:fixed; top:10%;    transform: translate(-50%, -50%);left:51.5%""></img><img src=""media/stimuli/inanimate_006_left.png"" class=""coveredImage test"" style = ""width:100px; height:100px;position:fixed; top:25%;        transform: translate(-50%, -50%);left:34.5%""></img><img src=""media/stimuli/inanimate_006_left.png"" class=""coveredImage test"" style = ""width:100px; height:100px;position:fixed; top:25%;        transform: translate(-50%, -50%);left:41.5%""></img><img src=""media/stimuli/inanimate_003_left.png"" class=""coveredImage test"" style = ""width:100px; height:100px;position:fixed; top:25%;        transform: translate(-50%, -50%);left:58%""></img><img src=""media/f.png""style = ""width:30px x; height:30px;position:fixed; top:43%;    transform: translate(-50%, -50%);left:40%""></img><img src=""media/j.png""style = ""width:30px; height:30px;position:fixed; top:43%;    transform: translate(-50%, -50%);left:60%""></img>","media/stimuli/inanimate_003_left.png","inanimate","left","pair","media/stimuli/inanimate_006_left.png","inanimate","left","pair","media/stimuli/inanimate_003_left.png","inanimate","left","single","identity_number"
"","","","","","html-keyboard-response","79","244209","0.0-79.0","SS1678233219900","63ebb210456ad684e3fe6ded","6406d7f26dd5b7fc1e3377bd","6407ce7e6be4326bb307add7","1920","969","","5574","","f","","","","","","","<img src=""media/stimuli/inanimate_004_right.png"" class=""coveredImage test"" style = ""width:100px; height:100px; position:fixed; top:10%;    transform: translate(-50%, -50%);left:48%""></img><img src=""media/stimuli/inanimate_004_left.png"" class=""coveredImage test"" style = ""width:100px; height:100px;position:fixed; top:25%;        transform: translate(-50%, -50%);left:38%""></img><img src=""media/stimuli/inanimate_001_right.png"" class=""coveredImage test"" style = ""width:100px; height:100px;position:fixed; top:25%;        transform: translate(-50%, -50%);left:58%""></img><img src=""media/f.png""style = ""width:30px x; height:30px;position:fixed; top:43%;    transform: translate(-50%, -50%);left:40%""></img><img src=""media/j.png""style = ""width:30px; height:30px;position:fixed; top:43%;    transform: translate(-50%, -50%);left:60%""></img>","media/stimuli/inanimate_004_right.png","inanimate","right","single","media/stimuli/inanimate_004_left.png","inanimate","left","single","media/stimuli/inanimate_001_right.png","inanimate","right","single","pose_identity"
"","","","","","html-keyboard-response","80","245703","0.0-80.0","SS1678233219900","63ebb210456ad684e3fe6ded","6406d7f26dd5b7fc1e3377bd","6407ce7e6be4326bb307add7","1920","969","","1492","","j","","","","","","","<img src=""media/stimuli/animate_010_left.png"" class=""coveredImage test"" style = ""width:100px; height:100px; position:fixed; top:10%;    transform: translate(-50%, -50%);left:44.5%""></img><img src=""media/stimuli/animate_010_left.png"" class=""coveredImage test"" style = ""width:100px; height:100px; position:fixed; top:10%;    transform: translate(-50%, -50%);left:51.5%""></img><img src=""media/stimuli/animate_010_left.png"" class=""coveredImage test"" style = ""width:100px; height:100px;position:fixed; top:25%;        transform: translate(-50%, -50%);left:38%""></img><img src=""media/stimuli/animate_010_right.png"" class=""coveredImage test"" style = ""width:100px; height:100px;position:fixed; top:25%;        transform: translate(-50%, -50%);left:54.5%""></img><img src=""media/stimuli/animate_010_right.png"" class=""coveredImage test"" style = ""width:100px; height:100px;position:fixed; top:25%;        transform: translate(-50%, -50%);left:61.5%""></img><img src=""media/f.png""style = ""width:30px x; height:30px;position:fixed; top:43%;    transform: translate(-50%, -50%);left:40%""></img><img src=""media/j.png""style = ""width:30px; height:30px;position:fixed; top:43%;    transform: translate(-50%, -50%);left:60%""></img>","media/stimuli/animate_010_left.png","animate","left","pair","media/stimuli/animate_010_left.png","animate","left","single","media/stimuli/animate_010_right.png","animate","right","pair","number_pose"
"","","","","","html-keyboard-response","81","246898","0.0-81.0","SS1678233219900","63ebb210456ad684e3fe6ded","6406d7f26dd5b7fc1e3377bd","6407ce7e6be4326bb307add7","1920","969","","1193","","j","","","","","","","<img src=""media/stimuli/animate_003_right.png"" class=""coveredImage test"" style = ""width:100px; height:100px; position:fixed; top:10%;    transform: translate(-50%, -50%);left:44.5%""></img><img src=""media/stimuli/animate_003_right.png"" class=""coveredImage test"" style = ""width:100px; height:100px; position:fixed; top:10%;    transform: translate(-50%, -50%);left:51.5%""></img><img src=""media/stimuli/inanimate_008_right.png"" class=""coveredImage test"" style = ""width:100px; height:100px;position:fixed; top:25%;        transform: translate(-50%, -50%);left:34.5%""></img><img src=""media/stimuli/inanimate_008_right.png"" class=""coveredImage test"" style = ""width:100px; height:100px;position:fixed; top:25%;        transform: translate(-50%, -50%);left:41.5%""></img><img src=""media/stimuli/animate_003_right.png"" class=""coveredImage test"" style = ""width:100px; height:100px;position:fixed; top:25%;        transform: translate(-50%, -50%);left:58%""></img><img src=""media/f.png""style = ""width:30px x; height:30px;position:fixed; top:43%;    transform: translate(-50%, -50%);left:40%""></img><img src=""media/j.png""style = ""width:30px; height:30px;position:fixed; top:43%;    transform: translate(-50%, -50%);left:60%""></img>","media/stimuli/animate_003_right.png","animate","right","pair","media/stimuli/inanimate_008_right.png","inanimate","right","pair","media/stimuli/animate_003_right.png","animate","right","single","animacy_number"
"","","","","","html-keyboard-response","82","248142","0.0-82.0","SS1678233219900","63ebb210456ad684e3fe6ded","6406d7f26dd5b7fc1e3377bd","6407ce7e6be4326bb307add7","1920","969","","1242","","f","","","","","","","<img src=""media/stimuli/inanimate_007_left.png"" class=""coveredImage test"" style = ""width:100px; height:100px; position:fixed; top:10%;    transform: translate(-50%, -50%);left:48%""></img><img src=""media/stimuli/inanimate_007_left.png"" class=""coveredImage test"" style = ""width:100px; height:100px;position:fixed; top:25%;        transform: translate(-50%, -50%);left:34.5%""></img><img src=""media/stimuli/inanimate_007_left.png"" class=""coveredImage test"" style = ""width:100px; height:100px;position:fixed; top:25%;        transform: translate(-50%, -50%);left:41.5%""></img><img src=""media/stimuli/inanimate_007_right.png"" class=""coveredImage test"" style = ""width:100px; height:100px;position:fixed; top:25%;        transform: translate(-50%, -50%);left:58%""></img><img src=""media/f.png""style = ""width:30px x; height:30px;position:fixed; top:43%;    transform: translate(-50%, -50%);left:40%""></img><img src=""media/j.png""style = ""width:30px; height:30px;position:fixed; top:43%;    transform: translate(-50%, -50%);left:60%""></img>","media/stimuli/inanimate_007_left.png","inanimate","left","single","media/stimuli/inanimate_007_left.png","inanimate","left","pair","media/stimuli/inanimate_007_right.png","inanimate","right","single","number_pose"
"","","","","","html-keyboard-response","83","250261","0.0-83.0","SS1678233219900","63ebb210456ad684e3fe6ded","6406d7f26dd5b7fc1e3377bd","6407ce7e6be4326bb307add7","1920","969","","2116","","f","","","","","","","<img src=""media/stimuli/inanimate_007_left.png"" class=""coveredImage test"" style = ""width:100px; height:100px; position:fixed; top:10%;    transform: translate(-50%, -50%);left:48%""></img><img src=""media/stimuli/inanimate_008_left.png"" class=""coveredImage test"" style = ""width:100px; height:100px;position:fixed; top:25%;        transform: translate(-50%, -50%);left:38%""></img><img src=""media/stimuli/animate_010_left.png"" class=""coveredImage test"" style = ""width:100px; height:100px;position:fixed; top:25%;        transform: translate(-50%, -50%);left:58%""></img><img src=""media/f.png""style = ""width:30px x; height:30px;position:fixed; top:43%;    transform: translate(-50%, -50%);left:40%""></img><img src=""media/j.png""style = ""width:30px; height:30px;position:fixed; top:43%;    transform: translate(-50%, -50%);left:60%""></img>","media/stimuli/inanimate_007_left.png","inanimate","left","single","media/stimuli/inanimate_008_left.png","inanimate","left","single","media/stimuli/animate_010_left.png","animate","left","single","identity_animacy"
"","","","","","html-keyboard-response","84","252278","0.0-84.0","SS1678233219900","63ebb210456ad684e3fe6ded","6406d7f26dd5b7fc1e3377bd","6407ce7e6be4326bb307add7","1920","969","","2015","","j","","","","","","","<img src=""media/stimuli/inanimate_003_right.png"" class=""coveredImage test"" style = ""width:100px; height:100px; position:fixed; top:10%;    transform: translate(-50%, -50%);left:44.5%""></img><img src=""media/stimuli/inanimate_003_right.png"" class=""coveredImage test"" style = ""width:100px; height:100px; position:fixed; top:10%;    transform: translate(-50%, -50%);left:51.5%""></img><img src=""media/stimuli/animate_003_right.png"" class=""coveredImage test"" style = ""width:100px; height:100px;position:fixed; top:25%;        transform: translate(-50%, -50%);left:34.5%""></img><img src=""media/stimuli/animate_003_right.png"" class=""coveredImage test"" style = ""width:100px; height:100px;position:fixed; top:25%;        transform: translate(-50%, -50%);left:41.5%""></img><img src=""media/stimuli/inanimate_001_right.png"" class=""coveredImage test"" style = ""width:100px; height:100px;position:fixed; top:25%;        transform: translate(-50%, -50%);left:54.5%""></img><img src=""media/stimuli/inanimate_001_right.png"" class=""coveredImage test"" style = ""width:100px; height:100px;position:fixed; top:25%;        transform: translate(-50%, -50%);left:61.5%""></img><img src=""media/f.png""style = ""width:30px x; height:30px;position:fixed; top:43%;    transform: translate(-50%, -50%);left:40%""></img><img src=""media/j.png""style = ""width:30px; height:30px;position:fixed; top:43%;    transform: translate(-50%, -50%);left:60%""></img>","media/stimuli/inanimate_003_right.png","inanimate","right","pair","media/stimuli/animate_003_right.png","animate","right","pair","media/stimuli/inanimate_001_right.png","inanimate","right","pair","animacy_identity"
"","","","","","html-keyboard-response","85","252885","0.0-85.0","SS1678233219900","63ebb210456ad684e3fe6ded","6406d7f26dd5b7fc1e3377bd","6407ce7e6be4326bb307add7","1920","969","","604","","j","","","","","","","","","","","","","","","","","","","",""
"","","","","","survey-likert","86","256533","0.0-86.0","SS1678233219900","63ebb210456ad684e3fe6ded","6406d7f26dd5b7fc1e3377bd","6407ce7e6be4326bb307add7","1920","969","","3645","","{""Q0"":2}","[0]","complexity","media/stimuli/inanimate_012_left.png","inanimate","pair","left","","","","","","","","","","","","","",""
"","","","","","survey-likert","87","260120","0.0-87.0","SS1678233219900","63ebb210456ad684e3fe6ded","6406d7f26dd5b7fc1e3377bd","6407ce7e6be4326bb307add7","1920","969","","3582","","{""Q0"":2}","[0]","complexity","media/stimuli/animate_011_right.png","animate","single","right","","","","","","","","","","","","","",""
"","","","","","survey-likert","88","261332","0.0-88.0","SS1678233219900","63ebb210456ad684e3fe6ded","6406d7f26dd5b7fc1e3377bd","6407ce7e6be4326bb307add7","1920","969","","1207","","{""Q0"":2}","[0]","complexity","media/stimuli/inanimate_008_right.png","inanimate","single","right","","","","","","","","","","","","","",""
"","","","","","survey-likert","89","262524","0.0-89.0","SS1678233219900","63ebb210456ad684e3fe6ded","6406d7f26dd5b7fc1e3377bd","6407ce7e6be4326bb307add7","1920","969","","1187","","{""Q0"":2}","[0]","complexity","media/stimuli/animate_012_right.png","animate","pair","right","","","","","","","","","","","","","",""
"","","","","","survey-likert","90","263489","0.0-90.0","SS1678233219900","63ebb210456ad684e3fe6ded","6406d7f26dd5b7fc1e3377bd","6407ce7e6be4326bb307add7","1920","969","","960","","{""Q0"":2}","[0]","complexity","media/stimuli/animate_004_left.png","animate","pair","left","","","","","","","","","","","","","",""
"","","","","","survey-likert","91","264487","0.0-91.0","SS1678233219900","63ebb210456ad684e3fe6ded","6406d7f26dd5b7fc1e3377bd","6407ce7e6be4326bb307add7","1920","969","","993","","{""Q0"":2}","[0]","complexity","media/stimuli/inanimate_004_left.png","inanimate","single","left","","","","","","","","","","","","","",""
"","","","","","survey-likert","92","265295","0.0-92.0","SS1678233219900","63ebb210456ad684e3fe6ded","6406d7f26dd5b7fc1e3377bd","6407ce7e6be4326bb307add7","1920","969","","803","","{""Q0"":2}","[0]","complexity","media/stimuli/animate_003_right.png","animate","pair","right","","","","","","","","","","","","","",""
"","","","","","survey-likert","93","266510","0.0-93.0","SS1678233219900","63ebb210456ad684e3fe6ded","6406d7f26dd5b7fc1e3377bd","6407ce7e6be4326bb307add7","1920","969","","1209","","{""Q0"":2}","[0]","complexity","media/stimuli/animate_008_left.png","animate","single","left","","","","","","","","","","","","","",""
"","","","","","survey-likert","94","267554","0.0-94.0","SS1678233219900","63ebb210456ad684e3fe6ded","6406d7f26dd5b7fc1e3377bd","6407ce7e6be4326bb307add7","1920","969","","1039","","{""Q0"":2}","[0]","complexity","media/stimuli/inanimate_004_left.png","inanimate","pair","left","","","","","","","","","","","","","",""
"","","","","","survey-likert","95","269052","0.0-95.0","SS1678233219900","63ebb210456ad684e3fe6ded","6406d7f26dd5b7fc1e3377bd","6407ce7e6be4326bb307add7","1920","969","","1493","","{""Q0"":2}","[0]","complexity","media/stimuli/animate_011_left.png","animate","pair","left","","","","","","","","","","","","","",""
"","","","","","survey-likert","96","270600","0.0-96.0","SS1678233219900","63ebb210456ad684e3fe6ded","6406d7f26dd5b7fc1e3377bd","6407ce7e6be4326bb307add7","1920","969","","1543","","{""Q0"":2}","[0]","complexity","media/stimuli/animate_007_right.png","animate","single","right","","","","","","","","","","","","","",""
"","","","","","survey-likert","97","272200","0.0-97.0","SS1678233219900","63ebb210456ad684e3fe6ded","6406d7f26dd5b7fc1e3377bd","6407ce7e6be4326bb307add7","1920","969","","1595","","{""Q0"":2}","[0]","complexity","media/stimuli/animate_002_left.png","animate","single","left","","","","","","","","","","","","","",""
"","","","","","html-keyboard-response","98","273663","0.0-98.0","SS1678233219900","63ebb210456ad684e3fe6ded","6406d7f26dd5b7fc1e3377bd","6407ce7e6be4326bb307add7","1920","969","","1458","","x","","","","","","","","","","","","","","","","","","","",""
"","","","","","survey-likert","99","276376","0.0-99.0","SS1678233219900","63ebb210456ad684e3fe6ded","6406d7f26dd5b7fc1e3377bd","6407ce7e6be4326bb307add7","1920","969","","2710","","{""Q0"":2}","[0]","complexity","media/stimuli/inanimate_003_right.png","inanimate","pair","right","","","","","","","","","","","","","",""
"","","","","","survey-likert","100","277412","0.0-100.0","SS1678233219900","63ebb210456ad684e3fe6ded","6406d7f26dd5b7fc1e3377bd","6407ce7e6be4326bb307add7","1920","969","","1030","","{""Q0"":2}","[0]","complexity","media/stimuli/animate_012_right.png","animate","single","right","","","","","","","","","","","","","",""
"","","","","","survey-likert","101","278388","0.0-101.0","SS1678233219900","63ebb210456ad684e3fe6ded","6406d7f26dd5b7fc1e3377bd","6407ce7e6be4326bb307add7","1920","969","","970","","{""Q0"":2}","[0]","complexity","media/stimuli/animate_003_left.png","animate","single","left","","","","","","","","","","","","","",""
"","","","","","survey-likert","102","281070","0.0-102.0","SS1678233219900","63ebb210456ad684e3fe6ded","6406d7f26dd5b7fc1e3377bd","6407ce7e6be4326bb307add7","1920","969","","2677","","{""Q0"":2}","[0]","complexity","media/stimuli/inanimate_009_left.png","inanimate","pair","left","","","","","","","","","","","","","",""
"","","","","","survey-likert","103","282420","0.0-103.0","SS1678233219900","63ebb210456ad684e3fe6ded","6406d7f26dd5b7fc1e3377bd","6407ce7e6be4326bb307add7","1920","969","","1345","","{""Q0"":2}","[0]","complexity","media/stimuli/inanimate_009_right.png","inanimate","single","right","","","","","","","","","","","","","",""
"","","","","","survey-likert","104","283631","0.0-104.0","SS1678233219900","63ebb210456ad684e3fe6ded","6406d7f26dd5b7fc1e3377bd","6407ce7e6be4326bb307add7","1920","969","","1206","","{""Q0"":2}","[0]","complexity","media/stimuli/inanimate_005_right.png","inanimate","single","right","","","","","","","","","","","","","",""
"","","","","","survey-likert","105","284523","0.0-105.0","SS1678233219900","63ebb210456ad684e3fe6ded","6406d7f26dd5b7fc1e3377bd","6407ce7e6be4326bb307add7","1920","969","","887","","{""Q0"":2}","[0]","complexity","media/stimuli/inanimate_008_left.png","inanimate","single","left","","","","","","","","","","","","","",""
"","","","","","survey-likert","106","285661","0.0-106.0","SS1678233219900","63ebb210456ad684e3fe6ded","6406d7f26dd5b7fc1e3377bd","6407ce7e6be4326bb307add7","1920","969","","1132","","{""Q0"":2}","[0]","complexity","media/stimuli/animate_011_left.png","animate","single","left","","","","","","","","","","","","","",""
"","","","","","survey-likert","107","286624","0.0-107.0","SS1678233219900","63ebb210456ad684e3fe6ded","6406d7f26dd5b7fc1e3377bd","6407ce7e6be4326bb307add7","1920","969","","958","","{""Q0"":2}","[0]","complexity","media/stimuli/inanimate_003_left.png","inanimate","single","left","","","","","","","","","","","","","",""
"","","","","","survey-likert","108","287648","0.0-108.0","SS1678233219900","63ebb210456ad684e3fe6ded","6406d7f26dd5b7fc1e3377bd","6407ce7e6be4326bb307add7","1920","969","","1019","","{""Q0"":2}","[0]","complexity","media/stimuli/animate_012_left.png","animate","pair","left","","","","","","","","","","","","","",""
"","","","","","survey-likert","109","288707","0.0-109.0","SS1678233219900","63ebb210456ad684e3fe6ded","6406d7f26dd5b7fc1e3377bd","6407ce7e6be4326bb307add7","1920","969","","1054","","{""Q0"":2}","[0]","complexity","media/stimuli/animate_008_right.png","animate","single","right","","","","","","","","","","","","","",""
"","","","","","survey-likert","110","289686","0.0-110.0","SS1678233219900","63ebb210456ad684e3fe6ded","6406d7f26dd5b7fc1e3377bd","6407ce7e6be4326bb307add7","1920","969","","974","","{""Q0"":2}","[0]","complexity","media/stimuli/animate_003_left.png","animate","pair","left","","","","","","","","","","","","","",""
"","","","","","html-keyboard-response","111","290965","0.0-111.0","SS1678233219900","63ebb210456ad684e3fe6ded","6406d7f26dd5b7fc1e3377bd","6407ce7e6be4326bb307add7","1920","969","","1275","","h","","","","","","","","","","","","","","","","","","","",""
"","","","","","html-keyboard-response","112","293369","0.0-112.0","SS1678233219900","63ebb210456ad684e3fe6ded","6406d7f26dd5b7fc1e3377bd","6407ce7e6be4326bb307add7","1920","969","","2401","","f","","","","","","","<img src=""media/stimuli/inanimate_007_left.png"" class=""coveredImage test"" style = ""width:100px; height:100px; position:fixed; top:10%;    transform: translate(-50%, -50%);left:48%""></img><img src=""media/stimuli/inanimate_007_left.png"" class=""coveredImage test"" style = ""width:100px; height:100px;position:fixed; top:25%;        transform: translate(-50%, -50%);left:34.5%""></img><img src=""media/stimuli/inanimate_007_left.png"" class=""coveredImage test"" style = ""width:100px; height:100px;position:fixed; top:25%;        transform: translate(-50%, -50%);left:41.5%""></img><img src=""media/stimuli/inanimate_005_left.png"" class=""coveredImage test"" style = ""width:100px; height:100px;position:fixed; top:25%;        transform: translate(-50%, -50%);left:58%""></img><img src=""media/f.png""style = ""width:30px x; height:30px;position:fixed; top:43%;    transform: translate(-50%, -50%);left:40%""></img><img src=""media/j.png""style = ""width:30px; height:30px;position:fixed; top:43%;    transform: translate(-50%, -50%);left:60%""></img>","media/stimuli/inanimate_007_left.png","inanimate","left","single","media/stimuli/inanimate_007_left.png","inanimate","left","pair","media/stimuli/inanimate_005_left.png","inanimate","left","single","number_identity"
"","","","","","html-keyboard-response","113","294169","0.0-113.0","SS1678233219900","63ebb210456ad684e3fe6ded","6406d7f26dd5b7fc1e3377bd","6407ce7e6be4326bb307add7","1920","969","","796","","j","","","","","","","<img src=""media/stimuli/animate_010_left.png"" class=""coveredImage test"" style = ""width:100px; height:100px; position:fixed; top:10%;    transform: translate(-50%, -50%);left:44.5%""></img><img src=""media/stimuli/animate_010_left.png"" class=""coveredImage test"" style = ""width:100px; height:100px; position:fixed; top:10%;    transform: translate(-50%, -50%);left:51.5%""></img><img src=""media/stimuli/animate_008_left.png"" class=""coveredImage test"" style = ""width:100px; height:100px;position:fixed; top:25%;        transform: translate(-50%, -50%);left:34.5%""></img><img src=""media/stimuli/animate_008_left.png"" class=""coveredImage test"" style = ""width:100px; height:100px;position:fixed; top:25%;        transform: translate(-50%, -50%);left:41.5%""></img><img src=""media/stimuli/animate_010_right.png"" class=""coveredImage test"" style = ""width:100px; height:100px;position:fixed; top:25%;        transform: translate(-50%, -50%);left:54.5%""></img><img src=""media/stimuli/animate_010_right.png"" class=""coveredImage test"" style = ""width:100px; height:100px;position:fixed; top:25%;        transform: translate(-50%, -50%);left:61.5%""></img><img src=""media/f.png""style = ""width:30px x; height:30px;position:fixed; top:43%;    transform: translate(-50%, -50%);left:40%""></img><img src=""media/j.png""style = ""width:30px; height:30px;position:fixed; top:43%;    transform: translate(-50%, -50%);left:60%""></img>","media/stimuli/animate_010_left.png","animate","left","pair","media/stimuli/animate_008_left.png","animate","left","pair","media/stimuli/animate_010_right.png","animate","right","pair","identity_pose"
"","","","","","html-keyboard-response","114","295056","0.0-114.0","SS1678233219900","63ebb210456ad684e3fe6ded","6406d7f26dd5b7fc1e3377bd","6407ce7e6be4326bb307add7","1920","969","","884","","j","","","","","","","<img src=""media/stimuli/inanimate_010_left.png"" class=""coveredImage test"" style = ""width:100px; height:100px; position:fixed; top:10%;    transform: translate(-50%, -50%);left:48%""></img><img src=""media/stimuli/animate_001_left.png"" class=""coveredImage test"" style = ""width:100px; height:100px;position:fixed; top:25%;        transform: translate(-50%, -50%);left:38%""></img><img src=""media/stimuli/inanimate_010_right.png"" class=""coveredImage test"" style = ""width:100px; height:100px;position:fixed; top:25%;        transform: translate(-50%, -50%);left:58%""></img><img src=""media/f.png""style = ""width:30px x; height:30px;position:fixed; top:43%;    transform: translate(-50%, -50%);left:40%""></img><img src=""media/j.png""style = ""width:30px; height:30px;position:fixed; top:43%;    transform: translate(-50%, -50%);left:60%""></img>","media/stimuli/inanimate_010_left.png","inanimate","left","single","media/stimuli/animate_001_left.png","animate","left","single","media/stimuli/inanimate_010_right.png","inanimate","right","single","animacy_pose"
