"success","timeout","failed_images","failed_audio","failed_video","trial_type","trial_index","time_elapsed","internal_node_id","subject","prolific_id","study","session","window_width","window_height","view_history","rt","stimulus_type","response","question_order","rating_type","stimulus","target","target_animacy","target_pose","target_number","left","left_animacy","left_pose","left_number","right","right_animacy","right_pose","right_number","comparison_type","rating_stimulus","rating_animacy","rating_number","rating_pose"
"true","false","[]","[]","[]","preload","0","1950","0.0-0.0","SS1678233196629","6294ea611ee4f49421c6b905","6406d7f26dd5b7fc1e3377bd","6407ce5d77d8ae11e607ae00","502","746","","","","","","","","","","","","","","","","","","","","","","","",""
"","","","","","instructions","1","11828","0.0-1.0","SS1678233196629","6294ea611ee4f49421c6b905","6406d7f26dd5b7fc1e3377bd","6407ce5d77d8ae11e607ae00","502","746","[{""page_index"":0,""viewing_time"":9876}]","9876","","","","","","","","","","","","","","","","","","","","","",""
"","","","","","instructions","2","37955","0.0-2.0","SS1678233196629","6294ea611ee4f49421c6b905","6406d7f26dd5b7fc1e3377bd","6407ce5d77d8ae11e607ae00","502","746","[{""page_index"":0,""viewing_time"":24119}]","24119","instructions","","","","","","","","","","","","","","","","","","","","",""
"","","","","","instructions","3","43253","0.0-3.0","SS1678233196629","6294ea611ee4f49421c6b905","6406d7f26dd5b7fc1e3377bd","6407ce5d77d8ae11e607ae00","502","746","[{""page_index"":0,""viewing_time"":5296}]","5297","instructions","","","","","","","","","","","","","","","","","","","","",""
"","","","","","survey-likert","4","53671","0.0-4.0","SS1678233196629","6294ea611ee4f49421c6b905","6406d7f26dd5b7fc1e3377bd","6407ce5d77d8ae11e607ae00","502","746","","10416","","{""Q0"":5}","[0]","anchoring","","","","","","","","","","","","","","","","","",""
"","","","","","survey-likert","5","67674","0.0-5.0","SS1678233196629","6294ea611ee4f49421c6b905","6406d7f26dd5b7fc1e3377bd","6407ce5d77d8ae11e607ae00","502","746","","14000","","{""Q0"":1}","[0]","anchoring","","","","","","","","","","","","","","","","","",""
"","","","","","instructions","6","69081","0.0-6.0","SS1678233196629","6294ea611ee4f49421c6b905","6406d7f26dd5b7fc1e3377bd","6407ce5d77d8ae11e607ae00","502","746","[{""page_index"":0,""viewing_time"":1405}]","1405","instructions","","","","","","","","","","","","","","","","","","","","",""
"true","","","","","fullscreen","7","80968","0.0-7.0","SS1678233196629","6294ea611ee4f49421c6b905","6406d7f26dd5b7fc1e3377bd","6407ce5d77d8ae11e607ae00","502","746","","","","","","","","","","","","","","","","","","","","","","","",""
"","","","","","html-keyboard-response","8","88871","0.0-8.0","SS1678233196629","6294ea611ee4f49421c6b905","6406d7f26dd5b7fc1e3377bd","6407ce5d77d8ae11e607ae00","502","746","","7902","","j","","","<img src=""media/stimuli/animate_007_left.png"" class=""coveredImage test"" style = ""width:100px; height:100px; position:fixed; top:10%;    transform: translate(-50%, -50%);left:48%""></img><img src=""media/stimuli/inanimate_007_right.png"" class=""coveredImage test"" style = ""width:100px; height:100px;position:fixed; top:25%;        transform: translate(-50%, -50%);left:38%""></img><img src=""media/stimuli/animate_007_left.png"" class=""coveredImage test"" style = ""width:100px; height:100px;position:fixed; top:25%;        transform: translate(-50%, -50%);left:58%""></img><img src=""media/f.png""style = ""width:30px x; height:30px;position:fixed; top:43%;    transform: translate(-50%, -50%);left:40%""></img><img src=""media/j.png""style = ""width:30px; height:30px;position:fixed; top:43%;    transform: translate(-50%, -50%);left:60%""></img>","media/stimuli/animate_007_left.png","animate","left","single","media/stimuli/inanimate_007_right.png","inanimate","right","single","media/stimuli/animate_007_left.png","animate","left","single","animacy_pose","","","",""
"","","","","","html-keyboard-response","9","90829","0.0-9.0","SS1678233196629","6294ea611ee4f49421c6b905","6406d7f26dd5b7fc1e3377bd","6407ce5d77d8ae11e607ae00","502","746","","1957","","f","","","<img src=""media/stimuli/inanimate_007_right.png"" class=""coveredImage test"" style = ""width:100px; height:100px; position:fixed; top:10%;    transform: translate(-50%, -50%);left:44.5%""></img><img src=""media/stimuli/inanimate_007_right.png"" class=""coveredImage test"" style = ""width:100px; height:100px; position:fixed; top:10%;    transform: translate(-50%, -50%);left:51.5%""></img><img src=""media/stimuli/inanimate_007_right.png"" class=""coveredImage test"" style = ""width:100px; height:100px;position:fixed; top:25%;        transform: translate(-50%, -50%);left:38%""></img><img src=""media/stimuli/animate_009_right.png"" class=""coveredImage test"" style = ""width:100px; height:100px;position:fixed; top:25%;        transform: translate(-50%, -50%);left:54.5%""></img><img src=""media/stimuli/animate_009_right.png"" class=""coveredImage test"" style = ""width:100px; height:100px;position:fixed; top:25%;        transform: translate(-50%, -50%);left:61.5%""></img><img src=""media/f.png""style = ""width:30px x; height:30px;position:fixed; top:43%;    transform: translate(-50%, -50%);left:40%""></img><img src=""media/j.png""style = ""width:30px; height:30px;position:fixed; top:43%;    transform: translate(-50%, -50%);left:60%""></img>","media/stimuli/inanimate_007_right.png","inanimate","right","pair","media/stimuli/inanimate_007_right.png","inanimate","right","single","media/stimuli/animate_009_right.png","animate","right","pair","number_animacy","","","",""
"","","","","","html-keyboard-response","10","91737","0.0-10.0","SS1678233196629","6294ea611ee4f49421c6b905","6406d7f26dd5b7fc1e3377bd","6407ce5d77d8ae11e607ae00","502","746","","906","","j","","","<img src=""media/stimuli/inanimate_004_left.png"" class=""coveredImage test"" style = ""width:100px; height:100px; position:fixed; top:10%;    transform: translate(-50%, -50%);left:44.5%""></img><img src=""media/stimuli/inanimate_004_left.png"" class=""coveredImage test"" style = ""width:100px; height:100px; position:fixed; top:10%;    transform: translate(-50%, -50%);left:51.5%""></img><img src=""media/stimuli/animate_010_left.png"" class=""coveredImage test"" style = ""width:100px; height:100px;position:fixed; top:25%;        transform: translate(-50%, -50%);left:34.5%""></img><img src=""media/stimuli/animate_010_left.png"" class=""coveredImage test"" style = ""width:100px; height:100px;position:fixed; top:25%;        transform: translate(-50%, -50%);left:41.5%""></img><img src=""media/stimuli/inanimate_004_left.png"" class=""coveredImage test"" style = ""width:100px; height:100px;position:fixed; top:25%;        transform: translate(-50%, -50%);left:58%""></img><img src=""media/f.png""style = ""width:30px x; height:30px;position:fixed; top:43%;    transform: translate(-50%, -50%);left:40%""></img><img src=""media/j.png""style = ""width:30px; height:30px;position:fixed; top:43%;    transform: translate(-50%, -50%);left:60%""></img>","media/stimuli/inanimate_004_left.png","inanimate","left","pair","media/stimuli/animate_010_left.png","animate","left","pair","media/stimuli/inanimate_004_left.png","inanimate","left","single","animacy_number","","","",""
"","","","","","html-keyboard-response","11","93491","0.0-11.0","SS1678233196629","6294ea611ee4f49421c6b905","6406d7f26dd5b7fc1e3377bd","6407ce5d77d8ae11e607ae00","502","746","","1753","","f","","","<img src=""media/stimuli/animate_007_left.png"" class=""coveredImage test"" style = ""width:100px; height:100px; position:fixed; top:10%;    transform: translate(-50%, -50%);left:48%""></img><img src=""media/stimuli/animate_007_left.png"" class=""coveredImage test"" style = ""width:100px; height:100px;position:fixed; top:25%;        transform: translate(-50%, -50%);left:38%""></img><img src=""media/stimuli/inanimate_011_right.png"" class=""coveredImage test"" style = ""width:100px; height:100px;position:fixed; top:25%;        transform: translate(-50%, -50%);left:58%""></img><img src=""media/f.png""style = ""width:30px x; height:30px;position:fixed; top:43%;    transform: translate(-50%, -50%);left:40%""></img><img src=""media/j.png""style = ""width:30px; height:30px;position:fixed; top:43%;    transform: translate(-50%, -50%);left:60%""></img>","media/stimuli/animate_007_left.png","animate","left","single","media/stimuli/animate_007_left.png","animate","left","single","media/stimuli/inanimate_011_right.png","inanimate","right","single","pose_animacy","","","",""
"","","","","","html-keyboard-response","12","94459","0.0-12.0","SS1678233196629","6294ea611ee4f49421c6b905","6406d7f26dd5b7fc1e3377bd","6407ce5d77d8ae11e607ae00","502","746","","966","","f","","","<img src=""media/stimuli/inanimate_002_left.png"" class=""coveredImage test"" style = ""width:100px; height:100px; position:fixed; top:10%;    transform: translate(-50%, -50%);left:44.5%""></img><img src=""media/stimuli/inanimate_002_left.png"" class=""coveredImage test"" style = ""width:100px; height:100px; position:fixed; top:10%;    transform: translate(-50%, -50%);left:51.5%""></img><img src=""media/stimuli/inanimate_002_left.png"" class=""coveredImage test"" style = ""width:100px; height:100px;position:fixed; top:25%;        transform: translate(-50%, -50%);left:38%""></img><img src=""media/stimuli/animate_009_left.png"" class=""coveredImage test"" style = ""width:100px; height:100px;position:fixed; top:25%;        transform: translate(-50%, -50%);left:54.5%""></img><img src=""media/stimuli/animate_009_left.png"" class=""coveredImage test"" style = ""width:100px; height:100px;position:fixed; top:25%;        transform: translate(-50%, -50%);left:61.5%""></img><img src=""media/f.png""style = ""width:30px x; height:30px;position:fixed; top:43%;    transform: translate(-50%, -50%);left:40%""></img><img src=""media/j.png""style = ""width:30px; height:30px;position:fixed; top:43%;    transform: translate(-50%, -50%);left:60%""></img>","media/stimuli/inanimate_002_left.png","inanimate","left","pair","media/stimuli/inanimate_002_left.png","inanimate","left","single","media/stimuli/animate_009_left.png","animate","left","pair","number_animacy","","","",""
"","","","","","html-keyboard-response","13","96197","0.0-13.0","SS1678233196629","6294ea611ee4f49421c6b905","6406d7f26dd5b7fc1e3377bd","6407ce5d77d8ae11e607ae00","502","746","","1737","","f","","","<img src=""media/stimuli/inanimate_005_right.png"" class=""coveredImage test"" style = ""width:100px; height:100px; position:fixed; top:10%;    transform: translate(-50%, -50%);left:48%""></img><img src=""media/stimuli/inanimate_005_right.png"" class=""coveredImage test"" style = ""width:100px; height:100px;position:fixed; top:25%;        transform: translate(-50%, -50%);left:34.5%""></img><img src=""media/stimuli/inanimate_005_right.png"" class=""coveredImage test"" style = ""width:100px; height:100px;position:fixed; top:25%;        transform: translate(-50%, -50%);left:41.5%""></img><img src=""media/stimuli/inanimate_005_left.png"" class=""coveredImage test"" style = ""width:100px; height:100px;position:fixed; top:25%;        transform: translate(-50%, -50%);left:58%""></img><img src=""media/f.png""style = ""width:30px x; height:30px;position:fixed; top:43%;    transform: translate(-50%, -50%);left:40%""></img><img src=""media/j.png""style = ""width:30px; height:30px;position:fixed; top:43%;    transform: translate(-50%, -50%);left:60%""></img>","media/stimuli/inanimate_005_right.png","inanimate","right","single","media/stimuli/inanimate_005_right.png","inanimate","right","pair","media/stimuli/inanimate_005_left.png","inanimate","left","single","number_pose","","","",""
"","","","","","html-keyboard-response","14","97064","0.0-14.0","SS1678233196629","6294ea611ee4f49421c6b905","6406d7f26dd5b7fc1e3377bd","6407ce5d77d8ae11e607ae00","502","746","","865","","f","","","<img src=""media/stimuli/inanimate_001_left.png"" class=""coveredImage test"" style = ""width:100px; height:100px; position:fixed; top:10%;    transform: translate(-50%, -50%);left:48%""></img><img src=""media/stimuli/inanimate_001_right.png"" class=""coveredImage test"" style = ""width:100px; height:100px;position:fixed; top:25%;        transform: translate(-50%, -50%);left:38%""></img><img src=""media/stimuli/inanimate_006_left.png"" class=""coveredImage test"" style = ""width:100px; height:100px;position:fixed; top:25%;        transform: translate(-50%, -50%);left:58%""></img><img src=""media/f.png""style = ""width:30px x; height:30px;position:fixed; top:43%;    transform: translate(-50%, -50%);left:40%""></img><img src=""media/j.png""style = ""width:30px; height:30px;position:fixed; top:43%;    transform: translate(-50%, -50%);left:60%""></img>","media/stimuli/inanimate_001_left.png","inanimate","left","single","media/stimuli/inanimate_001_right.png","inanimate","right","single","media/stimuli/inanimate_006_left.png","inanimate","left","single","pose_identity","","","",""
"","","","","","html-keyboard-response","15","98010","0.0-15.0","SS1678233196629","6294ea611ee4f49421c6b905","6406d7f26dd5b7fc1e3377bd","6407ce5d77d8ae11e607ae00","502","746","","945","","j","","","<img src=""media/stimuli/animate_008_right.png"" class=""coveredImage test"" style = ""width:100px; height:100px; position:fixed; top:10%;    transform: translate(-50%, -50%);left:48%""></img><img src=""media/stimuli/inanimate_012_right.png"" class=""coveredImage test"" style = ""width:100px; height:100px;position:fixed; top:25%;        transform: translate(-50%, -50%);left:38%""></img><img src=""media/stimuli/animate_008_right.png"" class=""coveredImage test"" style = ""width:100px; height:100px;position:fixed; top:25%;        transform: translate(-50%, -50%);left:54.5%""></img><img src=""media/stimuli/animate_008_right.png"" class=""coveredImage test"" style = ""width:100px; height:100px;position:fixed; top:25%;        transform: translate(-50%, -50%);left:61.5%""></img><img src=""media/f.png""style = ""width:30px x; height:30px;position:fixed; top:43%;    transform: translate(-50%, -50%);left:40%""></img><img src=""media/j.png""style = ""width:30px; height:30px;position:fixed; top:43%;    transform: translate(-50%, -50%);left:60%""></img>","media/stimuli/animate_008_right.png","animate","right","single","media/stimuli/inanimate_012_right.png","inanimate","right","single","media/stimuli/animate_008_right.png","animate","right","pair","animacy_number","","","",""
"","","","","","html-keyboard-response","16","99417","0.0-16.0","SS1678233196629","6294ea611ee4f49421c6b905","6406d7f26dd5b7fc1e3377bd","6407ce5d77d8ae11e607ae00","502","746","","1406","","f","","","<img src=""media/stimuli/animate_007_right.png"" class=""coveredImage test"" style = ""width:100px; height:100px; position:fixed; top:10%;    transform: translate(-50%, -50%);left:48%""></img><img src=""media/stimuli/animate_007_left.png"" class=""coveredImage test"" style = ""width:100px; height:100px;position:fixed; top:25%;        transform: translate(-50%, -50%);left:38%""></img><img src=""media/stimuli/animate_010_right.png"" class=""coveredImage test"" style = ""width:100px; height:100px;position:fixed; top:25%;        transform: translate(-50%, -50%);left:58%""></img><img src=""media/f.png""style = ""width:30px x; height:30px;position:fixed; top:43%;    transform: translate(-50%, -50%);left:40%""></img><img src=""media/j.png""style = ""width:30px; height:30px;position:fixed; top:43%;    transform: translate(-50%, -50%);left:60%""></img>","media/stimuli/animate_007_right.png","animate","right","single","media/stimuli/animate_007_left.png","animate","left","single","media/stimuli/animate_010_right.png","animate","right","single","pose_identity","","","",""
"","","","","","html-keyboard-response","17","100478","0.0-17.0","SS1678233196629","6294ea611ee4f49421c6b905","6406d7f26dd5b7fc1e3377bd","6407ce5d77d8ae11e607ae00","502","746","","1059","","f","","","<img src=""media/stimuli/inanimate_009_right.png"" class=""coveredImage test"" style = ""width:100px; height:100px; position:fixed; top:10%;    transform: translate(-50%, -50%);left:44.5%""></img><img src=""media/stimuli/inanimate_009_right.png"" class=""coveredImage test"" style = ""width:100px; height:100px; position:fixed; top:10%;    transform: translate(-50%, -50%);left:51.5%""></img><img src=""media/stimuli/inanimate_009_right.png"" class=""coveredImage test"" style = ""width:100px; height:100px;position:fixed; top:25%;        transform: translate(-50%, -50%);left:34.5%""></img><img src=""media/stimuli/inanimate_009_right.png"" class=""coveredImage test"" style = ""width:100px; height:100px;position:fixed; top:25%;        transform: translate(-50%, -50%);left:41.5%""></img><img src=""media/stimuli/inanimate_001_right.png"" class=""coveredImage test"" style = ""width:100px; height:100px;position:fixed; top:25%;        transform: translate(-50%, -50%);left:54.5%""></img><img src=""media/stimuli/inanimate_001_right.png"" class=""coveredImage test"" style = ""width:100px; height:100px;position:fixed; top:25%;        transform: translate(-50%, -50%);left:61.5%""></img><img src=""media/f.png""style = ""width:30px x; height:30px;position:fixed; top:43%;    transform: translate(-50%, -50%);left:40%""></img><img src=""media/j.png""style = ""width:30px; height:30px;position:fixed; top:43%;    transform: translate(-50%, -50%);left:60%""></img>","media/stimuli/inanimate_009_right.png","inanimate","right","pair","media/stimuli/inanimate_009_right.png","inanimate","right","pair","media/stimuli/inanimate_001_right.png","inanimate","right","pair","filler_identity","","","",""
"","","","","","html-keyboard-response","18","101564","0.0-18.0","SS1678233196629","6294ea611ee4f49421c6b905","6406d7f26dd5b7fc1e3377bd","6407ce5d77d8ae11e607ae00","502","746","","1084","","f","","","<img src=""media/stimuli/animate_004_left.png"" class=""coveredImage test"" style = ""width:100px; height:100px; position:fixed; top:10%;    transform: translate(-50%, -50%);left:48%""></img><img src=""media/stimuli/animate_004_left.png"" class=""coveredImage test"" style = ""width:100px; height:100px;position:fixed; top:25%;        transform: translate(-50%, -50%);left:34.5%""></img><img src=""media/stimuli/animate_004_left.png"" class=""coveredImage test"" style = ""width:100px; height:100px;position:fixed; top:25%;        transform: translate(-50%, -50%);left:41.5%""></img><img src=""media/stimuli/inanimate_006_left.png"" class=""coveredImage test"" style = ""width:100px; height:100px;position:fixed; top:25%;        transform: translate(-50%, -50%);left:58%""></img><img src=""media/f.png""style = ""width:30px x; height:30px;position:fixed; top:43%;    transform: translate(-50%, -50%);left:40%""></img><img src=""media/j.png""style = ""width:30px; height:30px;position:fixed; top:43%;    transform: translate(-50%, -50%);left:60%""></img>","media/stimuli/animate_004_left.png","animate","left","single","media/stimuli/animate_004_left.png","animate","left","pair","media/stimuli/inanimate_006_left.png","inanimate","left","single","number_animacy","","","",""
"","","","","","html-keyboard-response","19","102383","0.0-19.0","SS1678233196629","6294ea611ee4f49421c6b905","6406d7f26dd5b7fc1e3377bd","6407ce5d77d8ae11e607ae00","502","746","","818","","j","","","<img src=""media/stimuli/inanimate_004_right.png"" class=""coveredImage test"" style = ""width:100px; height:100px; position:fixed; top:10%;    transform: translate(-50%, -50%);left:48%""></img><img src=""media/stimuli/animate_005_right.png"" class=""coveredImage test"" style = ""width:100px; height:100px;position:fixed; top:25%;        transform: translate(-50%, -50%);left:38%""></img><img src=""media/stimuli/inanimate_004_right.png"" class=""coveredImage test"" style = ""width:100px; height:100px;position:fixed; top:25%;        transform: translate(-50%, -50%);left:58%""></img><img src=""media/f.png""style = ""width:30px x; height:30px;position:fixed; top:43%;    transform: translate(-50%, -50%);left:40%""></img><img src=""media/j.png""style = ""width:30px; height:30px;position:fixed; top:43%;    transform: translate(-50%, -50%);left:60%""></img>","media/stimuli/inanimate_004_right.png","inanimate","right","single","media/stimuli/animate_005_right.png","animate","right","single","media/stimuli/inanimate_004_right.png","inanimate","right","single","animacy_filler","","","",""
"","","","","","html-keyboard-response","20","104385","0.0-20.0","SS1678233196629","6294ea611ee4f49421c6b905","6406d7f26dd5b7fc1e3377bd","6407ce5d77d8ae11e607ae00","502","746","","2002",""," ","","","","","","","","","","","","","","","","","","","",""
"","","","","","survey-likert","21","110086","0.0-21.0","SS1678233196629","6294ea611ee4f49421c6b905","6406d7f26dd5b7fc1e3377bd","6407ce5d77d8ae11e607ae00","502","746","","5699","","{""Q0"":1}","[0]","complexity","","","","","","","","","","","","","","","media/stimuli/inanimate_004_left.png","inanimate","single","left"
"","","","","","survey-likert","22","115161","0.0-22.0","SS1678233196629","6294ea611ee4f49421c6b905","6406d7f26dd5b7fc1e3377bd","6407ce5d77d8ae11e607ae00","502","746","","5072","","{""Q0"":3}","[0]","complexity","","","","","","","","","","","","","","","media/stimuli/inanimate_010_right.png","inanimate","pair","right"
"","","","","","survey-likert","23","117659","0.0-23.0","SS1678233196629","6294ea611ee4f49421c6b905","6406d7f26dd5b7fc1e3377bd","6407ce5d77d8ae11e607ae00","502","746","","2495","","{""Q0"":1}","[0]","complexity","","","","","","","","","","","","","","","media/stimuli/inanimate_009_right.png","inanimate","single","right"
"","","","","","survey-likert","24","119846","0.0-24.0","SS1678233196629","6294ea611ee4f49421c6b905","6406d7f26dd5b7fc1e3377bd","6407ce5d77d8ae11e607ae00","502","746","","2184","","{""Q0"":2}","[0]","complexity","","","","","","","","","","","","","","","media/stimuli/inanimate_012_left.png","inanimate","single","left"
"","","","","","survey-likert","25","122184","0.0-25.0","SS1678233196629","6294ea611ee4f49421c6b905","6406d7f26dd5b7fc1e3377bd","6407ce5d77d8ae11e607ae00","502","746","","2334","","{""Q0"":4}","[0]","complexity","","","","","","","","","","","","","","","media/stimuli/inanimate_008_left.png","inanimate","single","left"
"","","","","","survey-likert","26","124984","0.0-26.0","SS1678233196629","6294ea611ee4f49421c6b905","6406d7f26dd5b7fc1e3377bd","6407ce5d77d8ae11e607ae00","502","746","","2797","","{""Q0"":4}","[0]","complexity","","","","","","","","","","","","","","","media/stimuli/animate_011_right.png","animate","single","right"
"","","","","","survey-likert","27","127987","0.0-27.0","SS1678233196629","6294ea611ee4f49421c6b905","6406d7f26dd5b7fc1e3377bd","6407ce5d77d8ae11e607ae00","502","746","","3000","","{""Q0"":4}","[0]","complexity","","","","","","","","","","","","","","","media/stimuli/animate_009_right.png","animate","pair","right"
"","","","","","survey-likert","28","130299","0.0-28.0","SS1678233196629","6294ea611ee4f49421c6b905","6406d7f26dd5b7fc1e3377bd","6407ce5d77d8ae11e607ae00","502","746","","2309","","{""Q0"":1}","[0]","complexity","","","","","","","","","","","","","","","media/stimuli/inanimate_004_right.png","inanimate","pair","right"
"","","","","","survey-likert","29","132384","0.0-29.0","SS1678233196629","6294ea611ee4f49421c6b905","6406d7f26dd5b7fc1e3377bd","6407ce5d77d8ae11e607ae00","502","746","","2081","","{""Q0"":4}","[0]","complexity","","","","","","","","","","","","","","","media/stimuli/inanimate_011_left.png","inanimate","single","left"
"","","","","","survey-likert","30","134779","0.0-30.0","SS1678233196629","6294ea611ee4f49421c6b905","6406d7f26dd5b7fc1e3377bd","6407ce5d77d8ae11e607ae00","502","746","","2392","","{""Q0"":5}","[0]","complexity","","","","","","","","","","","","","","","media/stimuli/animate_011_right.png","animate","pair","right"
"","","","","","survey-likert","31","137547","0.0-31.0","SS1678233196629","6294ea611ee4f49421c6b905","6406d7f26dd5b7fc1e3377bd","6407ce5d77d8ae11e607ae00","502","746","","2765","","{""Q0"":5}","[0]","complexity","","","","","","","","","","","","","","","media/stimuli/animate_003_left.png","animate","pair","left"
"","","","","","survey-likert","32","139888","0.0-32.0","SS1678233196629","6294ea611ee4f49421c6b905","6406d7f26dd5b7fc1e3377bd","6407ce5d77d8ae11e607ae00","502","746","","2337","","{""Q0"":4}","[0]","complexity","","","","","","","","","","","","","","","media/stimuli/animate_010_right.png","animate","pair","right"
"","","","","","html-keyboard-response","33","142198","0.0-33.0","SS1678233196629","6294ea611ee4f49421c6b905","6406d7f26dd5b7fc1e3377bd","6407ce5d77d8ae11e607ae00","502","746","","2307",""," ","","","","","","","","","","","","","","","","","","","",""
"","","","","","survey-likert","34","145611","0.0-34.0","SS1678233196629","6294ea611ee4f49421c6b905","6406d7f26dd5b7fc1e3377bd","6407ce5d77d8ae11e607ae00","502","746","","3411","","{""Q0"":4}","[0]","complexity","","","","","","","","","","","","","","","media/stimuli/animate_005_right.png","animate","single","right"
"","","","","","survey-likert","35","147454","0.0-35.0","SS1678233196629","6294ea611ee4f49421c6b905","6406d7f26dd5b7fc1e3377bd","6407ce5d77d8ae11e607ae00","502","746","","1839","","{""Q0"":5}","[0]","complexity","","","","","","","","","","","","","","","media/stimuli/animate_002_right.png","animate","pair","right"
"","","","","","survey-likert","36","149346","0.0-36.0","SS1678233196629","6294ea611ee4f49421c6b905","6406d7f26dd5b7fc1e3377bd","6407ce5d77d8ae11e607ae00","502","746","","1888","","{""Q0"":5}","[0]","complexity","","","","","","","","","","","","","","","media/stimuli/animate_001_left.png","animate","pair","left"
"","","","","","survey-likert","37","151338","0.0-37.0","SS1678233196629","6294ea611ee4f49421c6b905","6406d7f26dd5b7fc1e3377bd","6407ce5d77d8ae11e607ae00","502","746","","1989","","{""Q0"":5}","[0]","complexity","","","","","","","","","","","","","","","media/stimuli/animate_003_right.png","animate","pair","right"
"","","","","","survey-likert","38","153690","0.0-38.0","SS1678233196629","6294ea611ee4f49421c6b905","6406d7f26dd5b7fc1e3377bd","6407ce5d77d8ae11e607ae00","502","746","","2349","","{""Q0"":1}","[0]","complexity","","","","","","","","","","","","","","","media/stimuli/inanimate_009_right.png","inanimate","pair","right"
"","","","","","survey-likert","39","155661","0.0-39.0","SS1678233196629","6294ea611ee4f49421c6b905","6406d7f26dd5b7fc1e3377bd","6407ce5d77d8ae11e607ae00","502","746","","1968","","{""Q0"":4}","[0]","complexity","","","","","","","","","","","","","","","media/stimuli/animate_011_left.png","animate","single","left"
"","","","","","survey-likert","40","158229","0.0-40.0","SS1678233196629","6294ea611ee4f49421c6b905","6406d7f26dd5b7fc1e3377bd","6407ce5d77d8ae11e607ae00","502","746","","2564","","{""Q0"":5}","[0]","complexity","","","","","","","","","","","","","","","media/stimuli/animate_005_right.png","animate","pair","right"
"","","","","","survey-likert","41","159940","0.0-41.0","SS1678233196629","6294ea611ee4f49421c6b905","6406d7f26dd5b7fc1e3377bd","6407ce5d77d8ae11e607ae00","502","746","","1707","","{""Q0"":4}","[0]","complexity","","","","","","","","","","","","","","","media/stimuli/animate_006_right.png","animate","single","right"
"","","","","","survey-likert","42","161522","0.0-42.0","SS1678233196629","6294ea611ee4f49421c6b905","6406d7f26dd5b7fc1e3377bd","6407ce5d77d8ae11e607ae00","502","746","","1578","","{""Q0"":4}","[0]","complexity","","","","","","","","","","","","","","","media/stimuli/animate_010_left.png","animate","single","left"
"","","","","","survey-likert","43","164036","0.0-43.0","SS1678233196629","6294ea611ee4f49421c6b905","6406d7f26dd5b7fc1e3377bd","6407ce5d77d8ae11e607ae00","502","746","","2511","","{""Q0"":5}","[0]","complexity","","","","","","","","","","","","","","","media/stimuli/animate_012_right.png","animate","pair","right"
"","","","","","survey-likert","44","166143","0.0-44.0","SS1678233196629","6294ea611ee4f49421c6b905","6406d7f26dd5b7fc1e3377bd","6407ce5d77d8ae11e607ae00","502","746","","2104","","{""Q0"":1}","[0]","complexity","","","","","","","","","","","","","","","media/stimuli/inanimate_004_right.png","inanimate","single","right"
"","","","","","survey-likert","45","168470","0.0-45.0","SS1678233196629","6294ea611ee4f49421c6b905","6406d7f26dd5b7fc1e3377bd","6407ce5d77d8ae11e607ae00","502","746","","2324","","{""Q0"":2}","[0]","complexity","","","","","","","","","","","","","","","media/stimuli/inanimate_003_right.png","inanimate","pair","right"
"","","","","","html-keyboard-response","46","169826","0.0-46.0","SS1678233196629","6294ea611ee4f49421c6b905","6406d7f26dd5b7fc1e3377bd","6407ce5d77d8ae11e607ae00","502","746","","1352",""," ","","","","","","","","","","","","","","","","","","","",""
"","","","","","survey-likert","47","172440","0.0-47.0","SS1678233196629","6294ea611ee4f49421c6b905","6406d7f26dd5b7fc1e3377bd","6407ce5d77d8ae11e607ae00","502","746","","2613","","{""Q0"":5}","[0]","complexity","","","","","","","","","","","","","","","media/stimuli/animate_009_left.png","animate","pair","left"
"","","","","","survey-likert","48","174575","0.0-48.0","SS1678233196629","6294ea611ee4f49421c6b905","6406d7f26dd5b7fc1e3377bd","6407ce5d77d8ae11e607ae00","502","746","","2131","","{""Q0"":1}","[0]","complexity","","","","","","","","","","","","","","","media/stimuli/inanimate_012_right.png","inanimate","pair","right"
"","","","","","survey-likert","49","176422","0.0-49.0","SS1678233196629","6294ea611ee4f49421c6b905","6406d7f26dd5b7fc1e3377bd","6407ce5d77d8ae11e607ae00","502","746","","1843","","{""Q0"":5}","[0]","complexity","","","","","","","","","","","","","","","media/stimuli/animate_006_right.png","animate","pair","right"
"","","","","","survey-likert","50","178042","0.0-50.0","SS1678233196629","6294ea611ee4f49421c6b905","6406d7f26dd5b7fc1e3377bd","6407ce5d77d8ae11e607ae00","502","746","","1616","","{""Q0"":4}","[0]","complexity","","","","","","","","","","","","","","","media/stimuli/animate_002_right.png","animate","single","right"
"","","","","","survey-likert","51","179804","0.0-51.0","SS1678233196629","6294ea611ee4f49421c6b905","6406d7f26dd5b7fc1e3377bd","6407ce5d77d8ae11e607ae00","502","746","","1759","","{""Q0"":4}","[0]","complexity","","","","","","","","","","","","","","","media/stimuli/animate_004_left.png","animate","single","left"
"","","","","","survey-likert","52","181699","0.0-52.0","SS1678233196629","6294ea611ee4f49421c6b905","6406d7f26dd5b7fc1e3377bd","6407ce5d77d8ae11e607ae00","502","746","","1892","","{""Q0"":1}","[0]","complexity","","","","","","","","","","","","","","","media/stimuli/inanimate_003_left.png","inanimate","pair","left"
"","","","","","survey-likert","53","183341","0.0-53.0","SS1678233196629","6294ea611ee4f49421c6b905","6406d7f26dd5b7fc1e3377bd","6407ce5d77d8ae11e607ae00","502","746","","1638","","{""Q0"":5}","[0]","complexity","","","","","","","","","","","","","","","media/stimuli/animate_007_left.png","animate","pair","left"
"","","","","","survey-likert","54","185000","0.0-54.0","SS1678233196629","6294ea611ee4f49421c6b905","6406d7f26dd5b7fc1e3377bd","6407ce5d77d8ae11e607ae00","502","746","","1655","","{""Q0"":5}","[0]","complexity","","","","","","","","","","","","","","","media/stimuli/animate_006_left.png","animate","pair","left"
"","","","","","survey-likert","55","186545","0.0-55.0","SS1678233196629","6294ea611ee4f49421c6b905","6406d7f26dd5b7fc1e3377bd","6407ce5d77d8ae11e607ae00","502","746","","1542","","{""Q0"":5}","[0]","complexity","","","","","","","","","","","","","","","media/stimuli/animate_008_left.png","animate","pair","left"
"","","","","","survey-likert","56","188015","0.0-56.0","SS1678233196629","6294ea611ee4f49421c6b905","6406d7f26dd5b7fc1e3377bd","6407ce5d77d8ae11e607ae00","502","746","","1465","","{""Q0"":4}","[0]","complexity","","","","","","","","","","","","","","","media/stimuli/animate_012_left.png","animate","single","left"
"","","","","","survey-likert","57","189693","0.0-57.0","SS1678233196629","6294ea611ee4f49421c6b905","6406d7f26dd5b7fc1e3377bd","6407ce5d77d8ae11e607ae00","502","746","","1675","","{""Q0"":1}","[0]","complexity","","","","","","","","","","","","","","","media/stimuli/inanimate_001_left.png","inanimate","single","left"
"","","","","","survey-likert","58","191950","0.0-58.0","SS1678233196629","6294ea611ee4f49421c6b905","6406d7f26dd5b7fc1e3377bd","6407ce5d77d8ae11e607ae00","502","746","","2253","","{""Q0"":4}","[0]","complexity","","","","","","","","","","","","","","","media/stimuli/animate_004_right.png","animate","single","right"
"","","","","","html-keyboard-response","59","193283","0.0-59.0","SS1678233196629","6294ea611ee4f49421c6b905","6406d7f26dd5b7fc1e3377bd","6407ce5d77d8ae11e607ae00","502","746","","1328",""," ","","","","","","","","","","","","","","","","","","","",""
"","","","","","survey-likert","60","194998","0.0-60.0","SS1678233196629","6294ea611ee4f49421c6b905","6406d7f26dd5b7fc1e3377bd","6407ce5d77d8ae11e607ae00","502","746","","1714","","{""Q0"":4}","[0]","complexity","","","","","","","","","","","","","","","media/stimuli/animate_009_right.png","animate","single","right"
"","","","","","survey-likert","61","196883","0.0-61.0","SS1678233196629","6294ea611ee4f49421c6b905","6406d7f26dd5b7fc1e3377bd","6407ce5d77d8ae11e607ae00","502","746","","1882","","{""Q0"":1}","[0]","complexity","","","","","","","","","","","","","","","media/stimuli/inanimate_005_right.png","inanimate","single","right"
"","","","","","survey-likert","62","198362","0.0-62.0","SS1678233196629","6294ea611ee4f49421c6b905","6406d7f26dd5b7fc1e3377bd","6407ce5d77d8ae11e607ae00","502","746","","1475","","{""Q0"":4}","[0]","complexity","","","","","","","","","","","","","","","media/stimuli/animate_008_right.png","animate","single","right"
"","","","","","survey-likert","63","199771","0.0-63.0","SS1678233196629","6294ea611ee4f49421c6b905","6406d7f26dd5b7fc1e3377bd","6407ce5d77d8ae11e607ae00","502","746","","1406","","{""Q0"":4}","[0]","complexity","","","","","","","","","","","","","","","media/stimuli/animate_005_left.png","animate","single","left"
"","","","","","survey-likert","64","201254","0.0-64.0","SS1678233196629","6294ea611ee4f49421c6b905","6406d7f26dd5b7fc1e3377bd","6407ce5d77d8ae11e607ae00","502","746","","1479","","{""Q0"":1}","[0]","complexity","","","","","","","","","","","","","","","media/stimuli/inanimate_005_left.png","inanimate","single","left"
"","","","","","survey-likert","65","203340","0.0-65.0","SS1678233196629","6294ea611ee4f49421c6b905","6406d7f26dd5b7fc1e3377bd","6407ce5d77d8ae11e607ae00","502","746","","2083","","{""Q0"":4}","[0]","complexity","","","","","","","","","","","","","","","media/stimuli/inanimate_006_left.png","inanimate","single","left"
"","","","","","survey-likert","66","204819","0.0-66.0","SS1678233196629","6294ea611ee4f49421c6b905","6406d7f26dd5b7fc1e3377bd","6407ce5d77d8ae11e607ae00","502","746","","1474","","{""Q0"":5}","[0]","complexity","","","","","","","","","","","","","","","media/stimuli/animate_002_left.png","animate","pair","left"
"","","","","","survey-likert","67","207153","0.0-67.0","SS1678233196629","6294ea611ee4f49421c6b905","6406d7f26dd5b7fc1e3377bd","6407ce5d77d8ae11e607ae00","502","746","","2330","","{""Q0"":5}","[0]","complexity","","","","","","","","","","","","","","","media/stimuli/animate_004_right.png","animate","pair","right"
"","","","","","survey-likert","68","209190","0.0-68.0","SS1678233196629","6294ea611ee4f49421c6b905","6406d7f26dd5b7fc1e3377bd","6407ce5d77d8ae11e607ae00","502","746","","2033","","{""Q0"":5}","[0]","complexity","","","","","","","","","","","","","","","media/stimuli/animate_001_right.png","animate","pair","right"
"","","","","","survey-likert","69","210741","0.0-69.0","SS1678233196629","6294ea611ee4f49421c6b905","6406d7f26dd5b7fc1e3377bd","6407ce5d77d8ae11e607ae00","502","746","","1547","","{""Q0"":4}","[0]","complexity","","","","","","","","","","","","","","","media/stimuli/animate_007_right.png","animate","single","right"
"","","","","","survey-likert","70","212308","0.0-70.0","SS1678233196629","6294ea611ee4f49421c6b905","6406d7f26dd5b7fc1e3377bd","6407ce5d77d8ae11e607ae00","502","746","","1564","","{""Q0"":1}","[0]","complexity","","","","","","","","","","","","","","","media/stimuli/inanimate_003_left.png","inanimate","single","left"
"","","","","","survey-likert","71","214472","0.0-71.0","SS1678233196629","6294ea611ee4f49421c6b905","6406d7f26dd5b7fc1e3377bd","6407ce5d77d8ae11e607ae00","502","746","","2161","","{""Q0"":5}","[0]","complexity","","","","","","","","","","","","","","","media/stimuli/animate_010_left.png","animate","pair","left"
"","","","","","html-keyboard-response","72","215491","0.0-72.0","SS1678233196629","6294ea611ee4f49421c6b905","6406d7f26dd5b7fc1e3377bd","6407ce5d77d8ae11e607ae00","502","746","","1015",""," ","","","","","","","","","","","","","","","","","","","",""
"","","","","","html-keyboard-response","73","218611","0.0-73.0","SS1678233196629","6294ea611ee4f49421c6b905","6406d7f26dd5b7fc1e3377bd","6407ce5d77d8ae11e607ae00","502","746","","3117","","j","","","<img src=""media/stimuli/inanimate_012_left.png"" class=""coveredImage test"" style = ""width:100px; height:100px; position:fixed; top:10%;    transform: translate(-50%, -50%);left:48%""></img><img src=""media/stimuli/animate_005_right.png"" class=""coveredImage test"" style = ""width:100px; height:100px;position:fixed; top:25%;        transform: translate(-50%, -50%);left:38%""></img><img src=""media/stimuli/inanimate_012_left.png"" class=""coveredImage test"" style = ""width:100px; height:100px;position:fixed; top:25%;        transform: translate(-50%, -50%);left:58%""></img><img src=""media/f.png""style = ""width:30px x; height:30px;position:fixed; top:43%;    transform: translate(-50%, -50%);left:40%""></img><img src=""media/j.png""style = ""width:30px; height:30px;position:fixed; top:43%;    transform: translate(-50%, -50%);left:60%""></img>","media/stimuli/inanimate_012_left.png","inanimate","left","single","media/stimuli/animate_005_right.png","animate","right","single","media/stimuli/inanimate_012_left.png","inanimate","left","single","animacy_pose","","","",""
"","","","","","html-keyboard-response","74","221816","0.0-74.0","SS1678233196629","6294ea611ee4f49421c6b905","6406d7f26dd5b7fc1e3377bd","6407ce5d77d8ae11e607ae00","502","746","","3202","","f","","","<img src=""media/stimuli/animate_002_left.png"" class=""coveredImage test"" style = ""width:100px; height:100px; position:fixed; top:10%;    transform: translate(-50%, -50%);left:44.5%""></img><img src=""media/stimuli/animate_002_left.png"" class=""coveredImage test"" style = ""width:100px; height:100px; position:fixed; top:10%;    transform: translate(-50%, -50%);left:51.5%""></img><img src=""media/stimuli/animate_002_left.png"" class=""coveredImage test"" style = ""width:100px; height:100px;position:fixed; top:25%;        transform: translate(-50%, -50%);left:38%""></img><img src=""media/stimuli/animate_002_right.png"" class=""coveredImage test"" style = ""width:100px; height:100px;position:fixed; top:25%;        transform: translate(-50%, -50%);left:54.5%""></img><img src=""media/stimuli/animate_002_right.png"" class=""coveredImage test"" style = ""width:100px; height:100px;position:fixed; top:25%;        transform: translate(-50%, -50%);left:61.5%""></img><img src=""media/f.png""style = ""width:30px x; height:30px;position:fixed; top:43%;    transform: translate(-50%, -50%);left:40%""></img><img src=""media/j.png""style = ""width:30px; height:30px;position:fixed; top:43%;    transform: translate(-50%, -50%);left:60%""></img>","media/stimuli/animate_002_left.png","animate","left","pair","media/stimuli/animate_002_left.png","animate","left","single","media/stimuli/animate_002_right.png","animate","right","pair","number_pose","","","",""
"","","","","","html-keyboard-response","75","223370","0.0-75.0","SS1678233196629","6294ea611ee4f49421c6b905","6406d7f26dd5b7fc1e3377bd","6407ce5d77d8ae11e607ae00","502","746","","1552","","j","","","<img src=""media/stimuli/inanimate_011_left.png"" class=""coveredImage test"" style = ""width:100px; height:100px; position:fixed; top:10%;    transform: translate(-50%, -50%);left:48%""></img><img src=""media/stimuli/animate_003_left.png"" class=""coveredImage test"" style = ""width:100px; height:100px;position:fixed; top:25%;        transform: translate(-50%, -50%);left:34.5%""></img><img src=""media/stimuli/animate_003_left.png"" class=""coveredImage test"" style = ""width:100px; height:100px;position:fixed; top:25%;        transform: translate(-50%, -50%);left:41.5%""></img><img src=""media/stimuli/inanimate_011_right.png"" class=""coveredImage test"" style = ""width:100px; height:100px;position:fixed; top:25%;        transform: translate(-50%, -50%);left:54.5%""></img><img src=""media/stimuli/inanimate_011_right.png"" class=""coveredImage test"" style = ""width:100px; height:100px;position:fixed; top:25%;        transform: translate(-50%, -50%);left:61.5%""></img><img src=""media/f.png""style = ""width:30px x; height:30px;position:fixed; top:43%;    transform: translate(-50%, -50%);left:40%""></img><img src=""media/j.png""style = ""width:30px; height:30px;position:fixed; top:43%;    transform: translate(-50%, -50%);left:60%""></img>","media/stimuli/inanimate_011_left.png","inanimate","left","single","media/stimuli/animate_003_left.png","animate","left","pair","media/stimuli/inanimate_011_right.png","inanimate","right","pair","animacy_pose","","","",""
"","","","","","html-keyboard-response","76","224736","0.0-76.0","SS1678233196629","6294ea611ee4f49421c6b905","6406d7f26dd5b7fc1e3377bd","6407ce5d77d8ae11e607ae00","502","746","","1362","","f","","","<img src=""media/stimuli/animate_002_left.png"" class=""coveredImage test"" style = ""width:100px; height:100px; position:fixed; top:10%;    transform: translate(-50%, -50%);left:48%""></img><img src=""media/stimuli/animate_009_left.png"" class=""coveredImage test"" style = ""width:100px; height:100px;position:fixed; top:25%;        transform: translate(-50%, -50%);left:38%""></img><img src=""media/stimuli/inanimate_009_left.png"" class=""coveredImage test"" style = ""width:100px; height:100px;position:fixed; top:25%;        transform: translate(-50%, -50%);left:58%""></img><img src=""media/f.png""style = ""width:30px x; height:30px;position:fixed; top:43%;    transform: translate(-50%, -50%);left:40%""></img><img src=""media/j.png""style = ""width:30px; height:30px;position:fixed; top:43%;    transform: translate(-50%, -50%);left:60%""></img>","media/stimuli/animate_002_left.png","animate","left","single","media/stimuli/animate_009_left.png","animate","left","single","media/stimuli/inanimate_009_left.png","inanimate","left","single","identity_animacy","","","",""
"","","","","","html-keyboard-response","77","225912","0.0-77.0","SS1678233196629","6294ea611ee4f49421c6b905","6406d7f26dd5b7fc1e3377bd","6407ce5d77d8ae11e607ae00","502","746","","1174","","j","","","<img src=""media/stimuli/inanimate_001_left.png"" class=""coveredImage test"" style = ""width:100px; height:100px; position:fixed; top:10%;    transform: translate(-50%, -50%);left:48%""></img><img src=""media/stimuli/inanimate_002_left.png"" class=""coveredImage test"" style = ""width:100px; height:100px;position:fixed; top:25%;        transform: translate(-50%, -50%);left:38%""></img><img src=""media/stimuli/inanimate_001_right.png"" class=""coveredImage test"" style = ""width:100px; height:100px;position:fixed; top:25%;        transform: translate(-50%, -50%);left:58%""></img><img src=""media/f.png""style = ""width:30px x; height:30px;position:fixed; top:43%;    transform: translate(-50%, -50%);left:40%""></img><img src=""media/j.png""style = ""width:30px; height:30px;position:fixed; top:43%;    transform: translate(-50%, -50%);left:60%""></img>","media/stimuli/inanimate_001_left.png","inanimate","left","single","media/stimuli/inanimate_002_left.png","inanimate","left","single","media/stimuli/inanimate_001_right.png","inanimate","right","single","identity_pose","","","",""
"","","","","","html-keyboard-response","78","227178","0.0-78.0","SS1678233196629","6294ea611ee4f49421c6b905","6406d7f26dd5b7fc1e3377bd","6407ce5d77d8ae11e607ae00","502","746","","1265","","j","","","<img src=""media/stimuli/inanimate_006_left.png"" class=""coveredImage test"" style = ""width:100px; height:100px; position:fixed; top:10%;    transform: translate(-50%, -50%);left:48%""></img><img src=""media/stimuli/animate_009_left.png"" class=""coveredImage test"" style = ""width:100px; height:100px;position:fixed; top:25%;        transform: translate(-50%, -50%);left:38%""></img><img src=""media/stimuli/inanimate_009_left.png"" class=""coveredImage test"" style = ""width:100px; height:100px;position:fixed; top:25%;        transform: translate(-50%, -50%);left:58%""></img><img src=""media/f.png""style = ""width:30px x; height:30px;position:fixed; top:43%;    transform: translate(-50%, -50%);left:40%""></img><img src=""media/j.png""style = ""width:30px; height:30px;position:fixed; top:43%;    transform: translate(-50%, -50%);left:60%""></img>","media/stimuli/inanimate_006_left.png","inanimate","left","single","media/stimuli/animate_009_left.png","animate","left","single","media/stimuli/inanimate_009_left.png","inanimate","left","single","animacy_identity","","","",""
"","","","","","html-keyboard-response","79","228060","0.0-79.0","SS1678233196629","6294ea611ee4f49421c6b905","6406d7f26dd5b7fc1e3377bd","6407ce5d77d8ae11e607ae00","502","746","","880","","f","","","<img src=""media/stimuli/inanimate_002_left.png"" class=""coveredImage test"" style = ""width:100px; height:100px; position:fixed; top:10%;    transform: translate(-50%, -50%);left:44.5%""></img><img src=""media/stimuli/inanimate_002_left.png"" class=""coveredImage test"" style = ""width:100px; height:100px; position:fixed; top:10%;    transform: translate(-50%, -50%);left:51.5%""></img><img src=""media/stimuli/inanimate_002_left.png"" class=""coveredImage test"" style = ""width:100px; height:100px;position:fixed; top:25%;        transform: translate(-50%, -50%);left:38%""></img><img src=""media/stimuli/animate_007_left.png"" class=""coveredImage test"" style = ""width:100px; height:100px;position:fixed; top:25%;        transform: translate(-50%, -50%);left:54.5%""></img><img src=""media/stimuli/animate_007_left.png"" class=""coveredImage test"" style = ""width:100px; height:100px;position:fixed; top:25%;        transform: translate(-50%, -50%);left:61.5%""></img><img src=""media/f.png""style = ""width:30px x; height:30px;position:fixed; top:43%;    transform: translate(-50%, -50%);left:40%""></img><img src=""media/j.png""style = ""width:30px; height:30px;position:fixed; top:43%;    transform: translate(-50%, -50%);left:60%""></img>","media/stimuli/inanimate_002_left.png","inanimate","left","pair","media/stimuli/inanimate_002_left.png","inanimate","left","single","media/stimuli/animate_007_left.png","animate","left","pair","number_animacy","","","",""
"","","","","","html-keyboard-response","80","228771","0.0-80.0","SS1678233196629","6294ea611ee4f49421c6b905","6406d7f26dd5b7fc1e3377bd","6407ce5d77d8ae11e607ae00","502","746","","708","","j","","","<img src=""media/stimuli/animate_007_left.png"" class=""coveredImage test"" style = ""width:100px; height:100px; position:fixed; top:10%;    transform: translate(-50%, -50%);left:48%""></img><img src=""media/stimuli/animate_002_left.png"" class=""coveredImage test"" style = ""width:100px; height:100px;position:fixed; top:25%;        transform: translate(-50%, -50%);left:38%""></img><img src=""media/stimuli/animate_007_left.png"" class=""coveredImage test"" style = ""width:100px; height:100px;position:fixed; top:25%;        transform: translate(-50%, -50%);left:54.5%""></img><img src=""media/stimuli/animate_007_left.png"" class=""coveredImage test"" style = ""width:100px; height:100px;position:fixed; top:25%;        transform: translate(-50%, -50%);left:61.5%""></img><img src=""media/f.png""style = ""width:30px x; height:30px;position:fixed; top:43%;    transform: translate(-50%, -50%);left:40%""></img><img src=""media/j.png""style = ""width:30px; height:30px;position:fixed; top:43%;    transform: translate(-50%, -50%);left:60%""></img>","media/stimuli/animate_007_left.png","animate","left","single","media/stimuli/animate_002_left.png","animate","left","single","media/stimuli/animate_007_left.png","animate","left","pair","identity_number","","","",""
"","","","","","html-keyboard-response","81","229601","0.0-81.0","SS1678233196629","6294ea611ee4f49421c6b905","6406d7f26dd5b7fc1e3377bd","6407ce5d77d8ae11e607ae00","502","746","","828","","f","","","<img src=""media/stimuli/animate_008_left.png"" class=""coveredImage test"" style = ""width:100px; height:100px; position:fixed; top:10%;    transform: translate(-50%, -50%);left:48%""></img><img src=""media/stimuli/animate_008_left.png"" class=""coveredImage test"" style = ""width:100px; height:100px;position:fixed; top:25%;        transform: translate(-50%, -50%);left:34.5%""></img><img src=""media/stimuli/animate_008_left.png"" class=""coveredImage test"" style = ""width:100px; height:100px;position:fixed; top:25%;        transform: translate(-50%, -50%);left:41.5%""></img><img src=""media/stimuli/animate_003_left.png"" class=""coveredImage test"" style = ""width:100px; height:100px;position:fixed; top:25%;        transform: translate(-50%, -50%);left:58%""></img><img src=""media/f.png""style = ""width:30px x; height:30px;position:fixed; top:43%;    transform: translate(-50%, -50%);left:40%""></img><img src=""media/j.png""style = ""width:30px; height:30px;position:fixed; top:43%;    transform: translate(-50%, -50%);left:60%""></img>","media/stimuli/animate_008_left.png","animate","left","single","media/stimuli/animate_008_left.png","animate","left","pair","media/stimuli/animate_003_left.png","animate","left","single","number_identity","","","",""
"","","","","","html-keyboard-response","82","230628","0.0-82.0","SS1678233196629","6294ea611ee4f49421c6b905","6406d7f26dd5b7fc1e3377bd","6407ce5d77d8ae11e607ae00","502","746","","1025","","f","","","<img src=""media/stimuli/animate_004_left.png"" class=""coveredImage test"" style = ""width:100px; height:100px; position:fixed; top:10%;    transform: translate(-50%, -50%);left:48%""></img><img src=""media/stimuli/animate_004_left.png"" class=""coveredImage test"" style = ""width:100px; height:100px;position:fixed; top:25%;        transform: translate(-50%, -50%);left:34.5%""></img><img src=""media/stimuli/animate_004_left.png"" class=""coveredImage test"" style = ""width:100px; height:100px;position:fixed; top:25%;        transform: translate(-50%, -50%);left:41.5%""></img><img src=""media/stimuli/animate_004_right.png"" class=""coveredImage test"" style = ""width:100px; height:100px;position:fixed; top:25%;        transform: translate(-50%, -50%);left:58%""></img><img src=""media/f.png""style = ""width:30px x; height:30px;position:fixed; top:43%;    transform: translate(-50%, -50%);left:40%""></img><img src=""media/j.png""style = ""width:30px; height:30px;position:fixed; top:43%;    transform: translate(-50%, -50%);left:60%""></img>","media/stimuli/animate_004_left.png","animate","left","single","media/stimuli/animate_004_left.png","animate","left","pair","media/stimuli/animate_004_right.png","animate","right","single","number_pose","","","",""
"","","","","","html-keyboard-response","83","231349","0.0-83.0","SS1678233196629","6294ea611ee4f49421c6b905","6406d7f26dd5b7fc1e3377bd","6407ce5d77d8ae11e607ae00","502","746","","718","","f","","","<img src=""media/stimuli/animate_004_left.png"" class=""coveredImage test"" style = ""width:100px; height:100px; position:fixed; top:10%;    transform: translate(-50%, -50%);left:48%""></img><img src=""media/stimuli/animate_004_left.png"" class=""coveredImage test"" style = ""width:100px; height:100px;position:fixed; top:25%;        transform: translate(-50%, -50%);left:34.5%""></img><img src=""media/stimuli/animate_004_left.png"" class=""coveredImage test"" style = ""width:100px; height:100px;position:fixed; top:25%;        transform: translate(-50%, -50%);left:41.5%""></img><img src=""media/stimuli/inanimate_009_left.png"" class=""coveredImage test"" style = ""width:100px; height:100px;position:fixed; top:25%;        transform: translate(-50%, -50%);left:58%""></img><img src=""media/f.png""style = ""width:30px x; height:30px;position:fixed; top:43%;    transform: translate(-50%, -50%);left:40%""></img><img src=""media/j.png""style = ""width:30px; height:30px;position:fixed; top:43%;    transform: translate(-50%, -50%);left:60%""></img>","media/stimuli/animate_004_left.png","animate","left","single","media/stimuli/animate_004_left.png","animate","left","pair","media/stimuli/inanimate_009_left.png","inanimate","left","single","number_animacy","","","",""
"","","","","","html-keyboard-response","84","232586","0.0-84.0","SS1678233196629","6294ea611ee4f49421c6b905","6406d7f26dd5b7fc1e3377bd","6407ce5d77d8ae11e607ae00","502","746","","1234","","j","","","<img src=""media/stimuli/animate_002_right.png"" class=""coveredImage test"" style = ""width:100px; height:100px; position:fixed; top:10%;    transform: translate(-50%, -50%);left:48%""></img><img src=""media/stimuli/animate_010_right.png"" class=""coveredImage test"" style = ""width:100px; height:100px;position:fixed; top:25%;        transform: translate(-50%, -50%);left:38%""></img><img src=""media/stimuli/animate_002_left.png"" class=""coveredImage test"" style = ""width:100px; height:100px;position:fixed; top:25%;        transform: translate(-50%, -50%);left:58%""></img><img src=""media/f.png""style = ""width:30px x; height:30px;position:fixed; top:43%;    transform: translate(-50%, -50%);left:40%""></img><img src=""media/j.png""style = ""width:30px; height:30px;position:fixed; top:43%;    transform: translate(-50%, -50%);left:60%""></img>","media/stimuli/animate_002_right.png","animate","right","single","media/stimuli/animate_010_right.png","animate","right","single","media/stimuli/animate_002_left.png","animate","left","single","identity_pose","","","",""
"","","","","","html-keyboard-response","85","233794","0.0-85.0","SS1678233196629","6294ea611ee4f49421c6b905","6406d7f26dd5b7fc1e3377bd","6407ce5d77d8ae11e607ae00","502","746","","1206",""," ","","","","","","","","","","","","","","","","","","","",""
"","","","","","html-keyboard-response","86","235802","0.0-86.0","SS1678233196629","6294ea611ee4f49421c6b905","6406d7f26dd5b7fc1e3377bd","6407ce5d77d8ae11e607ae00","502","746","","2006","","f","","","<img src=""media/stimuli/animate_001_right.png"" class=""coveredImage test"" style = ""width:100px; height:100px; position:fixed; top:10%;    transform: translate(-50%, -50%);left:48%""></img><img src=""media/stimuli/animate_001_right.png"" class=""coveredImage test"" style = ""width:100px; height:100px;position:fixed; top:25%;        transform: translate(-50%, -50%);left:34.5%""></img><img src=""media/stimuli/animate_001_right.png"" class=""coveredImage test"" style = ""width:100px; height:100px;position:fixed; top:25%;        transform: translate(-50%, -50%);left:41.5%""></img><img src=""media/stimuli/inanimate_006_left.png"" class=""coveredImage test"" style = ""width:100px; height:100px;position:fixed; top:25%;        transform: translate(-50%, -50%);left:54.5%""></img><img src=""media/stimuli/inanimate_006_left.png"" class=""coveredImage test"" style = ""width:100px; height:100px;position:fixed; top:25%;        transform: translate(-50%, -50%);left:61.5%""></img><img src=""media/f.png""style = ""width:30px x; height:30px;position:fixed; top:43%;    transform: translate(-50%, -50%);left:40%""></img><img src=""media/j.png""style = ""width:30px; height:30px;position:fixed; top:43%;    transform: translate(-50%, -50%);left:60%""></img>","media/stimuli/animate_001_right.png","animate","right","single","media/stimuli/animate_001_right.png","animate","right","pair","media/stimuli/inanimate_006_left.png","inanimate","left","pair","pose_animacy","","","",""
"","","","","","html-keyboard-response","87","237127","0.0-87.0","SS1678233196629","6294ea611ee4f49421c6b905","6406d7f26dd5b7fc1e3377bd","6407ce5d77d8ae11e607ae00","502","746","","1322","","j","","","<img src=""media/stimuli/inanimate_007_left.png"" class=""coveredImage test"" style = ""width:100px; height:100px; position:fixed; top:10%;    transform: translate(-50%, -50%);left:48%""></img><img src=""media/stimuli/inanimate_007_right.png"" class=""coveredImage test"" style = ""width:100px; height:100px;position:fixed; top:25%;        transform: translate(-50%, -50%);left:38%""></img><img src=""media/stimuli/inanimate_007_left.png"" class=""coveredImage test"" style = ""width:100px; height:100px;position:fixed; top:25%;        transform: translate(-50%, -50%);left:54.5%""></img><img src=""media/stimuli/inanimate_007_left.png"" class=""coveredImage test"" style = ""width:100px; height:100px;position:fixed; top:25%;        transform: translate(-50%, -50%);left:61.5%""></img><img src=""media/f.png""style = ""width:30px x; height:30px;position:fixed; top:43%;    transform: translate(-50%, -50%);left:40%""></img><img src=""media/j.png""style = ""width:30px; height:30px;position:fixed; top:43%;    transform: translate(-50%, -50%);left:60%""></img>","media/stimuli/inanimate_007_left.png","inanimate","left","single","media/stimuli/inanimate_007_right.png","inanimate","right","single","media/stimuli/inanimate_007_left.png","inanimate","left","pair","pose_number","","","",""
"","","","","","html-keyboard-response","88","238010","0.0-88.0","SS1678233196629","6294ea611ee4f49421c6b905","6406d7f26dd5b7fc1e3377bd","6407ce5d77d8ae11e607ae00","502","746","","880","","j","","","<img src=""media/stimuli/inanimate_001_left.png"" class=""coveredImage test"" style = ""width:100px; height:100px; position:fixed; top:10%;    transform: translate(-50%, -50%);left:48%""></img><img src=""media/stimuli/inanimate_004_left.png"" class=""coveredImage test"" style = ""width:100px; height:100px;position:fixed; top:25%;        transform: translate(-50%, -50%);left:38%""></img><img src=""media/stimuli/inanimate_001_right.png"" class=""coveredImage test"" style = ""width:100px; height:100px;position:fixed; top:25%;        transform: translate(-50%, -50%);left:58%""></img><img src=""media/f.png""style = ""width:30px x; height:30px;position:fixed; top:43%;    transform: translate(-50%, -50%);left:40%""></img><img src=""media/j.png""style = ""width:30px; height:30px;position:fixed; top:43%;    transform: translate(-50%, -50%);left:60%""></img>","media/stimuli/inanimate_001_left.png","inanimate","left","single","media/stimuli/inanimate_004_left.png","inanimate","left","single","media/stimuli/inanimate_001_right.png","inanimate","right","single","identity_pose","","","",""
"","","","","","html-keyboard-response","89","239090","0.0-89.0","SS1678233196629","6294ea611ee4f49421c6b905","6406d7f26dd5b7fc1e3377bd","6407ce5d77d8ae11e607ae00","502","746","","1078","","j","","","<img src=""media/stimuli/animate_003_left.png"" class=""coveredImage test"" style = ""width:100px; height:100px; position:fixed; top:10%;    transform: translate(-50%, -50%);left:48%""></img><img src=""media/stimuli/inanimate_004_left.png"" class=""coveredImage test"" style = ""width:100px; height:100px;position:fixed; top:25%;        transform: translate(-50%, -50%);left:38%""></img><img src=""media/stimuli/animate_007_left.png"" class=""coveredImage test"" style = ""width:100px; height:100px;position:fixed; top:25%;        transform: translate(-50%, -50%);left:58%""></img><img src=""media/f.png""style = ""width:30px x; height:30px;position:fixed; top:43%;    transform: translate(-50%, -50%);left:40%""></img><img src=""media/j.png""style = ""width:30px; height:30px;position:fixed; top:43%;    transform: translate(-50%, -50%);left:60%""></img>","media/stimuli/animate_003_left.png","animate","left","single","media/stimuli/inanimate_004_left.png","inanimate","left","single","media/stimuli/animate_007_left.png","animate","left","single","animacy_identity","","","",""
"","","","","","html-keyboard-response","90","240030","0.0-90.0","SS1678233196629","6294ea611ee4f49421c6b905","6406d7f26dd5b7fc1e3377bd","6407ce5d77d8ae11e607ae00","502","746","","938","","j","","","<img src=""media/stimuli/inanimate_005_right.png"" class=""coveredImage test"" style = ""width:100px; height:100px; position:fixed; top:10%;    transform: translate(-50%, -50%);left:48%""></img><img src=""media/stimuli/inanimate_002_right.png"" class=""coveredImage test"" style = ""width:100px; height:100px;position:fixed; top:25%;        transform: translate(-50%, -50%);left:38%""></img><img src=""media/stimuli/inanimate_005_left.png"" class=""coveredImage test"" style = ""width:100px; height:100px;position:fixed; top:25%;        transform: translate(-50%, -50%);left:58%""></img><img src=""media/f.png""style = ""width:30px x; height:30px;position:fixed; top:43%;    transform: translate(-50%, -50%);left:40%""></img><img src=""media/j.png""style = ""width:30px; height:30px;position:fixed; top:43%;    transform: translate(-50%, -50%);left:60%""></img>","media/stimuli/inanimate_005_right.png","inanimate","right","single","media/stimuli/inanimate_002_right.png","inanimate","right","single","media/stimuli/inanimate_005_left.png","inanimate","left","single","identity_pose","","","",""
"","","","","","html-keyboard-response","91","241824","0.0-91.0","SS1678233196629","6294ea611ee4f49421c6b905","6406d7f26dd5b7fc1e3377bd","6407ce5d77d8ae11e607ae00","502","746","","1791","","j","","","<img src=""media/stimuli/inanimate_009_right.png"" class=""coveredImage test"" style = ""width:100px; height:100px; position:fixed; top:10%;    transform: translate(-50%, -50%);left:48%""></img><img src=""media/stimuli/inanimate_009_left.png"" class=""coveredImage test"" style = ""width:100px; height:100px;position:fixed; top:25%;        transform: translate(-50%, -50%);left:38%""></img><img src=""media/stimuli/inanimate_009_right.png"" class=""coveredImage test"" style = ""width:100px; height:100px;position:fixed; top:25%;        transform: translate(-50%, -50%);left:54.5%""></img><img src=""media/stimuli/inanimate_009_right.png"" class=""coveredImage test"" style = ""width:100px; height:100px;position:fixed; top:25%;        transform: translate(-50%, -50%);left:61.5%""></img><img src=""media/f.png""style = ""width:30px x; height:30px;position:fixed; top:43%;    transform: translate(-50%, -50%);left:40%""></img><img src=""media/j.png""style = ""width:30px; height:30px;position:fixed; top:43%;    transform: translate(-50%, -50%);left:60%""></img>","media/stimuli/inanimate_009_right.png","inanimate","right","single","media/stimuli/inanimate_009_left.png","inanimate","left","single","media/stimuli/inanimate_009_right.png","inanimate","right","pair","pose_number","","","",""
"","","","","","html-keyboard-response","92","242721","0.0-92.0","SS1678233196629","6294ea611ee4f49421c6b905","6406d7f26dd5b7fc1e3377bd","6407ce5d77d8ae11e607ae00","502","746","","895","","j","","","<img src=""media/stimuli/animate_002_right.png"" class=""coveredImage test"" style = ""width:100px; height:100px; position:fixed; top:10%;    transform: translate(-50%, -50%);left:44.5%""></img><img src=""media/stimuli/animate_002_right.png"" class=""coveredImage test"" style = ""width:100px; height:100px; position:fixed; top:10%;    transform: translate(-50%, -50%);left:51.5%""></img><img src=""media/stimuli/animate_012_right.png"" class=""coveredImage test"" style = ""width:100px; height:100px;position:fixed; top:25%;        transform: translate(-50%, -50%);left:34.5%""></img><img src=""media/stimuli/animate_012_right.png"" class=""coveredImage test"" style = ""width:100px; height:100px;position:fixed; top:25%;        transform: translate(-50%, -50%);left:41.5%""></img><img src=""media/stimuli/animate_002_right.png"" class=""coveredImage test"" style = ""width:100px; height:100px;position:fixed; top:25%;        transform: translate(-50%, -50%);left:58%""></img><img src=""media/f.png""style = ""width:30px x; height:30px;position:fixed; top:43%;    transform: translate(-50%, -50%);left:40%""></img><img src=""media/j.png""style = ""width:30px; height:30px;position:fixed; top:43%;    transform: translate(-50%, -50%);left:60%""></img>","media/stimuli/animate_002_right.png","animate","right","pair","media/stimuli/animate_012_right.png","animate","right","pair","media/stimuli/animate_002_right.png","animate","right","single","identity_number","","","",""
"","","","","","html-keyboard-response","93","243541","0.0-93.0","SS1678233196629","6294ea611ee4f49421c6b905","6406d7f26dd5b7fc1e3377bd","6407ce5d77d8ae11e607ae00","502","746","","817","","f","","","<img src=""media/stimuli/inanimate_001_right.png"" class=""coveredImage test"" style = ""width:100px; height:100px; position:fixed; top:10%;    transform: translate(-50%, -50%);left:44.5%""></img><img src=""media/stimuli/inanimate_001_right.png"" class=""coveredImage test"" style = ""width:100px; height:100px; position:fixed; top:10%;    transform: translate(-50%, -50%);left:51.5%""></img><img src=""media/stimuli/inanimate_001_right.png"" class=""coveredImage test"" style = ""width:100px; height:100px;position:fixed; top:25%;        transform: translate(-50%, -50%);left:38%""></img><img src=""media/stimuli/inanimate_002_right.png"" class=""coveredImage test"" style = ""width:100px; height:100px;position:fixed; top:25%;        transform: translate(-50%, -50%);left:54.5%""></img><img src=""media/stimuli/inanimate_002_right.png"" class=""coveredImage test"" style = ""width:100px; height:100px;position:fixed; top:25%;        transform: translate(-50%, -50%);left:61.5%""></img><img src=""media/f.png""style = ""width:30px x; height:30px;position:fixed; top:43%;    transform: translate(-50%, -50%);left:40%""></img><img src=""media/j.png""style = ""width:30px; height:30px;position:fixed; top:43%;    transform: translate(-50%, -50%);left:60%""></img>","media/stimuli/inanimate_001_right.png","inanimate","right","pair","media/stimuli/inanimate_001_right.png","inanimate","right","single","media/stimuli/inanimate_002_right.png","inanimate","right","pair","number_identity","","","",""
"","","","","","html-keyboard-response","94","244891","0.0-94.0","SS1678233196629","6294ea611ee4f49421c6b905","6406d7f26dd5b7fc1e3377bd","6407ce5d77d8ae11e607ae00","502","746","","1348","","j","","","<img src=""media/stimuli/inanimate_011_right.png"" class=""coveredImage test"" style = ""width:100px; height:100px; position:fixed; top:10%;    transform: translate(-50%, -50%);left:44.5%""></img><img src=""media/stimuli/inanimate_011_right.png"" class=""coveredImage test"" style = ""width:100px; height:100px; position:fixed; top:10%;    transform: translate(-50%, -50%);left:51.5%""></img><img src=""media/stimuli/animate_002_right.png"" class=""coveredImage test"" style = ""width:100px; height:100px;position:fixed; top:25%;        transform: translate(-50%, -50%);left:34.5%""></img><img src=""media/stimuli/animate_002_right.png"" class=""coveredImage test"" style = ""width:100px; height:100px;position:fixed; top:25%;        transform: translate(-50%, -50%);left:41.5%""></img><img src=""media/stimuli/inanimate_001_right.png"" class=""coveredImage test"" style = ""width:100px; height:100px;position:fixed; top:25%;        transform: translate(-50%, -50%);left:54.5%""></img><img src=""media/stimuli/inanimate_001_right.png"" class=""coveredImage test"" style = ""width:100px; height:100px;position:fixed; top:25%;        transform: translate(-50%, -50%);left:61.5%""></img><img src=""media/f.png""style = ""width:30px x; height:30px;position:fixed; top:43%;    transform: translate(-50%, -50%);left:40%""></img><img src=""media/j.png""style = ""width:30px; height:30px;position:fixed; top:43%;    transform: translate(-50%, -50%);left:60%""></img>","media/stimuli/inanimate_011_right.png","inanimate","right","pair","media/stimuli/animate_002_right.png","animate","right","pair","media/stimuli/inanimate_001_right.png","inanimate","right","pair","animacy_identity","","","",""
"","","","","","html-keyboard-response","95","245807","0.0-95.0","SS1678233196629","6294ea611ee4f49421c6b905","6406d7f26dd5b7fc1e3377bd","6407ce5d77d8ae11e607ae00","502","746","","912","","j","","","<img src=""media/stimuli/animate_007_left.png"" class=""coveredImage test"" style = ""width:100px; height:100px; position:fixed; top:10%;    transform: translate(-50%, -50%);left:48%""></img><img src=""media/stimuli/animate_009_left.png"" class=""coveredImage test"" style = ""width:100px; height:100px;position:fixed; top:25%;        transform: translate(-50%, -50%);left:38%""></img><img src=""media/stimuli/animate_007_left.png"" class=""coveredImage test"" style = ""width:100px; height:100px;position:fixed; top:25%;        transform: translate(-50%, -50%);left:54.5%""></img><img src=""media/stimuli/animate_007_left.png"" class=""coveredImage test"" style = ""width:100px; height:100px;position:fixed; top:25%;        transform: translate(-50%, -50%);left:61.5%""></img><img src=""media/f.png""style = ""width:30px x; height:30px;position:fixed; top:43%;    transform: translate(-50%, -50%);left:40%""></img><img src=""media/j.png""style = ""width:30px; height:30px;position:fixed; top:43%;    transform: translate(-50%, -50%);left:60%""></img>","media/stimuli/animate_007_left.png","animate","left","single","media/stimuli/animate_009_left.png","animate","left","single","media/stimuli/animate_007_left.png","animate","left","pair","identity_number","","","",""
"","","","","","html-keyboard-response","96","246786","0.0-96.0","SS1678233196629","6294ea611ee4f49421c6b905","6406d7f26dd5b7fc1e3377bd","6407ce5d77d8ae11e607ae00","502","746","","977","","j","","","<img src=""media/stimuli/inanimate_006_left.png"" class=""coveredImage test"" style = ""width:100px; height:100px; position:fixed; top:10%;    transform: translate(-50%, -50%);left:44.5%""></img><img src=""media/stimuli/inanimate_006_left.png"" class=""coveredImage test"" style = ""width:100px; height:100px; position:fixed; top:10%;    transform: translate(-50%, -50%);left:51.5%""></img><img src=""media/stimuli/inanimate_009_left.png"" class=""coveredImage test"" style = ""width:100px; height:100px;position:fixed; top:25%;        transform: translate(-50%, -50%);left:34.5%""></img><img src=""media/stimuli/inanimate_009_left.png"" class=""coveredImage test"" style = ""width:100px; height:100px;position:fixed; top:25%;        transform: translate(-50%, -50%);left:41.5%""></img><img src=""media/stimuli/inanimate_006_right.png"" class=""coveredImage test"" style = ""width:100px; height:100px;position:fixed; top:25%;        transform: translate(-50%, -50%);left:54.5%""></img><img src=""media/stimuli/inanimate_006_right.png"" class=""coveredImage test"" style = ""width:100px; height:100px;position:fixed; top:25%;        transform: translate(-50%, -50%);left:61.5%""></img><img src=""media/f.png""style = ""width:30px x; height:30px;position:fixed; top:43%;    transform: translate(-50%, -50%);left:40%""></img><img src=""media/j.png""style = ""width:30px; height:30px;position:fixed; top:43%;    transform: translate(-50%, -50%);left:60%""></img>","media/stimuli/inanimate_006_left.png","inanimate","left","pair","media/stimuli/inanimate_009_left.png","inanimate","left","pair","media/stimuli/inanimate_006_right.png","inanimate","right","pair","identity_pose","","","",""
"","","","","","html-keyboard-response","97","247773","0.0-97.0","SS1678233196629","6294ea611ee4f49421c6b905","6406d7f26dd5b7fc1e3377bd","6407ce5d77d8ae11e607ae00","502","746","","984","","f","","","<img src=""media/stimuli/animate_004_left.png"" class=""coveredImage test"" style = ""width:100px; height:100px; position:fixed; top:10%;    transform: translate(-50%, -50%);left:44.5%""></img><img src=""media/stimuli/animate_004_left.png"" class=""coveredImage test"" style = ""width:100px; height:100px; position:fixed; top:10%;    transform: translate(-50%, -50%);left:51.5%""></img><img src=""media/stimuli/animate_004_right.png"" class=""coveredImage test"" style = ""width:100px; height:100px;position:fixed; top:25%;        transform: translate(-50%, -50%);left:34.5%""></img><img src=""media/stimuli/animate_004_right.png"" class=""coveredImage test"" style = ""width:100px; height:100px;position:fixed; top:25%;        transform: translate(-50%, -50%);left:41.5%""></img><img src=""media/stimuli/animate_009_left.png"" class=""coveredImage test"" style = ""width:100px; height:100px;position:fixed; top:25%;        transform: translate(-50%, -50%);left:54.5%""></img><img src=""media/stimuli/animate_009_left.png"" class=""coveredImage test"" style = ""width:100px; height:100px;position:fixed; top:25%;        transform: translate(-50%, -50%);left:61.5%""></img><img src=""media/f.png""style = ""width:30px x; height:30px;position:fixed; top:43%;    transform: translate(-50%, -50%);left:40%""></img><img src=""media/j.png""style = ""width:30px; height:30px;position:fixed; top:43%;    transform: translate(-50%, -50%);left:60%""></img>","media/stimuli/animate_004_left.png","animate","left","pair","media/stimuli/animate_004_right.png","animate","right","pair","media/stimuli/animate_009_left.png","animate","left","pair","pose_identity","","","",""
"","","","","","html-keyboard-response","98","248811","0.0-98.0","SS1678233196629","6294ea611ee4f49421c6b905","6406d7f26dd5b7fc1e3377bd","6407ce5d77d8ae11e607ae00","502","746","","1037",""," ","","","","","","","","","","","","","","","","","","","",""
"","","","","","survey-likert","99","251465","0.0-99.0","SS1678233196629","6294ea611ee4f49421c6b905","6406d7f26dd5b7fc1e3377bd","6407ce5d77d8ae11e607ae00","502","746","","2651","","{""Q0"":4}","[0]","complexity","","","","","","","","","","","","","","","media/stimuli/animate_002_left.png","animate","single","left"
"","","","","","survey-likert","100","254227","0.0-100.0","SS1678233196629","6294ea611ee4f49421c6b905","6406d7f26dd5b7fc1e3377bd","6407ce5d77d8ae11e607ae00","502","746","","2758","","{""Q0"":5}","[0]","complexity","","","","","","","","","","","","","","","media/stimuli/inanimate_011_right.png","inanimate","pair","right"
"","","","","","survey-likert","101","255700","0.0-101.0","SS1678233196629","6294ea611ee4f49421c6b905","6406d7f26dd5b7fc1e3377bd","6407ce5d77d8ae11e607ae00","502","746","","1467","","{""Q0"":4}","[0]","complexity","","","","","","","","","","","","","","","media/stimuli/animate_001_right.png","animate","single","right"
"","","","","","survey-likert","102","257252","0.0-102.0","SS1678233196629","6294ea611ee4f49421c6b905","6406d7f26dd5b7fc1e3377bd","6407ce5d77d8ae11e607ae00","502","746","","1547","","{""Q0"":5}","[0]","complexity","","","","","","","","","","","","","","","media/stimuli/inanimate_006_right.png","inanimate","pair","right"
"","","","","","survey-likert","103","259041","0.0-103.0","SS1678233196629","6294ea611ee4f49421c6b905","6406d7f26dd5b7fc1e3377bd","6407ce5d77d8ae11e607ae00","502","746","","1785","","{""Q0"":1}","[0]","complexity","","","","","","","","","","","","","","","media/stimuli/inanimate_012_right.png","inanimate","single","right"
"","","","","","survey-likert","104","260361","0.0-104.0","SS1678233196629","6294ea611ee4f49421c6b905","6406d7f26dd5b7fc1e3377bd","6407ce5d77d8ae11e607ae00","502","746","","1315","","{""Q0"":5}","[0]","complexity","","","","","","","","","","","","","","","media/stimuli/animate_004_left.png","animate","pair","left"
"","","","","","survey-likert","105","261706","0.0-105.0","SS1678233196629","6294ea611ee4f49421c6b905","6406d7f26dd5b7fc1e3377bd","6407ce5d77d8ae11e607ae00","502","746","","1341","","{""Q0"":4}","[0]","complexity","","","","","","","","","","","","","","","media/stimuli/animate_003_left.png","animate","single","left"
"","","","","","survey-likert","106","263599","0.0-106.0","SS1678233196629","6294ea611ee4f49421c6b905","6406d7f26dd5b7fc1e3377bd","6407ce5d77d8ae11e607ae00","502","746","","1888","","{""Q0"":4}","[0]","complexity","","","","","","","","","","","","","","","media/stimuli/inanimate_010_right.png","inanimate","single","right"
"","","","","","survey-likert","107","265047","0.0-107.0","SS1678233196629","6294ea611ee4f49421c6b905","6406d7f26dd5b7fc1e3377bd","6407ce5d77d8ae11e607ae00","502","746","","1443","","{""Q0"":4}","[0]","complexity","","","","","","","","","","","","","","","media/stimuli/inanimate_008_right.png","inanimate","single","right"
"","","","","","survey-likert","108","268160","0.0-108.0","SS1678233196629","6294ea611ee4f49421c6b905","6406d7f26dd5b7fc1e3377bd","6407ce5d77d8ae11e607ae00","502","746","","3106","","{""Q0"":4}","[0]","complexity","","","","","","","","","","","","","","","media/stimuli/animate_007_left.png","animate","single","left"
"","","","","","survey-likert","109","269806","0.0-109.0","SS1678233196629","6294ea611ee4f49421c6b905","6406d7f26dd5b7fc1e3377bd","6407ce5d77d8ae11e607ae00","502","746","","1642","","{""Q0"":5}","[0]","complexity","","","","","","","","","","","","","","","media/stimuli/animate_007_right.png","animate","pair","right"
"","","","","","survey-likert","110","271314","0.0-110.0","SS1678233196629","6294ea611ee4f49421c6b905","6406d7f26dd5b7fc1e3377bd","6407ce5d77d8ae11e607ae00","502","746","","1503","","{""Q0"":5}","[0]","complexity","","","","","","","","","","","","","","","media/stimuli/inanimate_006_left.png","inanimate","pair","left"
"","","","","","html-keyboard-response","111","272443","0.0-111.0","SS1678233196629","6294ea611ee4f49421c6b905","6406d7f26dd5b7fc1e3377bd","6407ce5d77d8ae11e607ae00","502","746","","1124",""," ","","","","","","","","","","","","","","","","","","","",""
"","","","","","html-keyboard-response","112","274486","0.0-112.0","SS1678233196629","6294ea611ee4f49421c6b905","6406d7f26dd5b7fc1e3377bd","6407ce5d77d8ae11e607ae00","502","746","","2040","","f","","","<img src=""media/stimuli/animate_007_left.png"" class=""coveredImage test"" style = ""width:100px; height:100px; position:fixed; top:10%;    transform: translate(-50%, -50%);left:48%""></img><img src=""media/stimuli/animate_007_left.png"" class=""coveredImage test"" style = ""width:100px; height:100px;position:fixed; top:25%;        transform: translate(-50%, -50%);left:34.5%""></img><img src=""media/stimuli/animate_007_left.png"" class=""coveredImage test"" style = ""width:100px; height:100px;position:fixed; top:25%;        transform: translate(-50%, -50%);left:41.5%""></img><img src=""media/stimuli/animate_006_left.png"" class=""coveredImage test"" style = ""width:100px; height:100px;position:fixed; top:25%;        transform: translate(-50%, -50%);left:58%""></img><img src=""media/f.png""style = ""width:30px x; height:30px;position:fixed; top:43%;    transform: translate(-50%, -50%);left:40%""></img><img src=""media/j.png""style = ""width:30px; height:30px;position:fixed; top:43%;    transform: translate(-50%, -50%);left:60%""></img>","media/stimuli/animate_007_left.png","animate","left","single","media/stimuli/animate_007_left.png","animate","left","pair","media/stimuli/animate_006_left.png","animate","left","single","number_identity","","","",""
"","","","","","html-keyboard-response","113","275335","0.0-113.0","SS1678233196629","6294ea611ee4f49421c6b905","6406d7f26dd5b7fc1e3377bd","6407ce5d77d8ae11e607ae00","502","746","","846","","j","","","<img src=""media/stimuli/inanimate_007_left.png"" class=""coveredImage test"" style = ""width:100px; height:100px; position:fixed; top:10%;    transform: translate(-50%, -50%);left:44.5%""></img><img src=""media/stimuli/inanimate_007_left.png"" class=""coveredImage test"" style = ""width:100px; height:100px; position:fixed; top:10%;    transform: translate(-50%, -50%);left:51.5%""></img><img src=""media/stimuli/inanimate_001_left.png"" class=""coveredImage test"" style = ""width:100px; height:100px;position:fixed; top:25%;        transform: translate(-50%, -50%);left:34.5%""></img><img src=""media/stimuli/inanimate_001_left.png"" class=""coveredImage test"" style = ""width:100px; height:100px;position:fixed; top:25%;        transform: translate(-50%, -50%);left:41.5%""></img><img src=""media/stimuli/inanimate_007_right.png"" class=""coveredImage test"" style = ""width:100px; height:100px;position:fixed; top:25%;        transform: translate(-50%, -50%);left:54.5%""></img><img src=""media/stimuli/inanimate_007_right.png"" class=""coveredImage test"" style = ""width:100px; height:100px;position:fixed; top:25%;        transform: translate(-50%, -50%);left:61.5%""></img><img src=""media/f.png""style = ""width:30px x; height:30px;position:fixed; top:43%;    transform: translate(-50%, -50%);left:40%""></img><img src=""media/j.png""style = ""width:30px; height:30px;position:fixed; top:43%;    transform: translate(-50%, -50%);left:60%""></img>","media/stimuli/inanimate_007_left.png","inanimate","left","pair","media/stimuli/inanimate_001_left.png","inanimate","left","pair","media/stimuli/inanimate_007_right.png","inanimate","right","pair","identity_pose","","","",""
"","","","","","html-keyboard-response","114","276141","0.0-114.0","SS1678233196629","6294ea611ee4f49421c6b905","6406d7f26dd5b7fc1e3377bd","6407ce5d77d8ae11e607ae00","502","746","","804","","f","","","<img src=""media/stimuli/animate_009_left.png"" class=""coveredImage test"" style = ""width:100px; height:100px; position:fixed; top:10%;    transform: translate(-50%, -50%);left:48%""></img><img src=""media/stimuli/animate_009_left.png"" class=""coveredImage test"" style = ""width:100px; height:100px;position:fixed; top:25%;        transform: translate(-50%, -50%);left:34.5%""></img><img src=""media/stimuli/animate_009_left.png"" class=""coveredImage test"" style = ""width:100px; height:100px;position:fixed; top:25%;        transform: translate(-50%, -50%);left:41.5%""></img><img src=""media/stimuli/animate_009_right.png"" class=""coveredImage test"" style = ""width:100px; height:100px;position:fixed; top:25%;        transform: translate(-50%, -50%);left:58%""></img><img src=""media/f.png""style = ""width:30px x; height:30px;position:fixed; top:43%;    transform: translate(-50%, -50%);left:40%""></img><img src=""media/j.png""style = ""width:30px; height:30px;position:fixed; top:43%;    transform: translate(-50%, -50%);left:60%""></img>","media/stimuli/animate_009_left.png","animate","left","single","media/stimuli/animate_009_left.png","animate","left","pair","media/stimuli/animate_009_right.png","animate","right","single","number_pose","","","",""
"","","","","","html-keyboard-response","115","277230","0.0-115.0","SS1678233196629","6294ea611ee4f49421c6b905","6406d7f26dd5b7fc1e3377bd","6407ce5d77d8ae11e607ae00","502","746","","1085","","j","","","<img src=""media/stimuli/animate_002_left.png"" class=""coveredImage test"" style = ""width:100px; height:100px; position:fixed; top:10%;    transform: translate(-50%, -50%);left:48%""></img><img src=""media/stimuli/inanimate_006_left.png"" class=""coveredImage test"" style = ""width:100px; height:100px;position:fixed; top:25%;        transform: translate(-50%, -50%);left:38%""></img><img src=""media/stimuli/animate_010_left.png"" class=""coveredImage test"" style = ""width:100px; height:100px;position:fixed; top:25%;        transform: translate(-50%, -50%);left:58%""></img><img src=""media/f.png""style = ""width:30px x; height:30px;position:fixed; top:43%;    transform: translate(-50%, -50%);left:40%""></img><img src=""media/j.png""style = ""width:30px; height:30px;position:fixed; top:43%;    transform: translate(-50%, -50%);left:60%""></img>","media/stimuli/animate_002_left.png","animate","left","single","media/stimuli/inanimate_006_left.png","inanimate","left","single","media/stimuli/animate_010_left.png","animate","left","single","animacy_identity","","","",""
"","","","","","html-keyboard-response","116","278633","0.0-116.0","SS1678233196629","6294ea611ee4f49421c6b905","6406d7f26dd5b7fc1e3377bd","6407ce5d77d8ae11e607ae00","502","746","","1401","","f","","","<img src=""media/stimuli/animate_008_right.png"" class=""coveredImage test"" style = ""width:100px; height:100px; position:fixed; top:10%;    transform: translate(-50%, -50%);left:44.5%""></img><img src=""media/stimuli/animate_008_right.png"" class=""coveredImage test"" style = ""width:100px; height:100px; position:fixed; top:10%;    transform: translate(-50%, -50%);left:51.5%""></img><img src=""media/stimuli/animate_008_right.png"" class=""coveredImage test"" style = ""width:100px; height:100px;position:fixed; top:25%;        transform: translate(-50%, -50%);left:38%""></img><img src=""media/stimuli/animate_008_left.png"" class=""coveredImage test"" style = ""width:100px; height:100px;position:fixed; top:25%;        transform: translate(-50%, -50%);left:54.5%""></img><img src=""media/stimuli/animate_008_left.png"" class=""coveredImage test"" style = ""width:100px; height:100px;position:fixed; top:25%;        transform: translate(-50%, -50%);left:61.5%""></img><img src=""media/f.png""style = ""width:30px x; height:30px;position:fixed; top:43%;    transform: translate(-50%, -50%);left:40%""></img><img src=""media/j.png""style = ""width:30px; height:30px;position:fixed; top:43%;    transform: translate(-50%, -50%);left:60%""></img>","media/stimuli/animate_008_right.png","animate","right","pair","media/stimuli/animate_008_right.png","animate","right","single","media/stimuli/animate_008_left.png","animate","left","pair","number_pose","","","",""
"","","","","","html-keyboard-response","117","279688","0.0-117.0","SS1678233196629","6294ea611ee4f49421c6b905","6406d7f26dd5b7fc1e3377bd","6407ce5d77d8ae11e607ae00","502","746","","1051","","j","","","<img src=""media/stimuli/inanimate_004_right.png"" class=""coveredImage test"" style = ""width:100px; height:100px; position:fixed; top:10%;    transform: translate(-50%, -50%);left:44.5%""></img><img src=""media/stimuli/inanimate_004_right.png"" class=""coveredImage test"" style = ""width:100px; height:100px; position:fixed; top:10%;    transform: translate(-50%, -50%);left:51.5%""></img><img src=""media/stimuli/inanimate_003_right.png"" class=""coveredImage test"" style = ""width:100px; height:100px;position:fixed; top:25%;        transform: translate(-50%, -50%);left:34.5%""></img><img src=""media/stimuli/inanimate_003_right.png"" class=""coveredImage test"" style = ""width:100px; height:100px;position:fixed; top:25%;        transform: translate(-50%, -50%);left:41.5%""></img><img src=""media/stimuli/inanimate_004_right.png"" class=""coveredImage test"" style = ""width:100px; height:100px;position:fixed; top:25%;        transform: translate(-50%, -50%);left:58%""></img><img src=""media/f.png""style = ""width:30px x; height:30px;position:fixed; top:43%;    transform: translate(-50%, -50%);left:40%""></img><img src=""media/j.png""style = ""width:30px; height:30px;position:fixed; top:43%;    transform: translate(-50%, -50%);left:60%""></img>","media/stimuli/inanimate_004_right.png","inanimate","right","pair","media/stimuli/inanimate_003_right.png","inanimate","right","pair","media/stimuli/inanimate_004_right.png","inanimate","right","single","identity_number","","","",""
"","","","","","html-keyboard-response","118","280526","0.0-118.0","SS1678233196629","6294ea611ee4f49421c6b905","6406d7f26dd5b7fc1e3377bd","6407ce5d77d8ae11e607ae00","502","746","","835","","j","","","<img src=""media/stimuli/animate_005_right.png"" class=""coveredImage test"" style = ""width:100px; height:100px; position:fixed; top:10%;    transform: translate(-50%, -50%);left:44.5%""></img><img src=""media/stimuli/animate_005_right.png"" class=""coveredImage test"" style = ""width:100px; height:100px; position:fixed; top:10%;    transform: translate(-50%, -50%);left:51.5%""></img><img src=""media/stimuli/animate_009_right.png"" class=""coveredImage test"" style = ""width:100px; height:100px;position:fixed; top:25%;        transform: translate(-50%, -50%);left:34.5%""></img><img src=""media/stimuli/animate_009_right.png"" class=""coveredImage test"" style = ""width:100px; height:100px;position:fixed; top:25%;        transform: translate(-50%, -50%);left:41.5%""></img><img src=""media/stimuli/animate_005_right.png"" class=""coveredImage test"" style = ""width:100px; height:100px;position:fixed; top:25%;        transform: translate(-50%, -50%);left:58%""></img><img src=""media/f.png""style = ""width:30px x; height:30px;position:fixed; top:43%;    transform: translate(-50%, -50%);left:40%""></img><img src=""media/j.png""style = ""width:30px; height:30px;position:fixed; top:43%;    transform: translate(-50%, -50%);left:60%""></img>","media/stimuli/animate_005_right.png","animate","right","pair","media/stimuli/animate_009_right.png","animate","right","pair","media/stimuli/animate_005_right.png","animate","right","single","identity_number","","","",""
"","","","","","html-keyboard-response","119","281532","0.0-119.0","SS1678233196629","6294ea611ee4f49421c6b905","6406d7f26dd5b7fc1e3377bd","6407ce5d77d8ae11e607ae00","502","746","","1003","","j","","","<img src=""media/stimuli/animate_001_left.png"" class=""coveredImage test"" style = ""width:100px; height:100px; position:fixed; top:10%;    transform: translate(-50%, -50%);left:44.5%""></img><img src=""media/stimuli/animate_001_left.png"" class=""coveredImage test"" style = ""width:100px; height:100px; position:fixed; top:10%;    transform: translate(-50%, -50%);left:51.5%""></img><img src=""media/stimuli/animate_001_right.png"" class=""coveredImage test"" style = ""width:100px; height:100px;position:fixed; top:25%;        transform: translate(-50%, -50%);left:34.5%""></img><img src=""media/stimuli/animate_001_right.png"" class=""coveredImage test"" style = ""width:100px; height:100px;position:fixed; top:25%;        transform: translate(-50%, -50%);left:41.5%""></img><img src=""media/stimuli/animate_001_left.png"" class=""coveredImage test"" style = ""width:100px; height:100px;position:fixed; top:25%;        transform: translate(-50%, -50%);left:58%""></img><img src=""media/f.png""style = ""width:30px x; height:30px;position:fixed; top:43%;    transform: translate(-50%, -50%);left:40%""></img><img src=""media/j.png""style = ""width:30px; height:30px;position:fixed; top:43%;    transform: translate(-50%, -50%);left:60%""></img>","media/stimuli/animate_001_left.png","animate","left","pair","media/stimuli/animate_001_right.png","animate","right","pair","media/stimuli/animate_001_left.png","animate","left","single","pose_number","","","",""
"","","","","","html-keyboard-response","120","282507","0.0-120.0","SS1678233196629","6294ea611ee4f49421c6b905","6406d7f26dd5b7fc1e3377bd","6407ce5d77d8ae11e607ae00","502","746","","973","","j","","","<img src=""media/stimuli/animate_002_left.png"" class=""coveredImage test"" style = ""width:100px; height:100px; position:fixed; top:10%;    transform: translate(-50%, -50%);left:48%""></img><img src=""media/stimuli/inanimate_004_left.png"" class=""coveredImage test"" style = ""width:100px; height:100px;position:fixed; top:25%;        transform: translate(-50%, -50%);left:38%""></img><img src=""media/stimuli/animate_011_left.png"" class=""coveredImage test"" style = ""width:100px; height:100px;position:fixed; top:25%;        transform: translate(-50%, -50%);left:58%""></img><img src=""media/f.png""style = ""width:30px x; height:30px;position:fixed; top:43%;    transform: translate(-50%, -50%);left:40%""></img><img src=""media/j.png""style = ""width:30px; height:30px;position:fixed; top:43%;    transform: translate(-50%, -50%);left:60%""></img>","media/stimuli/animate_002_left.png","animate","left","single","media/stimuli/inanimate_004_left.png","inanimate","left","single","media/stimuli/animate_011_left.png","animate","left","single","animacy_identity","","","",""
"","","","","","html-keyboard-response","121","283180","0.0-121.0","SS1678233196629","6294ea611ee4f49421c6b905","6406d7f26dd5b7fc1e3377bd","6407ce5d77d8ae11e607ae00","502","746","","670","","f","","","<img src=""media/stimuli/animate_012_left.png"" class=""coveredImage test"" style = ""width:100px; height:100px; position:fixed; top:10%;    transform: translate(-50%, -50%);left:44.5%""></img><img src=""media/stimuli/animate_012_left.png"" class=""coveredImage test"" style = ""width:100px; height:100px; position:fixed; top:10%;    transform: translate(-50%, -50%);left:51.5%""></img><img src=""media/stimuli/animate_012_left.png"" class=""coveredImage test"" style = ""width:100px; height:100px;position:fixed; top:25%;        transform: translate(-50%, -50%);left:38%""></img><img src=""media/stimuli/inanimate_012_left.png"" class=""coveredImage test"" style = ""width:100px; height:100px;position:fixed; top:25%;        transform: translate(-50%, -50%);left:54.5%""></img><img src=""media/stimuli/inanimate_012_left.png"" class=""coveredImage test"" style = ""width:100px; height:100px;position:fixed; top:25%;        transform: translate(-50%, -50%);left:61.5%""></img><img src=""media/f.png""style = ""width:30px x; height:30px;position:fixed; top:43%;    transform: translate(-50%, -50%);left:40%""></img><img src=""media/j.png""style = ""width:30px; height:30px;position:fixed; top:43%;    transform: translate(-50%, -50%);left:60%""></img>","media/stimuli/animate_012_left.png","animate","left","pair","media/stimuli/animate_012_left.png","animate","left","single","media/stimuli/inanimate_012_left.png","inanimate","left","pair","number_animacy","","","",""
"","","","","","html-keyboard-response","122","284283","0.0-122.0","SS1678233196629","6294ea611ee4f49421c6b905","6406d7f26dd5b7fc1e3377bd","6407ce5d77d8ae11e607ae00","502","746","","1100","","f","","","<img src=""media/stimuli/inanimate_003_left.png"" class=""coveredImage test"" style = ""width:100px; height:100px; position:fixed; top:10%;    transform: translate(-50%, -50%);left:48%""></img><img src=""media/stimuli/inanimate_003_left.png"" class=""coveredImage test"" style = ""width:100px; height:100px;position:fixed; top:25%;        transform: translate(-50%, -50%);left:34.5%""></img><img src=""media/stimuli/inanimate_003_left.png"" class=""coveredImage test"" style = ""width:100px; height:100px;position:fixed; top:25%;        transform: translate(-50%, -50%);left:41.5%""></img><img src=""media/stimuli/inanimate_003_right.png"" class=""coveredImage test"" style = ""width:100px; height:100px;position:fixed; top:25%;        transform: translate(-50%, -50%);left:58%""></img><img src=""media/f.png""style = ""width:30px x; height:30px;position:fixed; top:43%;    transform: translate(-50%, -50%);left:40%""></img><img src=""media/j.png""style = ""width:30px; height:30px;position:fixed; top:43%;    transform: translate(-50%, -50%);left:60%""></img>","media/stimuli/inanimate_003_left.png","inanimate","left","single","media/stimuli/inanimate_003_left.png","inanimate","left","pair","media/stimuli/inanimate_003_right.png","inanimate","right","single","number_pose","","","",""
"","","","","","html-keyboard-response","123","285077","0.0-123.0","SS1678233196629","6294ea611ee4f49421c6b905","6406d7f26dd5b7fc1e3377bd","6407ce5d77d8ae11e607ae00","502","746","","790","","f","","","<img src=""media/stimuli/inanimate_011_right.png"" class=""coveredImage test"" style = ""width:100px; height:100px; position:fixed; top:10%;    transform: translate(-50%, -50%);left:44.5%""></img><img src=""media/stimuli/inanimate_011_right.png"" class=""coveredImage test"" style = ""width:100px; height:100px; position:fixed; top:10%;    transform: translate(-50%, -50%);left:51.5%""></img><img src=""media/stimuli/inanimate_011_right.png"" class=""coveredImage test"" style = ""width:100px; height:100px;position:fixed; top:25%;        transform: translate(-50%, -50%);left:38%""></img><img src=""media/stimuli/animate_011_right.png"" class=""coveredImage test"" style = ""width:100px; height:100px;position:fixed; top:25%;        transform: translate(-50%, -50%);left:54.5%""></img><img src=""media/stimuli/animate_011_right.png"" class=""coveredImage test"" style = ""width:100px; height:100px;position:fixed; top:25%;        transform: translate(-50%, -50%);left:61.5%""></img><img src=""media/f.png""style = ""width:30px x; height:30px;position:fixed; top:43%;    transform: translate(-50%, -50%);left:40%""></img><img src=""media/j.png""style = ""width:30px; height:30px;position:fixed; top:43%;    transform: translate(-50%, -50%);left:60%""></img>","media/stimuli/inanimate_011_right.png","inanimate","right","pair","media/stimuli/inanimate_011_right.png","inanimate","right","single","media/stimuli/animate_011_right.png","animate","right","pair","number_animacy","","","",""
"","","","","","html-keyboard-response","124","285986","0.0-124.0","SS1678233196629","6294ea611ee4f49421c6b905","6406d7f26dd5b7fc1e3377bd","6407ce5d77d8ae11e607ae00","502","746","","907",""," ","","","","","","","","","","","","","","","","","","","",""
"","","","","","survey-likert","125","288314","0.0-125.0","SS1678233196629","6294ea611ee4f49421c6b905","6406d7f26dd5b7fc1e3377bd","6407ce5d77d8ae11e607ae00","502","746","","2325","","{""Q0"":5}","[0]","complexity","","","","","","","","","","","","","","","media/stimuli/animate_012_left.png","animate","pair","left"
"","","","","","survey-likert","126","290236","0.0-126.0","SS1678233196629","6294ea611ee4f49421c6b905","6406d7f26dd5b7fc1e3377bd","6407ce5d77d8ae11e607ae00","502","746","","1917","","{""Q0"":2}","[0]","complexity","","","","","","","","","","","","","","","media/stimuli/inanimate_002_right.png","inanimate","pair","right"
"","","","","","survey-likert","127","291792","0.0-127.0","SS1678233196629","6294ea611ee4f49421c6b905","6406d7f26dd5b7fc1e3377bd","6407ce5d77d8ae11e607ae00","502","746","","1552","","{""Q0"":4}","[0]","complexity","","","","","","","","","","","","","","","media/stimuli/animate_001_left.png","animate","single","left"
"","","","","","survey-likert","128","293646","0.0-128.0","SS1678233196629","6294ea611ee4f49421c6b905","6406d7f26dd5b7fc1e3377bd","6407ce5d77d8ae11e607ae00","502","746","","1848","","{""Q0"":5}","[0]","complexity","","","","","","","","","","","","","","","media/stimuli/inanimate_008_left.png","inanimate","pair","left"
"","","","","","survey-likert","129","295642","0.0-129.0","SS1678233196629","6294ea611ee4f49421c6b905","6406d7f26dd5b7fc1e3377bd","6407ce5d77d8ae11e607ae00","502","746","","1991","","{""Q0"":2}","[0]","complexity","","","","","","","","","","","","","","","media/stimuli/inanimate_004_left.png","inanimate","pair","left"
"","","","","","survey-likert","130","297338","0.0-130.0","SS1678233196629","6294ea611ee4f49421c6b905","6406d7f26dd5b7fc1e3377bd","6407ce5d77d8ae11e607ae00","502","746","","1691","","{""Q0"":5}","[0]","complexity","","","","","","","","","","","","","","","media/stimuli/inanimate_007_left.png","inanimate","pair","left"
"","","","","","survey-likert","131","298917","0.0-131.0","SS1678233196629","6294ea611ee4f49421c6b905","6406d7f26dd5b7fc1e3377bd","6407ce5d77d8ae11e607ae00","502","746","","1574","","{""Q0"":1}","[0]","complexity","","","","","","","","","","","","","","","media/stimuli/inanimate_009_left.png","inanimate","pair","left"
"","","","","","survey-likert","132","300307","0.0-132.0","SS1678233196629","6294ea611ee4f49421c6b905","6406d7f26dd5b7fc1e3377bd","6407ce5d77d8ae11e607ae00","502","746","","1385","","{""Q0"":5}","[0]","complexity","","","","","","","","","","","","","","","media/stimuli/inanimate_008_right.png","inanimate","pair","right"
