"success","timeout","failed_images","failed_audio","failed_video","trial_type","trial_index","time_elapsed","internal_node_id","subject","prolific_id","study","session","window_width","window_height","view_history","rt","stimulus_type","response","question_order","rating_type","rating_stimulus","rating_animacy","rating_number","rating_pose","stimulus","target","target_animacy","target_pose","target_number","left","left_animacy","left_pose","left_number","right","right_animacy","right_pose","right_number","comparison_type"
"true","false","[]","[]","[]","preload","0","5195","0.0-0.0","SS1678233172743","5b16e1a5457ace0001b40d46","6406d7f26dd5b7fc1e3377bd","6407ce4fcc8ff20af4192914","1536","753","","","","","","","","","","","","","","","","","","","","","","","",""
"","","","","","instructions","1","11112","0.0-1.0","SS1678233172743","5b16e1a5457ace0001b40d46","6406d7f26dd5b7fc1e3377bd","6407ce4fcc8ff20af4192914","1536","753","[{""page_index"":0,""viewing_time"":5915}]","5916","","","","","","","","","","","","","","","","","","","","","",""
"","","","","","instructions","2","38585","0.0-2.0","SS1678233172743","5b16e1a5457ace0001b40d46","6406d7f26dd5b7fc1e3377bd","6407ce4fcc8ff20af4192914","1536","753","[{""page_index"":0,""viewing_time"":25461}]","25461","instructions","","","","","","","","","","","","","","","","","","","","",""
"","","","","","instructions","3","50416","0.0-3.0","SS1678233172743","5b16e1a5457ace0001b40d46","6406d7f26dd5b7fc1e3377bd","6407ce4fcc8ff20af4192914","1536","753","[{""page_index"":0,""viewing_time"":11829}]","11829","instructions","","","","","","","","","","","","","","","","","","","","",""
"","","","","","survey-likert","4","57923","0.0-4.0","SS1678233172743","5b16e1a5457ace0001b40d46","6406d7f26dd5b7fc1e3377bd","6407ce4fcc8ff20af4192914","1536","753","","7505","","{""Q0"":4}","[0]","anchoring","","","","","","","","","","","","","","","","","",""
"","","","","","survey-likert","5","66742","0.0-5.0","SS1678233172743","5b16e1a5457ace0001b40d46","6406d7f26dd5b7fc1e3377bd","6407ce4fcc8ff20af4192914","1536","753","","8814","","{""Q0"":1}","[0]","anchoring","","","","","","","","","","","","","","","","","",""
"","","","","","instructions","6","68531","0.0-6.0","SS1678233172743","5b16e1a5457ace0001b40d46","6406d7f26dd5b7fc1e3377bd","6407ce4fcc8ff20af4192914","1536","753","[{""page_index"":0,""viewing_time"":1786}]","1786","instructions","","","","","","","","","","","","","","","","","","","","",""
"true","","","","","fullscreen","7","70601","0.0-7.0","SS1678233172743","5b16e1a5457ace0001b40d46","6406d7f26dd5b7fc1e3377bd","6407ce4fcc8ff20af4192914","1536","753","","","","","","","","","","","","","","","","","","","","","","","",""
"","","","","","survey-likert","8","80112","0.0-8.0","SS1678233172743","5b16e1a5457ace0001b40d46","6406d7f26dd5b7fc1e3377bd","6407ce4fcc8ff20af4192914","1536","753","","9509","","{""Q0"":2}","[0]","complexity","media/stimuli/animate_009_left.png","animate","pair","left","","","","","","","","","","","","","",""
"","","","","","survey-likert","9","83090","0.0-9.0","SS1678233172743","5b16e1a5457ace0001b40d46","6406d7f26dd5b7fc1e3377bd","6407ce4fcc8ff20af4192914","1536","753","","2973","","{""Q0"":2}","[0]","complexity","media/stimuli/animate_006_left.png","animate","pair","left","","","","","","","","","","","","","",""
"","","","","","survey-likert","10","86051","0.0-10.0","SS1678233172743","5b16e1a5457ace0001b40d46","6406d7f26dd5b7fc1e3377bd","6407ce4fcc8ff20af4192914","1536","753","","2957","","{""Q0"":2}","[0]","complexity","media/stimuli/animate_005_right.png","animate","single","right","","","","","","","","","","","","","",""
"","","","","","survey-likert","11","94316","0.0-11.0","SS1678233172743","5b16e1a5457ace0001b40d46","6406d7f26dd5b7fc1e3377bd","6407ce4fcc8ff20af4192914","1536","753","","8260","","{""Q0"":4}","[0]","complexity","media/stimuli/animate_008_right.png","animate","single","right","","","","","","","","","","","","","",""
"","","","","","survey-likert","12","97200","0.0-12.0","SS1678233172743","5b16e1a5457ace0001b40d46","6406d7f26dd5b7fc1e3377bd","6407ce4fcc8ff20af4192914","1536","753","","2879","","{""Q0"":1}","[0]","complexity","media/stimuli/inanimate_002_right.png","inanimate","single","right","","","","","","","","","","","","","",""
"","","","","","survey-likert","13","100014","0.0-13.0","SS1678233172743","5b16e1a5457ace0001b40d46","6406d7f26dd5b7fc1e3377bd","6407ce4fcc8ff20af4192914","1536","753","","2809","","{""Q0"":2}","[0]","complexity","media/stimuli/inanimate_008_right.png","inanimate","pair","right","","","","","","","","","","","","","",""
"","","","","","survey-likert","14","103258","0.0-14.0","SS1678233172743","5b16e1a5457ace0001b40d46","6406d7f26dd5b7fc1e3377bd","6407ce4fcc8ff20af4192914","1536","753","","3240","","{""Q0"":2}","[0]","complexity","media/stimuli/inanimate_011_right.png","inanimate","single","right","","","","","","","","","","","","","",""
"","","","","","survey-likert","15","106018","0.0-15.0","SS1678233172743","5b16e1a5457ace0001b40d46","6406d7f26dd5b7fc1e3377bd","6407ce4fcc8ff20af4192914","1536","753","","2754","","{""Q0"":4}","[0]","complexity","media/stimuli/animate_010_left.png","animate","pair","left","","","","","","","","","","","","","",""
"","","","","","survey-likert","16","108388","0.0-16.0","SS1678233172743","5b16e1a5457ace0001b40d46","6406d7f26dd5b7fc1e3377bd","6407ce4fcc8ff20af4192914","1536","753","","2365","","{""Q0"":1}","[0]","complexity","media/stimuli/inanimate_002_left.png","inanimate","single","left","","","","","","","","","","","","","",""
"","","","","","survey-likert","17","111154","0.0-17.0","SS1678233172743","5b16e1a5457ace0001b40d46","6406d7f26dd5b7fc1e3377bd","6407ce4fcc8ff20af4192914","1536","753","","2761","","{""Q0"":2}","[0]","complexity","media/stimuli/inanimate_006_left.png","inanimate","pair","left","","","","","","","","","","","","","",""
"","","","","","survey-likert","18","113640","0.0-18.0","SS1678233172743","5b16e1a5457ace0001b40d46","6406d7f26dd5b7fc1e3377bd","6407ce4fcc8ff20af4192914","1536","753","","2481","","{""Q0"":4}","[0]","complexity","media/stimuli/animate_007_right.png","animate","single","right","","","","","","","","","","","","","",""
"","","","","","survey-likert","19","116448","0.0-19.0","SS1678233172743","5b16e1a5457ace0001b40d46","6406d7f26dd5b7fc1e3377bd","6407ce4fcc8ff20af4192914","1536","753","","2803","","{""Q0"":4}","[0]","complexity","media/stimuli/animate_008_left.png","animate","single","left","","","","","","","","","","","","","",""
"","","","","","html-keyboard-response","20","119011","0.0-20.0","SS1678233172743","5b16e1a5457ace0001b40d46","6406d7f26dd5b7fc1e3377bd","6407ce4fcc8ff20af4192914","1536","753","","2558",""," ","","","","","","","","","","","","","","","","","","","",""
"","","","","","survey-likert","21","123070","0.0-21.0","SS1678233172743","5b16e1a5457ace0001b40d46","6406d7f26dd5b7fc1e3377bd","6407ce4fcc8ff20af4192914","1536","753","","4055","","{""Q0"":2}","[0]","complexity","media/stimuli/inanimate_012_left.png","inanimate","pair","left","","","","","","","","","","","","","",""
"","","","","","survey-likert","22","126946","0.0-22.0","SS1678233172743","5b16e1a5457ace0001b40d46","6406d7f26dd5b7fc1e3377bd","6407ce4fcc8ff20af4192914","1536","753","","3871","","{""Q0"":5}","[0]","complexity","media/stimuli/animate_008_right.png","animate","pair","right","","","","","","","","","","","","","",""
"","","","","","survey-likert","23","129394","0.0-23.0","SS1678233172743","5b16e1a5457ace0001b40d46","6406d7f26dd5b7fc1e3377bd","6407ce4fcc8ff20af4192914","1536","753","","2442","","{""Q0"":2}","[0]","complexity","media/stimuli/inanimate_011_left.png","inanimate","pair","left","","","","","","","","","","","","","",""
"","","","","","survey-likert","24","131748","0.0-24.0","SS1678233172743","5b16e1a5457ace0001b40d46","6406d7f26dd5b7fc1e3377bd","6407ce4fcc8ff20af4192914","1536","753","","2350","","{""Q0"":4}","[0]","complexity","media/stimuli/animate_007_right.png","animate","pair","right","","","","","","","","","","","","","",""
"","","","","","survey-likert","25","134844","0.0-25.0","SS1678233172743","5b16e1a5457ace0001b40d46","6406d7f26dd5b7fc1e3377bd","6407ce4fcc8ff20af4192914","1536","753","","3091","","{""Q0"":2}","[0]","complexity","media/stimuli/inanimate_008_left.png","inanimate","pair","left","","","","","","","","","","","","","",""
"","","","","","survey-likert","26","137102","0.0-26.0","SS1678233172743","5b16e1a5457ace0001b40d46","6406d7f26dd5b7fc1e3377bd","6407ce4fcc8ff20af4192914","1536","753","","2253","","{""Q0"":4}","[0]","complexity","media/stimuli/animate_004_right.png","animate","pair","right","","","","","","","","","","","","","",""
"","","","","","survey-likert","27","139659","0.0-27.0","SS1678233172743","5b16e1a5457ace0001b40d46","6406d7f26dd5b7fc1e3377bd","6407ce4fcc8ff20af4192914","1536","753","","2552","","{""Q0"":1}","[0]","complexity","media/stimuli/inanimate_001_left.png","inanimate","pair","left","","","","","","","","","","","","","",""
"","","","","","survey-likert","28","141950","0.0-28.0","SS1678233172743","5b16e1a5457ace0001b40d46","6406d7f26dd5b7fc1e3377bd","6407ce4fcc8ff20af4192914","1536","753","","2288","","{""Q0"":1}","[0]","complexity","media/stimuli/inanimate_004_right.png","inanimate","single","right","","","","","","","","","","","","","",""
"","","","","","survey-likert","29","145124","0.0-29.0","SS1678233172743","5b16e1a5457ace0001b40d46","6406d7f26dd5b7fc1e3377bd","6407ce4fcc8ff20af4192914","1536","753","","3168","","{""Q0"":1}","[0]","complexity","media/stimuli/inanimate_009_left.png","inanimate","pair","left","","","","","","","","","","","","","",""
"","","","","","survey-likert","30","147546","0.0-30.0","SS1678233172743","5b16e1a5457ace0001b40d46","6406d7f26dd5b7fc1e3377bd","6407ce4fcc8ff20af4192914","1536","753","","2417","","{""Q0"":4}","[0]","complexity","media/stimuli/animate_012_right.png","animate","single","right","","","","","","","","","","","","","",""
"","","","","","survey-likert","31","150252","0.0-31.0","SS1678233172743","5b16e1a5457ace0001b40d46","6406d7f26dd5b7fc1e3377bd","6407ce4fcc8ff20af4192914","1536","753","","2701","","{""Q0"":5}","[0]","complexity","media/stimuli/animate_003_right.png","animate","pair","right","","","","","","","","","","","","","",""
"","","","","","survey-likert","32","152652","0.0-32.0","SS1678233172743","5b16e1a5457ace0001b40d46","6406d7f26dd5b7fc1e3377bd","6407ce4fcc8ff20af4192914","1536","753","","2394","","{""Q0"":5}","[0]","complexity","media/stimuli/animate_003_left.png","animate","pair","left","","","","","","","","","","","","","",""
"","","","","","html-keyboard-response","33","154285","0.0-33.0","SS1678233172743","5b16e1a5457ace0001b40d46","6406d7f26dd5b7fc1e3377bd","6407ce4fcc8ff20af4192914","1536","753","","1628","","backspace","","","","","","","","","","","","","","","","","","","",""
"","","","","","html-keyboard-response","34","162396","0.0-34.0","SS1678233172743","5b16e1a5457ace0001b40d46","6406d7f26dd5b7fc1e3377bd","6407ce4fcc8ff20af4192914","1536","753","","8106","","f","","","","","","","<img src=""media/stimuli/animate_003_left.png"" class=""coveredImage test"" style = ""width:100px; height:100px; position:fixed; top:10%;    transform: translate(-50%, -50%);left:44.5%""></img><img src=""media/stimuli/animate_003_left.png"" class=""coveredImage test"" style = ""width:100px; height:100px; position:fixed; top:10%;    transform: translate(-50%, -50%);left:51.5%""></img><img src=""media/stimuli/animate_003_right.png"" class=""coveredImage test"" style = ""width:100px; height:100px;position:fixed; top:25%;        transform: translate(-50%, -50%);left:34.5%""></img><img src=""media/stimuli/animate_003_right.png"" class=""coveredImage test"" style = ""width:100px; height:100px;position:fixed; top:25%;        transform: translate(-50%, -50%);left:41.5%""></img><img src=""media/stimuli/animate_006_left.png"" class=""coveredImage test"" style = ""width:100px; height:100px;position:fixed; top:25%;        transform: translate(-50%, -50%);left:54.5%""></img><img src=""media/stimuli/animate_006_left.png"" class=""coveredImage test"" style = ""width:100px; height:100px;position:fixed; top:25%;        transform: translate(-50%, -50%);left:61.5%""></img><img src=""media/f.png""style = ""width:30px x; height:30px;position:fixed; top:43%;    transform: translate(-50%, -50%);left:40%""></img><img src=""media/j.png""style = ""width:30px; height:30px;position:fixed; top:43%;    transform: translate(-50%, -50%);left:60%""></img>","media/stimuli/animate_003_left.png","animate","left","pair","media/stimuli/animate_003_right.png","animate","right","pair","media/stimuli/animate_006_left.png","animate","left","pair","pose_identity"
"","","","","","html-keyboard-response","35","163772","0.0-35.0","SS1678233172743","5b16e1a5457ace0001b40d46","6406d7f26dd5b7fc1e3377bd","6407ce4fcc8ff20af4192914","1536","753","","1369","","j","","","","","","","<img src=""media/stimuli/animate_003_right.png"" class=""coveredImage test"" style = ""width:100px; height:100px; position:fixed; top:10%;    transform: translate(-50%, -50%);left:44.5%""></img><img src=""media/stimuli/animate_003_right.png"" class=""coveredImage test"" style = ""width:100px; height:100px; position:fixed; top:10%;    transform: translate(-50%, -50%);left:51.5%""></img><img src=""media/stimuli/inanimate_004_right.png"" class=""coveredImage test"" style = ""width:100px; height:100px;position:fixed; top:25%;        transform: translate(-50%, -50%);left:34.5%""></img><img src=""media/stimuli/inanimate_004_right.png"" class=""coveredImage test"" style = ""width:100px; height:100px;position:fixed; top:25%;        transform: translate(-50%, -50%);left:41.5%""></img><img src=""media/stimuli/animate_003_right.png"" class=""coveredImage test"" style = ""width:100px; height:100px;position:fixed; top:25%;        transform: translate(-50%, -50%);left:58%""></img><img src=""media/f.png""style = ""width:30px x; height:30px;position:fixed; top:43%;    transform: translate(-50%, -50%);left:40%""></img><img src=""media/j.png""style = ""width:30px; height:30px;position:fixed; top:43%;    transform: translate(-50%, -50%);left:60%""></img>","media/stimuli/animate_003_right.png","animate","right","pair","media/stimuli/inanimate_004_right.png","inanimate","right","pair","media/stimuli/animate_003_right.png","animate","right","single","animacy_number"
"","","","","","html-keyboard-response","36","165706","0.0-36.0","SS1678233172743","5b16e1a5457ace0001b40d46","6406d7f26dd5b7fc1e3377bd","6407ce4fcc8ff20af4192914","1536","753","","1925","","j","","","","","","","<img src=""media/stimuli/animate_010_right.png"" class=""coveredImage test"" style = ""width:100px; height:100px; position:fixed; top:10%;    transform: translate(-50%, -50%);left:44.5%""></img><img src=""media/stimuli/animate_010_right.png"" class=""coveredImage test"" style = ""width:100px; height:100px; position:fixed; top:10%;    transform: translate(-50%, -50%);left:51.5%""></img><img src=""media/stimuli/inanimate_012_right.png"" class=""coveredImage test"" style = ""width:100px; height:100px;position:fixed; top:25%;        transform: translate(-50%, -50%);left:34.5%""></img><img src=""media/stimuli/inanimate_012_right.png"" class=""coveredImage test"" style = ""width:100px; height:100px;position:fixed; top:25%;        transform: translate(-50%, -50%);left:41.5%""></img><img src=""media/stimuli/animate_011_right.png"" class=""coveredImage test"" style = ""width:100px; height:100px;position:fixed; top:25%;        transform: translate(-50%, -50%);left:54.5%""></img><img src=""media/stimuli/animate_011_right.png"" class=""coveredImage test"" style = ""width:100px; height:100px;position:fixed; top:25%;        transform: translate(-50%, -50%);left:61.5%""></img><img src=""media/f.png""style = ""width:30px x; height:30px;position:fixed; top:43%;    transform: translate(-50%, -50%);left:40%""></img><img src=""media/j.png""style = ""width:30px; height:30px;position:fixed; top:43%;    transform: translate(-50%, -50%);left:60%""></img>","media/stimuli/animate_010_right.png","animate","right","pair","media/stimuli/inanimate_012_right.png","inanimate","right","pair","media/stimuli/animate_011_right.png","animate","right","pair","animacy_identity"
"","","","","","html-keyboard-response","37","167002","0.0-37.0","SS1678233172743","5b16e1a5457ace0001b40d46","6406d7f26dd5b7fc1e3377bd","6407ce4fcc8ff20af4192914","1536","753","","1291","","j","","","","","","","<img src=""media/stimuli/animate_005_left.png"" class=""coveredImage test"" style = ""width:100px; height:100px; position:fixed; top:10%;    transform: translate(-50%, -50%);left:44.5%""></img><img src=""media/stimuli/animate_005_left.png"" class=""coveredImage test"" style = ""width:100px; height:100px; position:fixed; top:10%;    transform: translate(-50%, -50%);left:51.5%""></img><img src=""media/stimuli/animate_011_left.png"" class=""coveredImage test"" style = ""width:100px; height:100px;position:fixed; top:25%;        transform: translate(-50%, -50%);left:34.5%""></img><img src=""media/stimuli/animate_011_left.png"" class=""coveredImage test"" style = ""width:100px; height:100px;position:fixed; top:25%;        transform: translate(-50%, -50%);left:41.5%""></img><img src=""media/stimuli/animate_005_right.png"" class=""coveredImage test"" style = ""width:100px; height:100px;position:fixed; top:25%;        transform: translate(-50%, -50%);left:54.5%""></img><img src=""media/stimuli/animate_005_right.png"" class=""coveredImage test"" style = ""width:100px; height:100px;position:fixed; top:25%;        transform: translate(-50%, -50%);left:61.5%""></img><img src=""media/f.png""style = ""width:30px x; height:30px;position:fixed; top:43%;    transform: translate(-50%, -50%);left:40%""></img><img src=""media/j.png""style = ""width:30px; height:30px;position:fixed; top:43%;    transform: translate(-50%, -50%);left:60%""></img>","media/stimuli/animate_005_left.png","animate","left","pair","media/stimuli/animate_011_left.png","animate","left","pair","media/stimuli/animate_005_right.png","animate","right","pair","identity_pose"
"","","","","","html-keyboard-response","38","169230","0.0-38.0","SS1678233172743","5b16e1a5457ace0001b40d46","6406d7f26dd5b7fc1e3377bd","6407ce4fcc8ff20af4192914","1536","753","","2223","","j","","","","","","","<img src=""media/stimuli/animate_011_left.png"" class=""coveredImage test"" style = ""width:100px; height:100px; position:fixed; top:10%;    transform: translate(-50%, -50%);left:48%""></img><img src=""media/stimuli/animate_011_left.png"" class=""coveredImage test"" style = ""width:100px; height:100px;position:fixed; top:25%;        transform: translate(-50%, -50%);left:34.5%""></img><img src=""media/stimuli/animate_011_left.png"" class=""coveredImage test"" style = ""width:100px; height:100px;position:fixed; top:25%;        transform: translate(-50%, -50%);left:41.5%""></img><img src=""media/stimuli/animate_011_right.png"" class=""coveredImage test"" style = ""width:100px; height:100px;position:fixed; top:25%;        transform: translate(-50%, -50%);left:58%""></img><img src=""media/f.png""style = ""width:30px x; height:30px;position:fixed; top:43%;    transform: translate(-50%, -50%);left:40%""></img><img src=""media/j.png""style = ""width:30px; height:30px;position:fixed; top:43%;    transform: translate(-50%, -50%);left:60%""></img>","media/stimuli/animate_011_left.png","animate","left","single","media/stimuli/animate_011_left.png","animate","left","pair","media/stimuli/animate_011_right.png","animate","right","single","number_pose"
"","","","","","html-keyboard-response","39","170863","0.0-39.0","SS1678233172743","5b16e1a5457ace0001b40d46","6406d7f26dd5b7fc1e3377bd","6407ce4fcc8ff20af4192914","1536","753","","1627","","f","","","","","","","<img src=""media/stimuli/inanimate_010_right.png"" class=""coveredImage test"" style = ""width:100px; height:100px; position:fixed; top:10%;    transform: translate(-50%, -50%);left:44.5%""></img><img src=""media/stimuli/inanimate_010_right.png"" class=""coveredImage test"" style = ""width:100px; height:100px; position:fixed; top:10%;    transform: translate(-50%, -50%);left:51.5%""></img><img src=""media/stimuli/inanimate_010_left.png"" class=""coveredImage test"" style = ""width:100px; height:100px;position:fixed; top:25%;        transform: translate(-50%, -50%);left:34.5%""></img><img src=""media/stimuli/inanimate_010_left.png"" class=""coveredImage test"" style = ""width:100px; height:100px;position:fixed; top:25%;        transform: translate(-50%, -50%);left:41.5%""></img><img src=""media/stimuli/inanimate_010_right.png"" class=""coveredImage test"" style = ""width:100px; height:100px;position:fixed; top:25%;        transform: translate(-50%, -50%);left:58%""></img><img src=""media/f.png""style = ""width:30px x; height:30px;position:fixed; top:43%;    transform: translate(-50%, -50%);left:40%""></img><img src=""media/j.png""style = ""width:30px; height:30px;position:fixed; top:43%;    transform: translate(-50%, -50%);left:60%""></img>","media/stimuli/inanimate_010_right.png","inanimate","right","pair","media/stimuli/inanimate_010_left.png","inanimate","left","pair","media/stimuli/inanimate_010_right.png","inanimate","right","single","pose_number"
"","","","","","html-keyboard-response","40","172411","0.0-40.0","SS1678233172743","5b16e1a5457ace0001b40d46","6406d7f26dd5b7fc1e3377bd","6407ce4fcc8ff20af4192914","1536","753","","1544","","f","","","","","","","<img src=""media/stimuli/animate_003_right.png"" class=""coveredImage test"" style = ""width:100px; height:100px; position:fixed; top:10%;    transform: translate(-50%, -50%);left:48%""></img><img src=""media/stimuli/animate_009_right.png"" class=""coveredImage test"" style = ""width:100px; height:100px;position:fixed; top:25%;        transform: translate(-50%, -50%);left:38%""></img><img src=""media/stimuli/inanimate_008_right.png"" class=""coveredImage test"" style = ""width:100px; height:100px;position:fixed; top:25%;        transform: translate(-50%, -50%);left:58%""></img><img src=""media/f.png""style = ""width:30px x; height:30px;position:fixed; top:43%;    transform: translate(-50%, -50%);left:40%""></img><img src=""media/j.png""style = ""width:30px; height:30px;position:fixed; top:43%;    transform: translate(-50%, -50%);left:60%""></img>","media/stimuli/animate_003_right.png","animate","right","single","media/stimuli/animate_009_right.png","animate","right","single","media/stimuli/inanimate_008_right.png","inanimate","right","single","identity_animacy"
"","","","","","html-keyboard-response","41","173985","0.0-41.0","SS1678233172743","5b16e1a5457ace0001b40d46","6406d7f26dd5b7fc1e3377bd","6407ce4fcc8ff20af4192914","1536","753","","1566","","f","","","","","","","<img src=""media/stimuli/animate_002_right.png"" class=""coveredImage test"" style = ""width:100px; height:100px; position:fixed; top:10%;    transform: translate(-50%, -50%);left:48%""></img><img src=""media/stimuli/animate_002_left.png"" class=""coveredImage test"" style = ""width:100px; height:100px;position:fixed; top:25%;        transform: translate(-50%, -50%);left:38%""></img><img src=""media/stimuli/animate_002_right.png"" class=""coveredImage test"" style = ""width:100px; height:100px;position:fixed; top:25%;        transform: translate(-50%, -50%);left:54.5%""></img><img src=""media/stimuli/animate_002_right.png"" class=""coveredImage test"" style = ""width:100px; height:100px;position:fixed; top:25%;        transform: translate(-50%, -50%);left:61.5%""></img><img src=""media/f.png""style = ""width:30px x; height:30px;position:fixed; top:43%;    transform: translate(-50%, -50%);left:40%""></img><img src=""media/j.png""style = ""width:30px; height:30px;position:fixed; top:43%;    transform: translate(-50%, -50%);left:60%""></img>","media/stimuli/animate_002_right.png","animate","right","single","media/stimuli/animate_002_left.png","animate","left","single","media/stimuli/animate_002_right.png","animate","right","pair","pose_number"
"","","","","","html-keyboard-response","42","175251","0.0-42.0","SS1678233172743","5b16e1a5457ace0001b40d46","6406d7f26dd5b7fc1e3377bd","6407ce4fcc8ff20af4192914","1536","753","","1262","","f","","","","","","","<img src=""media/stimuli/animate_008_left.png"" class=""coveredImage test"" style = ""width:100px; height:100px; position:fixed; top:10%;    transform: translate(-50%, -50%);left:48%""></img><img src=""media/stimuli/animate_008_left.png"" class=""coveredImage test"" style = ""width:100px; height:100px;position:fixed; top:25%;        transform: translate(-50%, -50%);left:34.5%""></img><img src=""media/stimuli/animate_008_left.png"" class=""coveredImage test"" style = ""width:100px; height:100px;position:fixed; top:25%;        transform: translate(-50%, -50%);left:41.5%""></img><img src=""media/stimuli/inanimate_012_left.png"" class=""coveredImage test"" style = ""width:100px; height:100px;position:fixed; top:25%;        transform: translate(-50%, -50%);left:58%""></img><img src=""media/f.png""style = ""width:30px x; height:30px;position:fixed; top:43%;    transform: translate(-50%, -50%);left:40%""></img><img src=""media/j.png""style = ""width:30px; height:30px;position:fixed; top:43%;    transform: translate(-50%, -50%);left:60%""></img>","media/stimuli/animate_008_left.png","animate","left","single","media/stimuli/animate_008_left.png","animate","left","pair","media/stimuli/inanimate_012_left.png","inanimate","left","single","number_animacy"
"","","","","","html-keyboard-response","43","176962","0.0-43.0","SS1678233172743","5b16e1a5457ace0001b40d46","6406d7f26dd5b7fc1e3377bd","6407ce4fcc8ff20af4192914","1536","753","","1703","","f","","","","","","","<img src=""media/stimuli/animate_012_right.png"" class=""coveredImage test"" style = ""width:100px; height:100px; position:fixed; top:10%;    transform: translate(-50%, -50%);left:44.5%""></img><img src=""media/stimuli/animate_012_right.png"" class=""coveredImage test"" style = ""width:100px; height:100px; position:fixed; top:10%;    transform: translate(-50%, -50%);left:51.5%""></img><img src=""media/stimuli/animate_012_left.png"" class=""coveredImage test"" style = ""width:100px; height:100px;position:fixed; top:25%;        transform: translate(-50%, -50%);left:34.5%""></img><img src=""media/stimuli/animate_012_left.png"" class=""coveredImage test"" style = ""width:100px; height:100px;position:fixed; top:25%;        transform: translate(-50%, -50%);left:41.5%""></img><img src=""media/stimuli/animate_012_right.png"" class=""coveredImage test"" style = ""width:100px; height:100px;position:fixed; top:25%;        transform: translate(-50%, -50%);left:58%""></img><img src=""media/f.png""style = ""width:30px x; height:30px;position:fixed; top:43%;    transform: translate(-50%, -50%);left:40%""></img><img src=""media/j.png""style = ""width:30px; height:30px;position:fixed; top:43%;    transform: translate(-50%, -50%);left:60%""></img>","media/stimuli/animate_012_right.png","animate","right","pair","media/stimuli/animate_012_left.png","animate","left","pair","media/stimuli/animate_012_right.png","animate","right","single","pose_number"
"","","","","","html-keyboard-response","44","179010","0.0-44.0","SS1678233172743","5b16e1a5457ace0001b40d46","6406d7f26dd5b7fc1e3377bd","6407ce4fcc8ff20af4192914","1536","753","","2041","","j","","","","","","","<img src=""media/stimuli/animate_009_right.png"" class=""coveredImage test"" style = ""width:100px; height:100px; position:fixed; top:10%;    transform: translate(-50%, -50%);left:48%""></img><img src=""media/stimuli/animate_009_right.png"" class=""coveredImage test"" style = ""width:100px; height:100px;position:fixed; top:25%;        transform: translate(-50%, -50%);left:34.5%""></img><img src=""media/stimuli/animate_009_right.png"" class=""coveredImage test"" style = ""width:100px; height:100px;position:fixed; top:25%;        transform: translate(-50%, -50%);left:41.5%""></img><img src=""media/stimuli/animate_009_left.png"" class=""coveredImage test"" style = ""width:100px; height:100px;position:fixed; top:25%;        transform: translate(-50%, -50%);left:58%""></img><img src=""media/f.png""style = ""width:30px x; height:30px;position:fixed; top:43%;    transform: translate(-50%, -50%);left:40%""></img><img src=""media/j.png""style = ""width:30px; height:30px;position:fixed; top:43%;    transform: translate(-50%, -50%);left:60%""></img>","media/stimuli/animate_009_right.png","animate","right","single","media/stimuli/animate_009_right.png","animate","right","pair","media/stimuli/animate_009_left.png","animate","left","single","number_pose"
"","","","","","html-keyboard-response","45","180230","0.0-45.0","SS1678233172743","5b16e1a5457ace0001b40d46","6406d7f26dd5b7fc1e3377bd","6407ce4fcc8ff20af4192914","1536","753","","1216","","f","","","","","","","<img src=""media/stimuli/inanimate_003_left.png"" class=""coveredImage test"" style = ""width:100px; height:100px; position:fixed; top:10%;    transform: translate(-50%, -50%);left:48%""></img><img src=""media/stimuli/inanimate_003_left.png"" class=""coveredImage test"" style = ""width:100px; height:100px;position:fixed; top:25%;        transform: translate(-50%, -50%);left:34.5%""></img><img src=""media/stimuli/inanimate_003_left.png"" class=""coveredImage test"" style = ""width:100px; height:100px;position:fixed; top:25%;        transform: translate(-50%, -50%);left:41.5%""></img><img src=""media/stimuli/inanimate_002_left.png"" class=""coveredImage test"" style = ""width:100px; height:100px;position:fixed; top:25%;        transform: translate(-50%, -50%);left:58%""></img><img src=""media/f.png""style = ""width:30px x; height:30px;position:fixed; top:43%;    transform: translate(-50%, -50%);left:40%""></img><img src=""media/j.png""style = ""width:30px; height:30px;position:fixed; top:43%;    transform: translate(-50%, -50%);left:60%""></img>","media/stimuli/inanimate_003_left.png","inanimate","left","single","media/stimuli/inanimate_003_left.png","inanimate","left","pair","media/stimuli/inanimate_002_left.png","inanimate","left","single","number_identity"
"","","","","","html-keyboard-response","46","182162","0.0-46.0","SS1678233172743","5b16e1a5457ace0001b40d46","6406d7f26dd5b7fc1e3377bd","6407ce4fcc8ff20af4192914","1536","753","","1927",""," ","","","","","","","","","","","","","","","","","","","",""
"","","","","","survey-likert","47","187926","0.0-47.0","SS1678233172743","5b16e1a5457ace0001b40d46","6406d7f26dd5b7fc1e3377bd","6407ce4fcc8ff20af4192914","1536","753","","5757","","{""Q0"":2}","[0]","complexity","media/stimuli/inanimate_012_right.png","inanimate","single","right","","","","","","","","","","","","","",""
"","","","","","survey-likert","48","190278","0.0-48.0","SS1678233172743","5b16e1a5457ace0001b40d46","6406d7f26dd5b7fc1e3377bd","6407ce4fcc8ff20af4192914","1536","753","","2345","","{""Q0"":4}","[0]","complexity","media/stimuli/animate_007_left.png","animate","single","left","","","","","","","","","","","","","",""
"","","","","","survey-likert","49","192804","0.0-49.0","SS1678233172743","5b16e1a5457ace0001b40d46","6406d7f26dd5b7fc1e3377bd","6407ce4fcc8ff20af4192914","1536","753","","2521","","{""Q0"":5}","[0]","complexity","media/stimuli/animate_012_right.png","animate","pair","right","","","","","","","","","","","","","",""
"","","","","","survey-likert","50","195384","0.0-50.0","SS1678233172743","5b16e1a5457ace0001b40d46","6406d7f26dd5b7fc1e3377bd","6407ce4fcc8ff20af4192914","1536","753","","2573","","{""Q0"":5}","[0]","complexity","media/stimuli/animate_001_left.png","animate","single","left","","","","","","","","","","","","","",""
"","","","","","survey-likert","51","197939","0.0-51.0","SS1678233172743","5b16e1a5457ace0001b40d46","6406d7f26dd5b7fc1e3377bd","6407ce4fcc8ff20af4192914","1536","753","","2550","","{""Q0"":2}","[0]","complexity","media/stimuli/inanimate_010_left.png","inanimate","single","left","","","","","","","","","","","","","",""
"","","","","","survey-likert","52","200082","0.0-52.0","SS1678233172743","5b16e1a5457ace0001b40d46","6406d7f26dd5b7fc1e3377bd","6407ce4fcc8ff20af4192914","1536","753","","2137","","{""Q0"":2}","[0]","complexity","media/stimuli/inanimate_008_left.png","inanimate","single","left","","","","","","","","","","","","","",""
"","","","","","survey-likert","53","202778","0.0-53.0","SS1678233172743","5b16e1a5457ace0001b40d46","6406d7f26dd5b7fc1e3377bd","6407ce4fcc8ff20af4192914","1536","753","","2689","","{""Q0"":1}","[0]","complexity","media/stimuli/inanimate_009_left.png","inanimate","single","left","","","","","","","","","","","","","",""
"","","","","","survey-likert","54","204842","0.0-54.0","SS1678233172743","5b16e1a5457ace0001b40d46","6406d7f26dd5b7fc1e3377bd","6407ce4fcc8ff20af4192914","1536","753","","2058","","{""Q0"":4}","[0]","complexity","media/stimuli/animate_003_left.png","animate","single","left","","","","","","","","","","","","","",""
"","","","","","survey-likert","55","207000","0.0-55.0","SS1678233172743","5b16e1a5457ace0001b40d46","6406d7f26dd5b7fc1e3377bd","6407ce4fcc8ff20af4192914","1536","753","","2152","","{""Q0"":4}","[0]","complexity","media/stimuli/animate_012_left.png","animate","single","left","","","","","","","","","","","","","",""
"","","","","","survey-likert","56","209682","0.0-56.0","SS1678233172743","5b16e1a5457ace0001b40d46","6406d7f26dd5b7fc1e3377bd","6407ce4fcc8ff20af4192914","1536","753","","2675","","{""Q0"":4}","[0]","complexity","media/stimuli/animate_002_left.png","animate","single","left","","","","","","","","","","","","","",""
"","","","","","survey-likert","57","212020","0.0-57.0","SS1678233172743","5b16e1a5457ace0001b40d46","6406d7f26dd5b7fc1e3377bd","6407ce4fcc8ff20af4192914","1536","753","","2331","","{""Q0"":2}","[0]","complexity","media/stimuli/inanimate_007_left.png","inanimate","single","left","","","","","","","","","","","","","",""
"","","","","","survey-likert","58","214192","0.0-58.0","SS1678233172743","5b16e1a5457ace0001b40d46","6406d7f26dd5b7fc1e3377bd","6407ce4fcc8ff20af4192914","1536","753","","2165","","{""Q0"":1}","[0]","complexity","media/stimuli/inanimate_003_left.png","inanimate","single","left","","","","","","","","","","","","","",""
"","","","","","html-keyboard-response","59","215748","0.0-59.0","SS1678233172743","5b16e1a5457ace0001b40d46","6406d7f26dd5b7fc1e3377bd","6407ce4fcc8ff20af4192914","1536","753","","1551",""," ","","","","","","","","","","","","","","","","","","","",""
"","","","","","survey-likert","60","218570","0.0-60.0","SS1678233172743","5b16e1a5457ace0001b40d46","6406d7f26dd5b7fc1e3377bd","6407ce4fcc8ff20af4192914","1536","753","","2813","","{""Q0"":4}","[0]","complexity","media/stimuli/animate_010_left.png","animate","single","left","","","","","","","","","","","","","",""
"","","","","","survey-likert","61","221260","0.0-61.0","SS1678233172743","5b16e1a5457ace0001b40d46","6406d7f26dd5b7fc1e3377bd","6407ce4fcc8ff20af4192914","1536","753","","2684","","{""Q0"":5}","[0]","complexity","media/stimuli/animate_010_right.png","animate","pair","right","","","","","","","","","","","","","",""
"","","","","","survey-likert","62","223379","0.0-62.0","SS1678233172743","5b16e1a5457ace0001b40d46","6406d7f26dd5b7fc1e3377bd","6407ce4fcc8ff20af4192914","1536","753","","2114","","{""Q0"":2}","[0]","complexity","media/stimuli/inanimate_004_right.png","inanimate","pair","right","","","","","","","","","","","","","",""
"","","","","","survey-likert","63","225427","0.0-63.0","SS1678233172743","5b16e1a5457ace0001b40d46","6406d7f26dd5b7fc1e3377bd","6407ce4fcc8ff20af4192914","1536","753","","2043","","{""Q0"":2}","[0]","complexity","media/stimuli/inanimate_012_left.png","inanimate","single","left","","","","","","","","","","","","","",""
"","","","","","survey-likert","64","229548","0.0-64.0","SS1678233172743","5b16e1a5457ace0001b40d46","6406d7f26dd5b7fc1e3377bd","6407ce4fcc8ff20af4192914","1536","753","","4114","","{""Q0"":2}","[0]","complexity","media/stimuli/inanimate_002_left.png","inanimate","pair","left","","","","","","","","","","","","","",""
"","","","","","survey-likert","65","232370","0.0-65.0","SS1678233172743","5b16e1a5457ace0001b40d46","6406d7f26dd5b7fc1e3377bd","6407ce4fcc8ff20af4192914","1536","753","","2816","","{""Q0"":5}","[0]","complexity","media/stimuli/animate_011_left.png","animate","pair","left","","","","","","","","","","","","","",""
"","","","","","survey-likert","66","237218","0.0-66.0","SS1678233172743","5b16e1a5457ace0001b40d46","6406d7f26dd5b7fc1e3377bd","6407ce4fcc8ff20af4192914","1536","753","","4841","","{""Q0"":5}","[0]","complexity","media/stimuli/animate_001_left.png","animate","pair","left","","","","","","","","","","","","","",""
"","","","","","survey-likert","67","239679","0.0-67.0","SS1678233172743","5b16e1a5457ace0001b40d46","6406d7f26dd5b7fc1e3377bd","6407ce4fcc8ff20af4192914","1536","753","","2455","","{""Q0"":5}","[0]","complexity","media/stimuli/animate_007_left.png","animate","pair","left","","","","","","","","","","","","","",""
"","","","","","survey-likert","68","241918","0.0-68.0","SS1678233172743","5b16e1a5457ace0001b40d46","6406d7f26dd5b7fc1e3377bd","6407ce4fcc8ff20af4192914","1536","753","","2231","","{""Q0"":4}","[0]","complexity","media/stimuli/animate_010_right.png","animate","single","right","","","","","","","","","","","","","",""
"","","","","","survey-likert","69","244192","0.0-69.0","SS1678233172743","5b16e1a5457ace0001b40d46","6406d7f26dd5b7fc1e3377bd","6407ce4fcc8ff20af4192914","1536","753","","2264","","{""Q0"":4}","[0]","complexity","media/stimuli/animate_011_right.png","animate","single","right","","","","","","","","","","","","","",""
"","","","","","survey-likert","70","246255","0.0-70.0","SS1678233172743","5b16e1a5457ace0001b40d46","6406d7f26dd5b7fc1e3377bd","6407ce4fcc8ff20af4192914","1536","753","","2057","","{""Q0"":5}","[0]","complexity","media/stimuli/animate_001_right.png","animate","pair","right","","","","","","","","","","","","","",""
"","","","","","survey-likert","71","248312","0.0-71.0","SS1678233172743","5b16e1a5457ace0001b40d46","6406d7f26dd5b7fc1e3377bd","6407ce4fcc8ff20af4192914","1536","753","","2050","","{""Q0"":2}","[0]","complexity","media/stimuli/inanimate_006_left.png","inanimate","single","left","","","","","","","","","","","","","",""
"","","","","","html-keyboard-response","72","249933","0.0-72.0","SS1678233172743","5b16e1a5457ace0001b40d46","6406d7f26dd5b7fc1e3377bd","6407ce4fcc8ff20af4192914","1536","753","","1615",""," ","","","","","","","","","","","","","","","","","","","",""
"","","","","","html-keyboard-response","73","255482","0.0-73.0","SS1678233172743","5b16e1a5457ace0001b40d46","6406d7f26dd5b7fc1e3377bd","6407ce4fcc8ff20af4192914","1536","753","","5546","","j","","","","","","","<img src=""media/stimuli/animate_010_right.png"" class=""coveredImage test"" style = ""width:100px; height:100px; position:fixed; top:10%;    transform: translate(-50%, -50%);left:44.5%""></img><img src=""media/stimuli/animate_010_right.png"" class=""coveredImage test"" style = ""width:100px; height:100px; position:fixed; top:10%;    transform: translate(-50%, -50%);left:51.5%""></img><img src=""media/stimuli/inanimate_004_right.png"" class=""coveredImage test"" style = ""width:100px; height:100px;position:fixed; top:25%;        transform: translate(-50%, -50%);left:34.5%""></img><img src=""media/stimuli/inanimate_004_right.png"" class=""coveredImage test"" style = ""width:100px; height:100px;position:fixed; top:25%;        transform: translate(-50%, -50%);left:41.5%""></img><img src=""media/stimuli/animate_001_right.png"" class=""coveredImage test"" style = ""width:100px; height:100px;position:fixed; top:25%;        transform: translate(-50%, -50%);left:54.5%""></img><img src=""media/stimuli/animate_001_right.png"" class=""coveredImage test"" style = ""width:100px; height:100px;position:fixed; top:25%;        transform: translate(-50%, -50%);left:61.5%""></img><img src=""media/f.png""style = ""width:30px x; height:30px;position:fixed; top:43%;    transform: translate(-50%, -50%);left:40%""></img><img src=""media/j.png""style = ""width:30px; height:30px;position:fixed; top:43%;    transform: translate(-50%, -50%);left:60%""></img>","media/stimuli/animate_010_right.png","animate","right","pair","media/stimuli/inanimate_004_right.png","inanimate","right","pair","media/stimuli/animate_001_right.png","animate","right","pair","animacy_identity"
"","","","","","html-keyboard-response","74","256911","0.0-74.0","SS1678233172743","5b16e1a5457ace0001b40d46","6406d7f26dd5b7fc1e3377bd","6407ce4fcc8ff20af4192914","1536","753","","1424","","j","","","","","","","<img src=""media/stimuli/animate_009_right.png"" class=""coveredImage test"" style = ""width:100px; height:100px; position:fixed; top:10%;    transform: translate(-50%, -50%);left:44.5%""></img><img src=""media/stimuli/animate_009_right.png"" class=""coveredImage test"" style = ""width:100px; height:100px; position:fixed; top:10%;    transform: translate(-50%, -50%);left:51.5%""></img><img src=""media/stimuli/animate_005_right.png"" class=""coveredImage test"" style = ""width:100px; height:100px;position:fixed; top:25%;        transform: translate(-50%, -50%);left:34.5%""></img><img src=""media/stimuli/animate_005_right.png"" class=""coveredImage test"" style = ""width:100px; height:100px;position:fixed; top:25%;        transform: translate(-50%, -50%);left:41.5%""></img><img src=""media/stimuli/animate_009_right.png"" class=""coveredImage test"" style = ""width:100px; height:100px;position:fixed; top:25%;        transform: translate(-50%, -50%);left:58%""></img><img src=""media/f.png""style = ""width:30px x; height:30px;position:fixed; top:43%;    transform: translate(-50%, -50%);left:40%""></img><img src=""media/j.png""style = ""width:30px; height:30px;position:fixed; top:43%;    transform: translate(-50%, -50%);left:60%""></img>","media/stimuli/animate_009_right.png","animate","right","pair","media/stimuli/animate_005_right.png","animate","right","pair","media/stimuli/animate_009_right.png","animate","right","single","identity_number"
"","","","","","html-keyboard-response","75","259328","0.0-75.0","SS1678233172743","5b16e1a5457ace0001b40d46","6406d7f26dd5b7fc1e3377bd","6407ce4fcc8ff20af4192914","1536","753","","2410","","f","","","","","","","<img src=""media/stimuli/animate_011_left.png"" class=""coveredImage test"" style = ""width:100px; height:100px; position:fixed; top:10%;    transform: translate(-50%, -50%);left:48%""></img><img src=""media/stimuli/animate_008_left.png"" class=""coveredImage test"" style = ""width:100px; height:100px;position:fixed; top:25%;        transform: translate(-50%, -50%);left:38%""></img><img src=""media/stimuli/inanimate_002_left.png"" class=""coveredImage test"" style = ""width:100px; height:100px;position:fixed; top:25%;        transform: translate(-50%, -50%);left:58%""></img><img src=""media/f.png""style = ""width:30px x; height:30px;position:fixed; top:43%;    transform: translate(-50%, -50%);left:40%""></img><img src=""media/j.png""style = ""width:30px; height:30px;position:fixed; top:43%;    transform: translate(-50%, -50%);left:60%""></img>","media/stimuli/animate_011_left.png","animate","left","single","media/stimuli/animate_008_left.png","animate","left","single","media/stimuli/inanimate_002_left.png","inanimate","left","single","identity_animacy"
"","","","","","html-keyboard-response","76","260548","0.0-76.0","SS1678233172743","5b16e1a5457ace0001b40d46","6406d7f26dd5b7fc1e3377bd","6407ce4fcc8ff20af4192914","1536","753","","1213","","f","","","","","","","<img src=""media/stimuli/animate_007_left.png"" class=""coveredImage test"" style = ""width:100px; height:100px; position:fixed; top:10%;    transform: translate(-50%, -50%);left:44.5%""></img><img src=""media/stimuli/animate_007_left.png"" class=""coveredImage test"" style = ""width:100px; height:100px; position:fixed; top:10%;    transform: translate(-50%, -50%);left:51.5%""></img><img src=""media/stimuli/animate_007_left.png"" class=""coveredImage test"" style = ""width:100px; height:100px;position:fixed; top:25%;        transform: translate(-50%, -50%);left:38%""></img><img src=""media/stimuli/animate_012_left.png"" class=""coveredImage test"" style = ""width:100px; height:100px;position:fixed; top:25%;        transform: translate(-50%, -50%);left:54.5%""></img><img src=""media/stimuli/animate_012_left.png"" class=""coveredImage test"" style = ""width:100px; height:100px;position:fixed; top:25%;        transform: translate(-50%, -50%);left:61.5%""></img><img src=""media/f.png""style = ""width:30px x; height:30px;position:fixed; top:43%;    transform: translate(-50%, -50%);left:40%""></img><img src=""media/j.png""style = ""width:30px; height:30px;position:fixed; top:43%;    transform: translate(-50%, -50%);left:60%""></img>","media/stimuli/animate_007_left.png","animate","left","pair","media/stimuli/animate_007_left.png","animate","left","single","media/stimuli/animate_012_left.png","animate","left","pair","number_identity"
"","","","","","html-keyboard-response","77","261497","0.0-77.0","SS1678233172743","5b16e1a5457ace0001b40d46","6406d7f26dd5b7fc1e3377bd","6407ce4fcc8ff20af4192914","1536","753","","940","","j","","","","","","","<img src=""media/stimuli/animate_004_right.png"" class=""coveredImage test"" style = ""width:100px; height:100px; position:fixed; top:10%;    transform: translate(-50%, -50%);left:44.5%""></img><img src=""media/stimuli/animate_004_right.png"" class=""coveredImage test"" style = ""width:100px; height:100px; position:fixed; top:10%;    transform: translate(-50%, -50%);left:51.5%""></img><img src=""media/stimuli/animate_007_right.png"" class=""coveredImage test"" style = ""width:100px; height:100px;position:fixed; top:25%;        transform: translate(-50%, -50%);left:34.5%""></img><img src=""media/stimuli/animate_007_right.png"" class=""coveredImage test"" style = ""width:100px; height:100px;position:fixed; top:25%;        transform: translate(-50%, -50%);left:41.5%""></img><img src=""media/stimuli/animate_004_right.png"" class=""coveredImage test"" style = ""width:100px; height:100px;position:fixed; top:25%;        transform: translate(-50%, -50%);left:58%""></img><img src=""media/f.png""style = ""width:30px x; height:30px;position:fixed; top:43%;    transform: translate(-50%, -50%);left:40%""></img><img src=""media/j.png""style = ""width:30px; height:30px;position:fixed; top:43%;    transform: translate(-50%, -50%);left:60%""></img>","media/stimuli/animate_004_right.png","animate","right","pair","media/stimuli/animate_007_right.png","animate","right","pair","media/stimuli/animate_004_right.png","animate","right","single","identity_number"
"","","","","","html-keyboard-response","78","262789","0.0-78.0","SS1678233172743","5b16e1a5457ace0001b40d46","6406d7f26dd5b7fc1e3377bd","6407ce4fcc8ff20af4192914","1536","753","","1284","","j","","","","","","","<img src=""media/stimuli/animate_010_left.png"" class=""coveredImage test"" style = ""width:100px; height:100px; position:fixed; top:10%;    transform: translate(-50%, -50%);left:44.5%""></img><img src=""media/stimuli/animate_010_left.png"" class=""coveredImage test"" style = ""width:100px; height:100px; position:fixed; top:10%;    transform: translate(-50%, -50%);left:51.5%""></img><img src=""media/stimuli/inanimate_007_right.png"" class=""coveredImage test"" style = ""width:100px; height:100px;position:fixed; top:25%;        transform: translate(-50%, -50%);left:38%""></img><img src=""media/stimuli/animate_010_left.png"" class=""coveredImage test"" style = ""width:100px; height:100px;position:fixed; top:25%;        transform: translate(-50%, -50%);left:58%""></img><img src=""media/f.png""style = ""width:30px x; height:30px;position:fixed; top:43%;    transform: translate(-50%, -50%);left:40%""></img><img src=""media/j.png""style = ""width:30px; height:30px;position:fixed; top:43%;    transform: translate(-50%, -50%);left:60%""></img>","media/stimuli/animate_010_left.png","animate","left","pair","media/stimuli/inanimate_007_right.png","inanimate","right","single","media/stimuli/animate_010_left.png","animate","left","single","animacy_pose"
"","","","","","html-keyboard-response","79","264756","0.0-79.0","SS1678233172743","5b16e1a5457ace0001b40d46","6406d7f26dd5b7fc1e3377bd","6407ce4fcc8ff20af4192914","1536","753","","1956","","f","","","","","","","<img src=""media/stimuli/animate_004_right.png"" class=""coveredImage test"" style = ""width:100px; height:100px; position:fixed; top:10%;    transform: translate(-50%, -50%);left:44.5%""></img><img src=""media/stimuli/animate_004_right.png"" class=""coveredImage test"" style = ""width:100px; height:100px; position:fixed; top:10%;    transform: translate(-50%, -50%);left:51.5%""></img><img src=""media/stimuli/animate_004_left.png"" class=""coveredImage test"" style = ""width:100px; height:100px;position:fixed; top:25%;        transform: translate(-50%, -50%);left:34.5%""></img><img src=""media/stimuli/animate_004_left.png"" class=""coveredImage test"" style = ""width:100px; height:100px;position:fixed; top:25%;        transform: translate(-50%, -50%);left:41.5%""></img><img src=""media/stimuli/animate_004_right.png"" class=""coveredImage test"" style = ""width:100px; height:100px;position:fixed; top:25%;        transform: translate(-50%, -50%);left:58%""></img><img src=""media/f.png""style = ""width:30px x; height:30px;position:fixed; top:43%;    transform: translate(-50%, -50%);left:40%""></img><img src=""media/j.png""style = ""width:30px; height:30px;position:fixed; top:43%;    transform: translate(-50%, -50%);left:60%""></img>","media/stimuli/animate_004_right.png","animate","right","pair","media/stimuli/animate_004_left.png","animate","left","pair","media/stimuli/animate_004_right.png","animate","right","single","pose_number"
"","","","","","html-keyboard-response","80","266010","0.0-80.0","SS1678233172743","5b16e1a5457ace0001b40d46","6406d7f26dd5b7fc1e3377bd","6407ce4fcc8ff20af4192914","1536","753","","1248","","j","","","","","","","<img src=""media/stimuli/animate_001_right.png"" class=""coveredImage test"" style = ""width:100px; height:100px; position:fixed; top:10%;    transform: translate(-50%, -50%);left:48%""></img><img src=""media/stimuli/inanimate_002_right.png"" class=""coveredImage test"" style = ""width:100px; height:100px;position:fixed; top:25%;        transform: translate(-50%, -50%);left:38%""></img><img src=""media/stimuli/animate_001_right.png"" class=""coveredImage test"" style = ""width:100px; height:100px;position:fixed; top:25%;        transform: translate(-50%, -50%);left:54.5%""></img><img src=""media/stimuli/animate_001_right.png"" class=""coveredImage test"" style = ""width:100px; height:100px;position:fixed; top:25%;        transform: translate(-50%, -50%);left:61.5%""></img><img src=""media/f.png""style = ""width:30px x; height:30px;position:fixed; top:43%;    transform: translate(-50%, -50%);left:40%""></img><img src=""media/j.png""style = ""width:30px; height:30px;position:fixed; top:43%;    transform: translate(-50%, -50%);left:60%""></img>","media/stimuli/animate_001_right.png","animate","right","single","media/stimuli/inanimate_002_right.png","inanimate","right","single","media/stimuli/animate_001_right.png","animate","right","pair","animacy_number"
"","","","","","html-keyboard-response","81","268263","0.0-81.0","SS1678233172743","5b16e1a5457ace0001b40d46","6406d7f26dd5b7fc1e3377bd","6407ce4fcc8ff20af4192914","1536","753","","2242","","f","","","","","","","<img src=""media/stimuli/animate_002_right.png"" class=""coveredImage test"" style = ""width:100px; height:100px; position:fixed; top:10%;    transform: translate(-50%, -50%);left:44.5%""></img><img src=""media/stimuli/animate_002_right.png"" class=""coveredImage test"" style = ""width:100px; height:100px; position:fixed; top:10%;    transform: translate(-50%, -50%);left:51.5%""></img><img src=""media/stimuli/animate_002_right.png"" class=""coveredImage test"" style = ""width:100px; height:100px;position:fixed; top:25%;        transform: translate(-50%, -50%);left:38%""></img><img src=""media/stimuli/animate_007_right.png"" class=""coveredImage test"" style = ""width:100px; height:100px;position:fixed; top:25%;        transform: translate(-50%, -50%);left:54.5%""></img><img src=""media/stimuli/animate_007_right.png"" class=""coveredImage test"" style = ""width:100px; height:100px;position:fixed; top:25%;        transform: translate(-50%, -50%);left:61.5%""></img><img src=""media/f.png""style = ""width:30px x; height:30px;position:fixed; top:43%;    transform: translate(-50%, -50%);left:40%""></img><img src=""media/j.png""style = ""width:30px; height:30px;position:fixed; top:43%;    transform: translate(-50%, -50%);left:60%""></img>","media/stimuli/animate_002_right.png","animate","right","pair","media/stimuli/animate_002_right.png","animate","right","single","media/stimuli/animate_007_right.png","animate","right","pair","number_identity"
"","","","","","html-keyboard-response","82","270215","0.0-82.0","SS1678233172743","5b16e1a5457ace0001b40d46","6406d7f26dd5b7fc1e3377bd","6407ce4fcc8ff20af4192914","1536","753","","1944","","f","","","","","","","<img src=""media/stimuli/inanimate_008_right.png"" class=""coveredImage test"" style = ""width:100px; height:100px; position:fixed; top:10%;    transform: translate(-50%, -50%);left:44.5%""></img><img src=""media/stimuli/inanimate_008_right.png"" class=""coveredImage test"" style = ""width:100px; height:100px; position:fixed; top:10%;    transform: translate(-50%, -50%);left:51.5%""></img><img src=""media/stimuli/inanimate_001_right.png"" class=""coveredImage test"" style = ""width:100px; height:100px;position:fixed; top:25%;        transform: translate(-50%, -50%);left:34.5%""></img><img src=""media/stimuli/inanimate_001_right.png"" class=""coveredImage test"" style = ""width:100px; height:100px;position:fixed; top:25%;        transform: translate(-50%, -50%);left:41.5%""></img><img src=""media/stimuli/animate_004_right.png"" class=""coveredImage test"" style = ""width:100px; height:100px;position:fixed; top:25%;        transform: translate(-50%, -50%);left:54.5%""></img><img src=""media/stimuli/animate_004_right.png"" class=""coveredImage test"" style = ""width:100px; height:100px;position:fixed; top:25%;        transform: translate(-50%, -50%);left:61.5%""></img><img src=""media/f.png""style = ""width:30px x; height:30px;position:fixed; top:43%;    transform: translate(-50%, -50%);left:40%""></img><img src=""media/j.png""style = ""width:30px; height:30px;position:fixed; top:43%;    transform: translate(-50%, -50%);left:60%""></img>","media/stimuli/inanimate_008_right.png","inanimate","right","pair","media/stimuli/inanimate_001_right.png","inanimate","right","pair","media/stimuli/animate_004_right.png","animate","right","pair","identity_animacy"
"","","","","","html-keyboard-response","83","271283","0.0-83.0","SS1678233172743","5b16e1a5457ace0001b40d46","6406d7f26dd5b7fc1e3377bd","6407ce4fcc8ff20af4192914","1536","753","","1058","","j","","","","","","","<img src=""media/stimuli/inanimate_008_left.png"" class=""coveredImage test"" style = ""width:100px; height:100px; position:fixed; top:10%;    transform: translate(-50%, -50%);left:48%""></img><img src=""media/stimuli/animate_003_right.png"" class=""coveredImage test"" style = ""width:100px; height:100px;position:fixed; top:25%;        transform: translate(-50%, -50%);left:34.5%""></img><img src=""media/stimuli/animate_003_right.png"" class=""coveredImage test"" style = ""width:100px; height:100px;position:fixed; top:25%;        transform: translate(-50%, -50%);left:41.5%""></img><img src=""media/stimuli/inanimate_008_left.png"" class=""coveredImage test"" style = ""width:100px; height:100px;position:fixed; top:25%;        transform: translate(-50%, -50%);left:54.5%""></img><img src=""media/stimuli/inanimate_008_left.png"" class=""coveredImage test"" style = ""width:100px; height:100px;position:fixed; top:25%;        transform: translate(-50%, -50%);left:61.5%""></img><img src=""media/f.png""style = ""width:30px x; height:30px;position:fixed; top:43%;    transform: translate(-50%, -50%);left:40%""></img><img src=""media/j.png""style = ""width:30px; height:30px;position:fixed; top:43%;    transform: translate(-50%, -50%);left:60%""></img>","media/stimuli/inanimate_008_left.png","inanimate","left","single","media/stimuli/animate_003_right.png","animate","right","pair","media/stimuli/inanimate_008_left.png","inanimate","left","pair","animacy_pose"
"","","","","","html-keyboard-response","84","272543","0.0-84.0","SS1678233172743","5b16e1a5457ace0001b40d46","6406d7f26dd5b7fc1e3377bd","6407ce4fcc8ff20af4192914","1536","753","","1253","","f","","","","","","","<img src=""media/stimuli/inanimate_002_left.png"" class=""coveredImage test"" style = ""width:100px; height:100px; position:fixed; top:10%;    transform: translate(-50%, -50%);left:48%""></img><img src=""media/stimuli/inanimate_002_right.png"" class=""coveredImage test"" style = ""width:100px; height:100px;position:fixed; top:25%;        transform: translate(-50%, -50%);left:38%""></img><img src=""media/stimuli/inanimate_012_left.png"" class=""coveredImage test"" style = ""width:100px; height:100px;position:fixed; top:25%;        transform: translate(-50%, -50%);left:58%""></img><img src=""media/f.png""style = ""width:30px x; height:30px;position:fixed; top:43%;    transform: translate(-50%, -50%);left:40%""></img><img src=""media/j.png""style = ""width:30px; height:30px;position:fixed; top:43%;    transform: translate(-50%, -50%);left:60%""></img>","media/stimuli/inanimate_002_left.png","inanimate","left","single","media/stimuli/inanimate_002_right.png","inanimate","right","single","media/stimuli/inanimate_012_left.png","inanimate","left","single","pose_identity"
"","","","","","html-keyboard-response","85","273646","0.0-85.0","SS1678233172743","5b16e1a5457ace0001b40d46","6406d7f26dd5b7fc1e3377bd","6407ce4fcc8ff20af4192914","1536","753","","1094",""," ","","","","","","","","","","","","","","","","","","","",""
"","","","","","html-keyboard-response","86","276903","0.0-86.0","SS1678233172743","5b16e1a5457ace0001b40d46","6406d7f26dd5b7fc1e3377bd","6407ce4fcc8ff20af4192914","1536","753","","3251","","j","","","","","","","<img src=""media/stimuli/inanimate_001_right.png"" class=""coveredImage test"" style = ""width:100px; height:100px; position:fixed; top:10%;    transform: translate(-50%, -50%);left:48%""></img><img src=""media/stimuli/animate_012_right.png"" class=""coveredImage test"" style = ""width:100px; height:100px;position:fixed; top:25%;        transform: translate(-50%, -50%);left:38%""></img><img src=""media/stimuli/inanimate_008_right.png"" class=""coveredImage test"" style = ""width:100px; height:100px;position:fixed; top:25%;        transform: translate(-50%, -50%);left:58%""></img><img src=""media/f.png""style = ""width:30px x; height:30px;position:fixed; top:43%;    transform: translate(-50%, -50%);left:40%""></img><img src=""media/j.png""style = ""width:30px; height:30px;position:fixed; top:43%;    transform: translate(-50%, -50%);left:60%""></img>","media/stimuli/inanimate_001_right.png","inanimate","right","single","media/stimuli/animate_012_right.png","animate","right","single","media/stimuli/inanimate_008_right.png","inanimate","right","single","animacy_identity"
"","","","","","html-keyboard-response","87","277846","0.0-87.0","SS1678233172743","5b16e1a5457ace0001b40d46","6406d7f26dd5b7fc1e3377bd","6407ce4fcc8ff20af4192914","1536","753","","932","","j","","","","","","","<img src=""media/stimuli/inanimate_002_right.png"" class=""coveredImage test"" style = ""width:100px; height:100px; position:fixed; top:10%;    transform: translate(-50%, -50%);left:48%""></img><img src=""media/stimuli/animate_002_left.png"" class=""coveredImage test"" style = ""width:100px; height:100px;position:fixed; top:25%;        transform: translate(-50%, -50%);left:34.5%""></img><img src=""media/stimuli/animate_002_left.png"" class=""coveredImage test"" style = ""width:100px; height:100px;position:fixed; top:25%;        transform: translate(-50%, -50%);left:41.5%""></img><img src=""media/stimuli/inanimate_002_right.png"" class=""coveredImage test"" style = ""width:100px; height:100px;position:fixed; top:25%;        transform: translate(-50%, -50%);left:54.5%""></img><img src=""media/stimuli/inanimate_002_right.png"" class=""coveredImage test"" style = ""width:100px; height:100px;position:fixed; top:25%;        transform: translate(-50%, -50%);left:61.5%""></img><img src=""media/f.png""style = ""width:30px x; height:30px;position:fixed; top:43%;    transform: translate(-50%, -50%);left:40%""></img><img src=""media/j.png""style = ""width:30px; height:30px;position:fixed; top:43%;    transform: translate(-50%, -50%);left:60%""></img>","media/stimuli/inanimate_002_right.png","inanimate","right","single","media/stimuli/animate_002_left.png","animate","left","pair","media/stimuli/inanimate_002_right.png","inanimate","right","pair","animacy_pose"
"","","","","","html-keyboard-response","88","279131","0.0-88.0","SS1678233172743","5b16e1a5457ace0001b40d46","6406d7f26dd5b7fc1e3377bd","6407ce4fcc8ff20af4192914","1536","753","","1276","","j","","","","","","","<img src=""media/stimuli/animate_008_left.png"" class=""coveredImage test"" style = ""width:100px; height:100px; position:fixed; top:10%;    transform: translate(-50%, -50%);left:48%""></img><img src=""media/stimuli/inanimate_009_left.png"" class=""coveredImage test"" style = ""width:100px; height:100px;position:fixed; top:25%;        transform: translate(-50%, -50%);left:38%""></img><img src=""media/stimuli/animate_008_left.png"" class=""coveredImage test"" style = ""width:100px; height:100px;position:fixed; top:25%;        transform: translate(-50%, -50%);left:54.5%""></img><img src=""media/stimuli/animate_008_left.png"" class=""coveredImage test"" style = ""width:100px; height:100px;position:fixed; top:25%;        transform: translate(-50%, -50%);left:61.5%""></img><img src=""media/f.png""style = ""width:30px x; height:30px;position:fixed; top:43%;    transform: translate(-50%, -50%);left:40%""></img><img src=""media/j.png""style = ""width:30px; height:30px;position:fixed; top:43%;    transform: translate(-50%, -50%);left:60%""></img>","media/stimuli/animate_008_left.png","animate","left","single","media/stimuli/inanimate_009_left.png","inanimate","left","single","media/stimuli/animate_008_left.png","animate","left","pair","animacy_number"
"","","","","","html-keyboard-response","89","279965","0.0-89.0","SS1678233172743","5b16e1a5457ace0001b40d46","6406d7f26dd5b7fc1e3377bd","6407ce4fcc8ff20af4192914","1536","753","","824","","f","","","","","","","<img src=""media/stimuli/animate_006_left.png"" class=""coveredImage test"" style = ""width:100px; height:100px; position:fixed; top:10%;    transform: translate(-50%, -50%);left:48%""></img><img src=""media/stimuli/animate_006_right.png"" class=""coveredImage test"" style = ""width:100px; height:100px;position:fixed; top:25%;        transform: translate(-50%, -50%);left:34.5%""></img><img src=""media/stimuli/animate_006_right.png"" class=""coveredImage test"" style = ""width:100px; height:100px;position:fixed; top:25%;        transform: translate(-50%, -50%);left:41.5%""></img><img src=""media/stimuli/inanimate_012_left.png"" class=""coveredImage test"" style = ""width:100px; height:100px;position:fixed; top:25%;        transform: translate(-50%, -50%);left:54.5%""></img><img src=""media/stimuli/inanimate_012_left.png"" class=""coveredImage test"" style = ""width:100px; height:100px;position:fixed; top:25%;        transform: translate(-50%, -50%);left:61.5%""></img><img src=""media/f.png""style = ""width:30px x; height:30px;position:fixed; top:43%;    transform: translate(-50%, -50%);left:40%""></img><img src=""media/j.png""style = ""width:30px; height:30px;position:fixed; top:43%;    transform: translate(-50%, -50%);left:60%""></img>","media/stimuli/animate_006_left.png","animate","left","single","media/stimuli/animate_006_right.png","animate","right","pair","media/stimuli/inanimate_012_left.png","inanimate","left","pair","pose_animacy"
"","","","","","html-keyboard-response","90","280798","0.0-90.0","SS1678233172743","5b16e1a5457ace0001b40d46","6406d7f26dd5b7fc1e3377bd","6407ce4fcc8ff20af4192914","1536","753","","823","","j","","","","","","","<img src=""media/stimuli/inanimate_011_right.png"" class=""coveredImage test"" style = ""width:100px; height:100px; position:fixed; top:10%;    transform: translate(-50%, -50%);left:48%""></img><img src=""media/stimuli/inanimate_008_right.png"" class=""coveredImage test"" style = ""width:100px; height:100px;position:fixed; top:25%;        transform: translate(-50%, -50%);left:38%""></img><img src=""media/stimuli/inanimate_011_left.png"" class=""coveredImage test"" style = ""width:100px; height:100px;position:fixed; top:25%;        transform: translate(-50%, -50%);left:58%""></img><img src=""media/f.png""style = ""width:30px x; height:30px;position:fixed; top:43%;    transform: translate(-50%, -50%);left:40%""></img><img src=""media/j.png""style = ""width:30px; height:30px;position:fixed; top:43%;    transform: translate(-50%, -50%);left:60%""></img>","media/stimuli/inanimate_011_right.png","inanimate","right","single","media/stimuli/inanimate_008_right.png","inanimate","right","single","media/stimuli/inanimate_011_left.png","inanimate","left","single","identity_pose"
"","","","","","html-keyboard-response","91","281641","0.0-91.0","SS1678233172743","5b16e1a5457ace0001b40d46","6406d7f26dd5b7fc1e3377bd","6407ce4fcc8ff20af4192914","1536","753","","831","","j","","","","","","","<img src=""media/stimuli/inanimate_006_left.png"" class=""coveredImage test"" style = ""width:100px; height:100px; position:fixed; top:10%;    transform: translate(-50%, -50%);left:44.5%""></img><img src=""media/stimuli/inanimate_006_left.png"" class=""coveredImage test"" style = ""width:100px; height:100px; position:fixed; top:10%;    transform: translate(-50%, -50%);left:51.5%""></img><img src=""media/stimuli/animate_004_left.png"" class=""coveredImage test"" style = ""width:100px; height:100px;position:fixed; top:25%;        transform: translate(-50%, -50%);left:34.5%""></img><img src=""media/stimuli/animate_004_left.png"" class=""coveredImage test"" style = ""width:100px; height:100px;position:fixed; top:25%;        transform: translate(-50%, -50%);left:41.5%""></img><img src=""media/stimuli/inanimate_006_left.png"" class=""coveredImage test"" style = ""width:100px; height:100px;position:fixed; top:25%;        transform: translate(-50%, -50%);left:58%""></img><img src=""media/f.png""style = ""width:30px x; height:30px;position:fixed; top:43%;    transform: translate(-50%, -50%);left:40%""></img><img src=""media/j.png""style = ""width:30px; height:30px;position:fixed; top:43%;    transform: translate(-50%, -50%);left:60%""></img>","media/stimuli/inanimate_006_left.png","inanimate","left","pair","media/stimuli/animate_004_left.png","animate","left","pair","media/stimuli/inanimate_006_left.png","inanimate","left","single","animacy_number"
"","","","","","html-keyboard-response","92","283144","0.0-92.0","SS1678233172743","5b16e1a5457ace0001b40d46","6406d7f26dd5b7fc1e3377bd","6407ce4fcc8ff20af4192914","1536","753","","1495","","j","","","","","","","<img src=""media/stimuli/animate_005_left.png"" class=""coveredImage test"" style = ""width:100px; height:100px; position:fixed; top:10%;    transform: translate(-50%, -50%);left:48%""></img><img src=""media/stimuli/animate_005_left.png"" class=""coveredImage test"" style = ""width:100px; height:100px;position:fixed; top:25%;        transform: translate(-50%, -50%);left:34.5%""></img><img src=""media/stimuli/animate_005_left.png"" class=""coveredImage test"" style = ""width:100px; height:100px;position:fixed; top:25%;        transform: translate(-50%, -50%);left:41.5%""></img><img src=""media/stimuli/animate_005_right.png"" class=""coveredImage test"" style = ""width:100px; height:100px;position:fixed; top:25%;        transform: translate(-50%, -50%);left:58%""></img><img src=""media/f.png""style = ""width:30px x; height:30px;position:fixed; top:43%;    transform: translate(-50%, -50%);left:40%""></img><img src=""media/j.png""style = ""width:30px; height:30px;position:fixed; top:43%;    transform: translate(-50%, -50%);left:60%""></img>","media/stimuli/animate_005_left.png","animate","left","single","media/stimuli/animate_005_left.png","animate","left","pair","media/stimuli/animate_005_right.png","animate","right","single","number_pose"
"","","","","","html-keyboard-response","93","284448","0.0-93.0","SS1678233172743","5b16e1a5457ace0001b40d46","6406d7f26dd5b7fc1e3377bd","6407ce4fcc8ff20af4192914","1536","753","","1297","","j","","","","","","","<img src=""media/stimuli/inanimate_007_left.png"" class=""coveredImage test"" style = ""width:100px; height:100px; position:fixed; top:10%;    transform: translate(-50%, -50%);left:44.5%""></img><img src=""media/stimuli/inanimate_007_left.png"" class=""coveredImage test"" style = ""width:100px; height:100px; position:fixed; top:10%;    transform: translate(-50%, -50%);left:51.5%""></img><img src=""media/stimuli/inanimate_007_left.png"" class=""coveredImage test"" style = ""width:100px; height:100px;position:fixed; top:25%;        transform: translate(-50%, -50%);left:38%""></img><img src=""media/stimuli/inanimate_007_right.png"" class=""coveredImage test"" style = ""width:100px; height:100px;position:fixed; top:25%;        transform: translate(-50%, -50%);left:54.5%""></img><img src=""media/stimuli/inanimate_007_right.png"" class=""coveredImage test"" style = ""width:100px; height:100px;position:fixed; top:25%;        transform: translate(-50%, -50%);left:61.5%""></img><img src=""media/f.png""style = ""width:30px x; height:30px;position:fixed; top:43%;    transform: translate(-50%, -50%);left:40%""></img><img src=""media/j.png""style = ""width:30px; height:30px;position:fixed; top:43%;    transform: translate(-50%, -50%);left:60%""></img>","media/stimuli/inanimate_007_left.png","inanimate","left","pair","media/stimuli/inanimate_007_left.png","inanimate","left","single","media/stimuli/inanimate_007_right.png","inanimate","right","pair","number_pose"
"","","","","","html-keyboard-response","94","286089","0.0-94.0","SS1678233172743","5b16e1a5457ace0001b40d46","6406d7f26dd5b7fc1e3377bd","6407ce4fcc8ff20af4192914","1536","753","","1630","","j","","","","","","","<img src=""media/stimuli/animate_012_right.png"" class=""coveredImage test"" style = ""width:100px; height:100px; position:fixed; top:10%;    transform: translate(-50%, -50%);left:44.5%""></img><img src=""media/stimuli/animate_012_right.png"" class=""coveredImage test"" style = ""width:100px; height:100px; position:fixed; top:10%;    transform: translate(-50%, -50%);left:51.5%""></img><img src=""media/stimuli/inanimate_012_right.png"" class=""coveredImage test"" style = ""width:100px; height:100px;position:fixed; top:25%;        transform: translate(-50%, -50%);left:34.5%""></img><img src=""media/stimuli/inanimate_012_right.png"" class=""coveredImage test"" style = ""width:100px; height:100px;position:fixed; top:25%;        transform: translate(-50%, -50%);left:41.5%""></img><img src=""media/stimuli/animate_002_right.png"" class=""coveredImage test"" style = ""width:100px; height:100px;position:fixed; top:25%;        transform: translate(-50%, -50%);left:54.5%""></img><img src=""media/stimuli/animate_002_right.png"" class=""coveredImage test"" style = ""width:100px; height:100px;position:fixed; top:25%;        transform: translate(-50%, -50%);left:61.5%""></img><img src=""media/f.png""style = ""width:30px x; height:30px;position:fixed; top:43%;    transform: translate(-50%, -50%);left:40%""></img><img src=""media/j.png""style = ""width:30px; height:30px;position:fixed; top:43%;    transform: translate(-50%, -50%);left:60%""></img>","media/stimuli/animate_012_right.png","animate","right","pair","media/stimuli/inanimate_012_right.png","inanimate","right","pair","media/stimuli/animate_002_right.png","animate","right","pair","animacy_identity"
"","","","","","html-keyboard-response","95","291242","0.0-95.0","SS1678233172743","5b16e1a5457ace0001b40d46","6406d7f26dd5b7fc1e3377bd","6407ce4fcc8ff20af4192914","1536","753","","5148","","f","","","","","","","<img src=""media/stimuli/inanimate_001_right.png"" class=""coveredImage test"" style = ""width:100px; height:100px; position:fixed; top:10%;    transform: translate(-50%, -50%);left:48%""></img><img src=""media/stimuli/inanimate_001_right.png"" class=""coveredImage test"" style = ""width:100px; height:100px;position:fixed; top:25%;        transform: translate(-50%, -50%);left:38%""></img><img src=""media/stimuli/inanimate_001_left.png"" class=""coveredImage test"" style = ""width:100px; height:100px;position:fixed; top:25%;        transform: translate(-50%, -50%);left:58%""></img><img src=""media/f.png""style = ""width:30px x; height:30px;position:fixed; top:43%;    transform: translate(-50%, -50%);left:40%""></img><img src=""media/j.png""style = ""width:30px; height:30px;position:fixed; top:43%;    transform: translate(-50%, -50%);left:60%""></img>","media/stimuli/inanimate_001_right.png","inanimate","right","single","media/stimuli/inanimate_001_right.png","inanimate","right","single","media/stimuli/inanimate_001_left.png","inanimate","left","single","filler_pose"
"","","","","","html-keyboard-response","96","292756","0.0-96.0","SS1678233172743","5b16e1a5457ace0001b40d46","6406d7f26dd5b7fc1e3377bd","6407ce4fcc8ff20af4192914","1536","753","","1502","","j","","","","","","","<img src=""media/stimuli/inanimate_003_left.png"" class=""coveredImage test"" style = ""width:100px; height:100px; position:fixed; top:10%;    transform: translate(-50%, -50%);left:48%""></img><img src=""media/stimuli/inanimate_007_left.png"" class=""coveredImage test"" style = ""width:100px; height:100px;position:fixed; top:25%;        transform: translate(-50%, -50%);left:38%""></img><img src=""media/stimuli/inanimate_003_left.png"" class=""coveredImage test"" style = ""width:100px; height:100px;position:fixed; top:25%;        transform: translate(-50%, -50%);left:54.5%""></img><img src=""media/stimuli/inanimate_003_left.png"" class=""coveredImage test"" style = ""width:100px; height:100px;position:fixed; top:25%;        transform: translate(-50%, -50%);left:61.5%""></img><img src=""media/f.png""style = ""width:30px x; height:30px;position:fixed; top:43%;    transform: translate(-50%, -50%);left:40%""></img><img src=""media/j.png""style = ""width:30px; height:30px;position:fixed; top:43%;    transform: translate(-50%, -50%);left:60%""></img>","media/stimuli/inanimate_003_left.png","inanimate","left","single","media/stimuli/inanimate_007_left.png","inanimate","left","single","media/stimuli/inanimate_003_left.png","inanimate","left","pair","identity_number"
"","","","","","html-keyboard-response","97","294707","0.0-97.0","SS1678233172743","5b16e1a5457ace0001b40d46","6406d7f26dd5b7fc1e3377bd","6407ce4fcc8ff20af4192914","1536","753","","1943","","f","","","","","","","<img src=""media/stimuli/inanimate_008_left.png"" class=""coveredImage test"" style = ""width:100px; height:100px; position:fixed; top:10%;    transform: translate(-50%, -50%);left:44.5%""></img><img src=""media/stimuli/inanimate_008_left.png"" class=""coveredImage test"" style = ""width:100px; height:100px; position:fixed; top:10%;    transform: translate(-50%, -50%);left:51.5%""></img><img src=""media/stimuli/inanimate_008_left.png"" class=""coveredImage test"" style = ""width:100px; height:100px;position:fixed; top:25%;        transform: translate(-50%, -50%);left:38%""></img><img src=""media/stimuli/animate_005_left.png"" class=""coveredImage test"" style = ""width:100px; height:100px;position:fixed; top:25%;        transform: translate(-50%, -50%);left:54.5%""></img><img src=""media/stimuli/animate_005_left.png"" class=""coveredImage test"" style = ""width:100px; height:100px;position:fixed; top:25%;        transform: translate(-50%, -50%);left:61.5%""></img><img src=""media/f.png""style = ""width:30px x; height:30px;position:fixed; top:43%;    transform: translate(-50%, -50%);left:40%""></img><img src=""media/j.png""style = ""width:30px; height:30px;position:fixed; top:43%;    transform: translate(-50%, -50%);left:60%""></img>","media/stimuli/inanimate_008_left.png","inanimate","left","pair","media/stimuli/inanimate_008_left.png","inanimate","left","single","media/stimuli/animate_005_left.png","animate","left","pair","number_animacy"
"","","","","","html-keyboard-response","98","295692","0.0-98.0","SS1678233172743","5b16e1a5457ace0001b40d46","6406d7f26dd5b7fc1e3377bd","6407ce4fcc8ff20af4192914","1536","753","","980",""," ","","","","","","","","","","","","","","","","","","","",""
"","","","","","html-keyboard-response","99","297330","0.0-99.0","SS1678233172743","5b16e1a5457ace0001b40d46","6406d7f26dd5b7fc1e3377bd","6407ce4fcc8ff20af4192914","1536","753","","1634","","f","","","","","","","<img src=""media/stimuli/animate_012_right.png"" class=""coveredImage test"" style = ""width:100px; height:100px; position:fixed; top:10%;    transform: translate(-50%, -50%);left:48%""></img><img src=""media/stimuli/animate_012_right.png"" class=""coveredImage test"" style = ""width:100px; height:100px;position:fixed; top:25%;        transform: translate(-50%, -50%);left:34.5%""></img><img src=""media/stimuli/animate_012_right.png"" class=""coveredImage test"" style = ""width:100px; height:100px;position:fixed; top:25%;        transform: translate(-50%, -50%);left:41.5%""></img><img src=""media/stimuli/inanimate_008_right.png"" class=""coveredImage test"" style = ""width:100px; height:100px;position:fixed; top:25%;        transform: translate(-50%, -50%);left:58%""></img><img src=""media/f.png""style = ""width:30px x; height:30px;position:fixed; top:43%;    transform: translate(-50%, -50%);left:40%""></img><img src=""media/j.png""style = ""width:30px; height:30px;position:fixed; top:43%;    transform: translate(-50%, -50%);left:60%""></img>","media/stimuli/animate_012_right.png","animate","right","single","media/stimuli/animate_012_right.png","animate","right","pair","media/stimuli/inanimate_008_right.png","inanimate","right","single","number_animacy"
"","","","","","html-keyboard-response","100","298502","0.0-100.0","SS1678233172743","5b16e1a5457ace0001b40d46","6406d7f26dd5b7fc1e3377bd","6407ce4fcc8ff20af4192914","1536","753","","1155","","j","","","","","","","<img src=""media/stimuli/animate_008_left.png"" class=""coveredImage test"" style = ""width:100px; height:100px; position:fixed; top:10%;    transform: translate(-50%, -50%);left:44.5%""></img><img src=""media/stimuli/animate_008_left.png"" class=""coveredImage test"" style = ""width:100px; height:100px; position:fixed; top:10%;    transform: translate(-50%, -50%);left:51.5%""></img><img src=""media/stimuli/animate_009_left.png"" class=""coveredImage test"" style = ""width:100px; height:100px;position:fixed; top:25%;        transform: translate(-50%, -50%);left:34.5%""></img><img src=""media/stimuli/animate_009_left.png"" class=""coveredImage test"" style = ""width:100px; height:100px;position:fixed; top:25%;        transform: translate(-50%, -50%);left:41.5%""></img><img src=""media/stimuli/animate_008_right.png"" class=""coveredImage test"" style = ""width:100px; height:100px;position:fixed; top:25%;        transform: translate(-50%, -50%);left:54.5%""></img><img src=""media/stimuli/animate_008_right.png"" class=""coveredImage test"" style = ""width:100px; height:100px;position:fixed; top:25%;        transform: translate(-50%, -50%);left:61.5%""></img><img src=""media/f.png""style = ""width:30px x; height:30px;position:fixed; top:43%;    transform: translate(-50%, -50%);left:40%""></img><img src=""media/j.png""style = ""width:30px; height:30px;position:fixed; top:43%;    transform: translate(-50%, -50%);left:60%""></img>","media/stimuli/animate_008_left.png","animate","left","pair","media/stimuli/animate_009_left.png","animate","left","pair","media/stimuli/animate_008_right.png","animate","right","pair","identity_pose"
"","","","","","html-keyboard-response","101","299706","0.0-101.0","SS1678233172743","5b16e1a5457ace0001b40d46","6406d7f26dd5b7fc1e3377bd","6407ce4fcc8ff20af4192914","1536","753","","1192","","f","","","","","","","<img src=""media/stimuli/animate_011_left.png"" class=""coveredImage test"" style = ""width:100px; height:100px; position:fixed; top:10%;    transform: translate(-50%, -50%);left:48%""></img><img src=""media/stimuli/animate_011_left.png"" class=""coveredImage test"" style = ""width:100px; height:100px;position:fixed; top:25%;        transform: translate(-50%, -50%);left:34.5%""></img><img src=""media/stimuli/animate_011_left.png"" class=""coveredImage test"" style = ""width:100px; height:100px;position:fixed; top:25%;        transform: translate(-50%, -50%);left:41.5%""></img><img src=""media/stimuli/inanimate_012_right.png"" class=""coveredImage test"" style = ""width:100px; height:100px;position:fixed; top:25%;        transform: translate(-50%, -50%);left:54.5%""></img><img src=""media/stimuli/inanimate_012_right.png"" class=""coveredImage test"" style = ""width:100px; height:100px;position:fixed; top:25%;        transform: translate(-50%, -50%);left:61.5%""></img><img src=""media/f.png""style = ""width:30px x; height:30px;position:fixed; top:43%;    transform: translate(-50%, -50%);left:40%""></img><img src=""media/j.png""style = ""width:30px; height:30px;position:fixed; top:43%;    transform: translate(-50%, -50%);left:60%""></img>","media/stimuli/animate_011_left.png","animate","left","single","media/stimuli/animate_011_left.png","animate","left","pair","media/stimuli/inanimate_012_right.png","inanimate","right","pair","pose_animacy"
"","","","","","html-keyboard-response","102","300856","0.0-102.0","SS1678233172743","5b16e1a5457ace0001b40d46","6406d7f26dd5b7fc1e3377bd","6407ce4fcc8ff20af4192914","1536","753","","1145","","j","","","","","","","<img src=""media/stimuli/inanimate_012_left.png"" class=""coveredImage test"" style = ""width:100px; height:100px; position:fixed; top:10%;    transform: translate(-50%, -50%);left:48%""></img><img src=""media/stimuli/animate_011_left.png"" class=""coveredImage test"" style = ""width:100px; height:100px;position:fixed; top:25%;        transform: translate(-50%, -50%);left:38%""></img><img src=""media/stimuli/inanimate_012_left.png"" class=""coveredImage test"" style = ""width:100px; height:100px;position:fixed; top:25%;        transform: translate(-50%, -50%);left:54.5%""></img><img src=""media/stimuli/inanimate_012_left.png"" class=""coveredImage test"" style = ""width:100px; height:100px;position:fixed; top:25%;        transform: translate(-50%, -50%);left:61.5%""></img><img src=""media/f.png""style = ""width:30px x; height:30px;position:fixed; top:43%;    transform: translate(-50%, -50%);left:40%""></img><img src=""media/j.png""style = ""width:30px; height:30px;position:fixed; top:43%;    transform: translate(-50%, -50%);left:60%""></img>","media/stimuli/inanimate_012_left.png","inanimate","left","single","media/stimuli/animate_011_left.png","animate","left","single","media/stimuli/inanimate_012_left.png","inanimate","left","pair","animacy_number"
"","","","","","html-keyboard-response","103","302079","0.0-103.0","SS1678233172743","5b16e1a5457ace0001b40d46","6406d7f26dd5b7fc1e3377bd","6407ce4fcc8ff20af4192914","1536","753","","1217","","f","","","","","","","<img src=""media/stimuli/inanimate_004_right.png"" class=""coveredImage test"" style = ""width:100px; height:100px; position:fixed; top:10%;    transform: translate(-50%, -50%);left:44.5%""></img><img src=""media/stimuli/inanimate_004_right.png"" class=""coveredImage test"" style = ""width:100px; height:100px; position:fixed; top:10%;    transform: translate(-50%, -50%);left:51.5%""></img><img src=""media/stimuli/inanimate_004_right.png"" class=""coveredImage test"" style = ""width:100px; height:100px;position:fixed; top:25%;        transform: translate(-50%, -50%);left:34.5%""></img><img src=""media/stimuli/inanimate_004_right.png"" class=""coveredImage test"" style = ""width:100px; height:100px;position:fixed; top:25%;        transform: translate(-50%, -50%);left:41.5%""></img><img src=""media/stimuli/animate_009_left.png"" class=""coveredImage test"" style = ""width:100px; height:100px;position:fixed; top:25%;        transform: translate(-50%, -50%);left:54.5%""></img><img src=""media/stimuli/animate_009_left.png"" class=""coveredImage test"" style = ""width:100px; height:100px;position:fixed; top:25%;        transform: translate(-50%, -50%);left:61.5%""></img><img src=""media/f.png""style = ""width:30px x; height:30px;position:fixed; top:43%;    transform: translate(-50%, -50%);left:40%""></img><img src=""media/j.png""style = ""width:30px; height:30px;position:fixed; top:43%;    transform: translate(-50%, -50%);left:60%""></img>","media/stimuli/inanimate_004_right.png","inanimate","right","pair","media/stimuli/inanimate_004_right.png","inanimate","right","pair","media/stimuli/animate_009_left.png","animate","left","pair","pose_animacy"
"","","","","","html-keyboard-response","104","303431","0.0-104.0","SS1678233172743","5b16e1a5457ace0001b40d46","6406d7f26dd5b7fc1e3377bd","6407ce4fcc8ff20af4192914","1536","753","","1342","","f","","","","","","","<img src=""media/stimuli/inanimate_010_right.png"" class=""coveredImage test"" style = ""width:100px; height:100px; position:fixed; top:10%;    transform: translate(-50%, -50%);left:44.5%""></img><img src=""media/stimuli/inanimate_010_right.png"" class=""coveredImage test"" style = ""width:100px; height:100px; position:fixed; top:10%;    transform: translate(-50%, -50%);left:51.5%""></img><img src=""media/stimuli/inanimate_010_right.png"" class=""coveredImage test"" style = ""width:100px; height:100px;position:fixed; top:25%;        transform: translate(-50%, -50%);left:38%""></img><img src=""media/stimuli/animate_003_right.png"" class=""coveredImage test"" style = ""width:100px; height:100px;position:fixed; top:25%;        transform: translate(-50%, -50%);left:54.5%""></img><img src=""media/stimuli/animate_003_right.png"" class=""coveredImage test"" style = ""width:100px; height:100px;position:fixed; top:25%;        transform: translate(-50%, -50%);left:61.5%""></img><img src=""media/f.png""style = ""width:30px x; height:30px;position:fixed; top:43%;    transform: translate(-50%, -50%);left:40%""></img><img src=""media/j.png""style = ""width:30px; height:30px;position:fixed; top:43%;    transform: translate(-50%, -50%);left:60%""></img>","media/stimuli/inanimate_010_right.png","inanimate","right","pair","media/stimuli/inanimate_010_right.png","inanimate","right","single","media/stimuli/animate_003_right.png","animate","right","pair","number_animacy"
"","","","","","html-keyboard-response","105","304652","0.0-105.0","SS1678233172743","5b16e1a5457ace0001b40d46","6406d7f26dd5b7fc1e3377bd","6407ce4fcc8ff20af4192914","1536","753","","1205","","f","","","","","","","<img src=""media/stimuli/animate_010_left.png"" class=""coveredImage test"" style = ""width:100px; height:100px; position:fixed; top:10%;    transform: translate(-50%, -50%);left:44.5%""></img><img src=""media/stimuli/animate_010_left.png"" class=""coveredImage test"" style = ""width:100px; height:100px; position:fixed; top:10%;    transform: translate(-50%, -50%);left:51.5%""></img><img src=""media/stimuli/animate_010_left.png"" class=""coveredImage test"" style = ""width:100px; height:100px;position:fixed; top:25%;        transform: translate(-50%, -50%);left:38%""></img><img src=""media/stimuli/inanimate_011_right.png"" class=""coveredImage test"" style = ""width:100px; height:100px;position:fixed; top:25%;        transform: translate(-50%, -50%);left:58%""></img><img src=""media/f.png""style = ""width:30px x; height:30px;position:fixed; top:43%;    transform: translate(-50%, -50%);left:40%""></img><img src=""media/j.png""style = ""width:30px; height:30px;position:fixed; top:43%;    transform: translate(-50%, -50%);left:60%""></img>","media/stimuli/animate_010_left.png","animate","left","pair","media/stimuli/animate_010_left.png","animate","left","single","media/stimuli/inanimate_011_right.png","inanimate","right","single","pose_animacy"
"","","","","","html-keyboard-response","106","306294","0.0-106.0","SS1678233172743","5b16e1a5457ace0001b40d46","6406d7f26dd5b7fc1e3377bd","6407ce4fcc8ff20af4192914","1536","753","","1631","","j","","","","","","","<img src=""media/stimuli/animate_005_left.png"" class=""coveredImage test"" style = ""width:100px; height:100px; position:fixed; top:10%;    transform: translate(-50%, -50%);left:48%""></img><img src=""media/stimuli/inanimate_002_left.png"" class=""coveredImage test"" style = ""width:100px; height:100px;position:fixed; top:25%;        transform: translate(-50%, -50%);left:38%""></img><img src=""media/stimuli/animate_001_left.png"" class=""coveredImage test"" style = ""width:100px; height:100px;position:fixed; top:25%;        transform: translate(-50%, -50%);left:58%""></img><img src=""media/f.png""style = ""width:30px x; height:30px;position:fixed; top:43%;    transform: translate(-50%, -50%);left:40%""></img><img src=""media/j.png""style = ""width:30px; height:30px;position:fixed; top:43%;    transform: translate(-50%, -50%);left:60%""></img>","media/stimuli/animate_005_left.png","animate","left","single","media/stimuli/inanimate_002_left.png","inanimate","left","single","media/stimuli/animate_001_left.png","animate","left","single","animacy_identity"
"","","","","","html-keyboard-response","107","307593","0.0-107.0","SS1678233172743","5b16e1a5457ace0001b40d46","6406d7f26dd5b7fc1e3377bd","6407ce4fcc8ff20af4192914","1536","753","","1287","","f","","","","","","","<img src=""media/stimuli/inanimate_006_left.png"" class=""coveredImage test"" style = ""width:100px; height:100px; position:fixed; top:10%;    transform: translate(-50%, -50%);left:44.5%""></img><img src=""media/stimuli/inanimate_006_left.png"" class=""coveredImage test"" style = ""width:100px; height:100px; position:fixed; top:10%;    transform: translate(-50%, -50%);left:51.5%""></img><img src=""media/stimuli/animate_002_right.png"" class=""coveredImage test"" style = ""width:100px; height:100px;position:fixed; top:25%;        transform: translate(-50%, -50%);left:34.5%""></img><img src=""media/stimuli/animate_002_right.png"" class=""coveredImage test"" style = ""width:100px; height:100px;position:fixed; top:25%;        transform: translate(-50%, -50%);left:41.5%""></img><img src=""media/stimuli/inanimate_006_left.png"" class=""coveredImage test"" style = ""width:100px; height:100px;position:fixed; top:25%;        transform: translate(-50%, -50%);left:54.5%""></img><img src=""media/stimuli/inanimate_006_left.png"" class=""coveredImage test"" style = ""width:100px; height:100px;position:fixed; top:25%;        transform: translate(-50%, -50%);left:61.5%""></img><img src=""media/f.png""style = ""width:30px x; height:30px;position:fixed; top:43%;    transform: translate(-50%, -50%);left:40%""></img><img src=""media/j.png""style = ""width:30px; height:30px;position:fixed; top:43%;    transform: translate(-50%, -50%);left:60%""></img>","media/stimuli/inanimate_006_left.png","inanimate","left","pair","media/stimuli/animate_002_right.png","animate","right","pair","media/stimuli/inanimate_006_left.png","inanimate","left","pair","animacy_pose"
"","","","","","html-keyboard-response","108","312076","0.0-108.0","SS1678233172743","5b16e1a5457ace0001b40d46","6406d7f26dd5b7fc1e3377bd","6407ce4fcc8ff20af4192914","1536","753","","4476","","j","","","","","","","<img src=""media/stimuli/inanimate_004_right.png"" class=""coveredImage test"" style = ""width:100px; height:100px; position:fixed; top:10%;    transform: translate(-50%, -50%);left:48%""></img><img src=""media/stimuli/animate_005_right.png"" class=""coveredImage test"" style = ""width:100px; height:100px;position:fixed; top:25%;        transform: translate(-50%, -50%);left:38%""></img><img src=""media/stimuli/inanimate_007_right.png"" class=""coveredImage test"" style = ""width:100px; height:100px;position:fixed; top:25%;        transform: translate(-50%, -50%);left:58%""></img><img src=""media/f.png""style = ""width:30px x; height:30px;position:fixed; top:43%;    transform: translate(-50%, -50%);left:40%""></img><img src=""media/j.png""style = ""width:30px; height:30px;position:fixed; top:43%;    transform: translate(-50%, -50%);left:60%""></img>","media/stimuli/inanimate_004_right.png","inanimate","right","single","media/stimuli/animate_005_right.png","animate","right","single","media/stimuli/inanimate_007_right.png","inanimate","right","single","animacy_identity"
"","","","","","html-keyboard-response","109","313364","0.0-109.0","SS1678233172743","5b16e1a5457ace0001b40d46","6406d7f26dd5b7fc1e3377bd","6407ce4fcc8ff20af4192914","1536","753","","1276","","j","","","","","","","<img src=""media/stimuli/animate_004_right.png"" class=""coveredImage test"" style = ""width:100px; height:100px; position:fixed; top:10%;    transform: translate(-50%, -50%);left:44.5%""></img><img src=""media/stimuli/animate_004_right.png"" class=""coveredImage test"" style = ""width:100px; height:100px; position:fixed; top:10%;    transform: translate(-50%, -50%);left:51.5%""></img><img src=""media/stimuli/animate_003_right.png"" class=""coveredImage test"" style = ""width:100px; height:100px;position:fixed; top:25%;        transform: translate(-50%, -50%);left:34.5%""></img><img src=""media/stimuli/animate_003_right.png"" class=""coveredImage test"" style = ""width:100px; height:100px;position:fixed; top:25%;        transform: translate(-50%, -50%);left:41.5%""></img><img src=""media/stimuli/animate_004_right.png"" class=""coveredImage test"" style = ""width:100px; height:100px;position:fixed; top:25%;        transform: translate(-50%, -50%);left:58%""></img><img src=""media/f.png""style = ""width:30px x; height:30px;position:fixed; top:43%;    transform: translate(-50%, -50%);left:40%""></img><img src=""media/j.png""style = ""width:30px; height:30px;position:fixed; top:43%;    transform: translate(-50%, -50%);left:60%""></img>","media/stimuli/animate_004_right.png","animate","right","pair","media/stimuli/animate_003_right.png","animate","right","pair","media/stimuli/animate_004_right.png","animate","right","single","identity_number"
"","","","","","html-keyboard-response","110","315190","0.0-110.0","SS1678233172743","5b16e1a5457ace0001b40d46","6406d7f26dd5b7fc1e3377bd","6407ce4fcc8ff20af4192914","1536","753","","1814","","f","","","","","","","<img src=""media/stimuli/inanimate_004_left.png"" class=""coveredImage test"" style = ""width:100px; height:100px; position:fixed; top:10%;    transform: translate(-50%, -50%);left:44.5%""></img><img src=""media/stimuli/inanimate_004_left.png"" class=""coveredImage test"" style = ""width:100px; height:100px; position:fixed; top:10%;    transform: translate(-50%, -50%);left:51.5%""></img><img src=""media/stimuli/inanimate_004_right.png"" class=""coveredImage test"" style = ""width:100px; height:100px;position:fixed; top:25%;        transform: translate(-50%, -50%);left:34.5%""></img><img src=""media/stimuli/inanimate_004_right.png"" class=""coveredImage test"" style = ""width:100px; height:100px;position:fixed; top:25%;        transform: translate(-50%, -50%);left:41.5%""></img><img src=""media/stimuli/inanimate_003_left.png"" class=""coveredImage test"" style = ""width:100px; height:100px;position:fixed; top:25%;        transform: translate(-50%, -50%);left:54.5%""></img><img src=""media/stimuli/inanimate_003_left.png"" class=""coveredImage test"" style = ""width:100px; height:100px;position:fixed; top:25%;        transform: translate(-50%, -50%);left:61.5%""></img><img src=""media/f.png""style = ""width:30px x; height:30px;position:fixed; top:43%;    transform: translate(-50%, -50%);left:40%""></img><img src=""media/j.png""style = ""width:30px; height:30px;position:fixed; top:43%;    transform: translate(-50%, -50%);left:60%""></img>","media/stimuli/inanimate_004_left.png","inanimate","left","pair","media/stimuli/inanimate_004_right.png","inanimate","right","pair","media/stimuli/inanimate_003_left.png","inanimate","left","pair","pose_identity"
"","","","","","html-keyboard-response","111","316116","0.0-111.0","SS1678233172743","5b16e1a5457ace0001b40d46","6406d7f26dd5b7fc1e3377bd","6407ce4fcc8ff20af4192914","1536","753","","919",""," ","","","","","","","","","","","","","","","","","","","",""
"","","","","","survey-likert","112","319714","0.0-112.0","SS1678233172743","5b16e1a5457ace0001b40d46","6406d7f26dd5b7fc1e3377bd","6407ce4fcc8ff20af4192914","1536","753","","3586","","{""Q0"":1}","[0]","complexity","media/stimuli/inanimate_001_right.png","inanimate","single","right","","","","","","","","","","","","","",""
"","","","","","survey-likert","113","324952","0.0-113.0","SS1678233172743","5b16e1a5457ace0001b40d46","6406d7f26dd5b7fc1e3377bd","6407ce4fcc8ff20af4192914","1536","753","","5229","","{""Q0"":5}","[0]","complexity","media/stimuli/animate_004_left.png","animate","pair","left","","","","","","","","","","","","","",""
"","","","","","survey-likert","114","327375","0.0-114.0","SS1678233172743","5b16e1a5457ace0001b40d46","6406d7f26dd5b7fc1e3377bd","6407ce4fcc8ff20af4192914","1536","753","","2414","","{""Q0"":2}","[0]","complexity","media/stimuli/inanimate_010_right.png","inanimate","single","right","","","","","","","","","","","","","",""
"","","","","","survey-likert","115","329706","0.0-115.0","SS1678233172743","5b16e1a5457ace0001b40d46","6406d7f26dd5b7fc1e3377bd","6407ce4fcc8ff20af4192914","1536","753","","2322","","{""Q0"":1}","[0]","complexity","media/stimuli/inanimate_004_left.png","inanimate","single","left","","","","","","","","","","","","","",""
"","","","","","survey-likert","116","331684","0.0-116.0","SS1678233172743","5b16e1a5457ace0001b40d46","6406d7f26dd5b7fc1e3377bd","6407ce4fcc8ff20af4192914","1536","753","","1970","","{""Q0"":4}","[0]","complexity","media/stimuli/animate_006_left.png","animate","single","left","","","","","","","","","","","","","",""
"","","","","","survey-likert","117","334277","0.0-117.0","SS1678233172743","5b16e1a5457ace0001b40d46","6406d7f26dd5b7fc1e3377bd","6407ce4fcc8ff20af4192914","1536","753","","2584","","{""Q0"":4}","[0]","complexity","media/stimuli/inanimate_003_right.png","inanimate","pair","right","","","","","","","","","","","","","",""
"","","","","","survey-likert","118","336264","0.0-118.0","SS1678233172743","5b16e1a5457ace0001b40d46","6406d7f26dd5b7fc1e3377bd","6407ce4fcc8ff20af4192914","1536","753","","1976","","{""Q0"":4}","[0]","complexity","media/stimuli/animate_004_right.png","animate","single","right","","","","","","","","","","","","","",""
"","","","","","survey-likert","119","338884","0.0-119.0","SS1678233172743","5b16e1a5457ace0001b40d46","6406d7f26dd5b7fc1e3377bd","6407ce4fcc8ff20af4192914","1536","753","","2609","","{""Q0"":4}","[0]","complexity","media/stimuli/animate_001_right.png","animate","single","right","","","","","","","","","","","","","",""
"","","","","","survey-likert","120","340846","0.0-120.0","SS1678233172743","5b16e1a5457ace0001b40d46","6406d7f26dd5b7fc1e3377bd","6407ce4fcc8ff20af4192914","1536","753","","1953","","{""Q0"":4}","[0]","complexity","media/stimuli/animate_004_left.png","animate","single","left","","","","","","","","","","","","","",""
