"success","timeout","failed_images","failed_audio","failed_video","trial_type","trial_index","time_elapsed","internal_node_id","subject","prolific_id","study","session","window_width","window_height","view_history","rt","stimulus_type","response","question_order","rating_type","stimulus","target","target_animacy","target_pose","target_number","left","left_animacy","left_pose","left_number","right","right_animacy","right_pose","right_number","comparison_type","rating_stimulus","rating_animacy","rating_number","rating_pose"
"true","false","[]","[]","[]","preload","0","2606","0.0-0.0","SS1678233163868","5e28e8730fd86a0a19e084cd","6406d7f26dd5b7fc1e3377bd","6407ce477202a50c26f19b50","1280","891","","","","","","","","","","","","","","","","","","","","","","","",""
"","","","","","instructions","1","5771","0.0-1.0","SS1678233163868","5e28e8730fd86a0a19e084cd","6406d7f26dd5b7fc1e3377bd","6407ce477202a50c26f19b50","1280","891","[{""page_index"":0,""viewing_time"":3165}]","3165","","","","","","","","","","","","","","","","","","","","","",""
"","","","","","instructions","2","10419","0.0-2.0","SS1678233163868","5e28e8730fd86a0a19e084cd","6406d7f26dd5b7fc1e3377bd","6407ce477202a50c26f19b50","1280","891","[{""page_index"":0,""viewing_time"":2640}]","2641","instructions","","","","","","","","","","","","","","","","","","","","",""
"","","","","","instructions","3","12691","0.0-3.0","SS1678233163868","5e28e8730fd86a0a19e084cd","6406d7f26dd5b7fc1e3377bd","6407ce477202a50c26f19b50","1280","891","[{""page_index"":0,""viewing_time"":2270}]","2270","instructions","","","","","","","","","","","","","","","","","","","","",""
"","","","","","survey-likert","4","20756","0.0-4.0","SS1678233163868","5e28e8730fd86a0a19e084cd","6406d7f26dd5b7fc1e3377bd","6407ce477202a50c26f19b50","1280","891","","8062","","{""Q0"":2}","[0]","anchoring","","","","","","","","","","","","","","","","","",""
"","","","","","survey-likert","5","26555","0.0-5.0","SS1678233163868","5e28e8730fd86a0a19e084cd","6406d7f26dd5b7fc1e3377bd","6407ce477202a50c26f19b50","1280","891","","5797","","{""Q0"":0}","[0]","anchoring","","","","","","","","","","","","","","","","","",""
"","","","","","instructions","6","28042","0.0-6.0","SS1678233163868","5e28e8730fd86a0a19e084cd","6406d7f26dd5b7fc1e3377bd","6407ce477202a50c26f19b50","1280","891","[{""page_index"":0,""viewing_time"":1486}]","1486","instructions","","","","","","","","","","","","","","","","","","","","",""
"true","","","","","fullscreen","7","30441","0.0-7.0","SS1678233163868","5e28e8730fd86a0a19e084cd","6406d7f26dd5b7fc1e3377bd","6407ce477202a50c26f19b50","1280","891","","","","","","","","","","","","","","","","","","","","","","","",""
"","","","","","html-keyboard-response","8","36501","0.0-8.0","SS1678233163868","5e28e8730fd86a0a19e084cd","6406d7f26dd5b7fc1e3377bd","6407ce477202a50c26f19b50","1280","891","","6052","","f","","","<img src=""media/stimuli/animate_008_left.png"" class=""coveredImage test"" style = ""width:100px; height:100px; position:fixed; top:10%;    transform: translate(-50%, -50%);left:48%""></img><img src=""media/stimuli/animate_008_left.png"" class=""coveredImage test"" style = ""width:100px; height:100px;position:fixed; top:25%;        transform: translate(-50%, -50%);left:38%""></img><img src=""media/stimuli/animate_012_left.png"" class=""coveredImage test"" style = ""width:100px; height:100px;position:fixed; top:25%;        transform: translate(-50%, -50%);left:58%""></img><img src=""media/f.png""style = ""width:30px x; height:30px;position:fixed; top:43%;    transform: translate(-50%, -50%);left:40%""></img><img src=""media/j.png""style = ""width:30px; height:30px;position:fixed; top:43%;    transform: translate(-50%, -50%);left:60%""></img>","media/stimuli/animate_008_left.png","animate","left","single","media/stimuli/animate_008_left.png","animate","left","single","media/stimuli/animate_012_left.png","animate","left","single","filler_identity","","","",""
"","","","","","html-keyboard-response","9","38355","0.0-9.0","SS1678233163868","5e28e8730fd86a0a19e084cd","6406d7f26dd5b7fc1e3377bd","6407ce477202a50c26f19b50","1280","891","","1848","","j","","","<img src=""media/stimuli/animate_008_right.png"" class=""coveredImage test"" style = ""width:100px; height:100px; position:fixed; top:10%;    transform: translate(-50%, -50%);left:48%""></img><img src=""media/stimuli/inanimate_010_right.png"" class=""coveredImage test"" style = ""width:100px; height:100px;position:fixed; top:25%;        transform: translate(-50%, -50%);left:38%""></img><img src=""media/stimuli/animate_008_right.png"" class=""coveredImage test"" style = ""width:100px; height:100px;position:fixed; top:25%;        transform: translate(-50%, -50%);left:54.5%""></img><img src=""media/stimuli/animate_008_right.png"" class=""coveredImage test"" style = ""width:100px; height:100px;position:fixed; top:25%;        transform: translate(-50%, -50%);left:61.5%""></img><img src=""media/f.png""style = ""width:30px x; height:30px;position:fixed; top:43%;    transform: translate(-50%, -50%);left:40%""></img><img src=""media/j.png""style = ""width:30px; height:30px;position:fixed; top:43%;    transform: translate(-50%, -50%);left:60%""></img>","media/stimuli/animate_008_right.png","animate","right","single","media/stimuli/inanimate_010_right.png","inanimate","right","single","media/stimuli/animate_008_right.png","animate","right","pair","animacy_number","","","",""
"","","","","","html-keyboard-response","10","40477","0.0-10.0","SS1678233163868","5e28e8730fd86a0a19e084cd","6406d7f26dd5b7fc1e3377bd","6407ce477202a50c26f19b50","1280","891","","2114","","j","","","<img src=""media/stimuli/inanimate_008_right.png"" class=""coveredImage test"" style = ""width:100px; height:100px; position:fixed; top:10%;    transform: translate(-50%, -50%);left:48%""></img><img src=""media/stimuli/inanimate_003_right.png"" class=""coveredImage test"" style = ""width:100px; height:100px;position:fixed; top:25%;        transform: translate(-50%, -50%);left:38%""></img><img src=""media/stimuli/inanimate_008_left.png"" class=""coveredImage test"" style = ""width:100px; height:100px;position:fixed; top:25%;        transform: translate(-50%, -50%);left:58%""></img><img src=""media/f.png""style = ""width:30px x; height:30px;position:fixed; top:43%;    transform: translate(-50%, -50%);left:40%""></img><img src=""media/j.png""style = ""width:30px; height:30px;position:fixed; top:43%;    transform: translate(-50%, -50%);left:60%""></img>","media/stimuli/inanimate_008_right.png","inanimate","right","single","media/stimuli/inanimate_003_right.png","inanimate","right","single","media/stimuli/inanimate_008_left.png","inanimate","left","single","identity_pose","","","",""
"","","","","","html-keyboard-response","11","41812","0.0-11.0","SS1678233163868","5e28e8730fd86a0a19e084cd","6406d7f26dd5b7fc1e3377bd","6407ce477202a50c26f19b50","1280","891","","1329","","f","","","<img src=""media/stimuli/inanimate_001_right.png"" class=""coveredImage test"" style = ""width:100px; height:100px; position:fixed; top:10%;    transform: translate(-50%, -50%);left:48%""></img><img src=""media/stimuli/inanimate_001_left.png"" class=""coveredImage test"" style = ""width:100px; height:100px;position:fixed; top:25%;        transform: translate(-50%, -50%);left:38%""></img><img src=""media/stimuli/inanimate_008_right.png"" class=""coveredImage test"" style = ""width:100px; height:100px;position:fixed; top:25%;        transform: translate(-50%, -50%);left:58%""></img><img src=""media/f.png""style = ""width:30px x; height:30px;position:fixed; top:43%;    transform: translate(-50%, -50%);left:40%""></img><img src=""media/j.png""style = ""width:30px; height:30px;position:fixed; top:43%;    transform: translate(-50%, -50%);left:60%""></img>","media/stimuli/inanimate_001_right.png","inanimate","right","single","media/stimuli/inanimate_001_left.png","inanimate","left","single","media/stimuli/inanimate_008_right.png","inanimate","right","single","pose_identity","","","",""
"","","","","","html-keyboard-response","12","43803","0.0-12.0","SS1678233163868","5e28e8730fd86a0a19e084cd","6406d7f26dd5b7fc1e3377bd","6407ce477202a50c26f19b50","1280","891","","1988","","j","","","<img src=""media/stimuli/animate_008_left.png"" class=""coveredImage test"" style = ""width:100px; height:100px; position:fixed; top:10%;    transform: translate(-50%, -50%);left:44.5%""></img><img src=""media/stimuli/animate_008_left.png"" class=""coveredImage test"" style = ""width:100px; height:100px; position:fixed; top:10%;    transform: translate(-50%, -50%);left:51.5%""></img><img src=""media/stimuli/animate_008_left.png"" class=""coveredImage test"" style = ""width:100px; height:100px;position:fixed; top:25%;        transform: translate(-50%, -50%);left:38%""></img><img src=""media/stimuli/animate_008_right.png"" class=""coveredImage test"" style = ""width:100px; height:100px;position:fixed; top:25%;        transform: translate(-50%, -50%);left:54.5%""></img><img src=""media/stimuli/animate_008_right.png"" class=""coveredImage test"" style = ""width:100px; height:100px;position:fixed; top:25%;        transform: translate(-50%, -50%);left:61.5%""></img><img src=""media/f.png""style = ""width:30px x; height:30px;position:fixed; top:43%;    transform: translate(-50%, -50%);left:40%""></img><img src=""media/j.png""style = ""width:30px; height:30px;position:fixed; top:43%;    transform: translate(-50%, -50%);left:60%""></img>","media/stimuli/animate_008_left.png","animate","left","pair","media/stimuli/animate_008_left.png","animate","left","single","media/stimuli/animate_008_right.png","animate","right","pair","number_pose","","","",""
"","","","","","html-keyboard-response","13","45692","0.0-13.0","SS1678233163868","5e28e8730fd86a0a19e084cd","6406d7f26dd5b7fc1e3377bd","6407ce477202a50c26f19b50","1280","891","","1883","","f","","","<img src=""media/stimuli/animate_011_right.png"" class=""coveredImage test"" style = ""width:100px; height:100px; position:fixed; top:10%;    transform: translate(-50%, -50%);left:48%""></img><img src=""media/stimuli/animate_011_right.png"" class=""coveredImage test"" style = ""width:100px; height:100px;position:fixed; top:25%;        transform: translate(-50%, -50%);left:38%""></img><img src=""media/stimuli/animate_011_left.png"" class=""coveredImage test"" style = ""width:100px; height:100px;position:fixed; top:25%;        transform: translate(-50%, -50%);left:58%""></img><img src=""media/f.png""style = ""width:30px x; height:30px;position:fixed; top:43%;    transform: translate(-50%, -50%);left:40%""></img><img src=""media/j.png""style = ""width:30px; height:30px;position:fixed; top:43%;    transform: translate(-50%, -50%);left:60%""></img>","media/stimuli/animate_011_right.png","animate","right","single","media/stimuli/animate_011_right.png","animate","right","single","media/stimuli/animate_011_left.png","animate","left","single","filler_pose","","","",""
"","","","","","html-keyboard-response","14","48691","0.0-14.0","SS1678233163868","5e28e8730fd86a0a19e084cd","6406d7f26dd5b7fc1e3377bd","6407ce477202a50c26f19b50","1280","891","","2997","","j","","","<img src=""media/stimuli/inanimate_009_left.png"" class=""coveredImage test"" style = ""width:100px; height:100px; position:fixed; top:10%;    transform: translate(-50%, -50%);left:44.5%""></img><img src=""media/stimuli/inanimate_009_left.png"" class=""coveredImage test"" style = ""width:100px; height:100px; position:fixed; top:10%;    transform: translate(-50%, -50%);left:51.5%""></img><img src=""media/stimuli/inanimate_009_left.png"" class=""coveredImage test"" style = ""width:100px; height:100px;position:fixed; top:25%;        transform: translate(-50%, -50%);left:38%""></img><img src=""media/stimuli/inanimate_009_right.png"" class=""coveredImage test"" style = ""width:100px; height:100px;position:fixed; top:25%;        transform: translate(-50%, -50%);left:54.5%""></img><img src=""media/stimuli/inanimate_009_right.png"" class=""coveredImage test"" style = ""width:100px; height:100px;position:fixed; top:25%;        transform: translate(-50%, -50%);left:61.5%""></img><img src=""media/f.png""style = ""width:30px x; height:30px;position:fixed; top:43%;    transform: translate(-50%, -50%);left:40%""></img><img src=""media/j.png""style = ""width:30px; height:30px;position:fixed; top:43%;    transform: translate(-50%, -50%);left:60%""></img>","media/stimuli/inanimate_009_left.png","inanimate","left","pair","media/stimuli/inanimate_009_left.png","inanimate","left","single","media/stimuli/inanimate_009_right.png","inanimate","right","pair","number_pose","","","",""
"","","","","","html-keyboard-response","15","50172","0.0-15.0","SS1678233163868","5e28e8730fd86a0a19e084cd","6406d7f26dd5b7fc1e3377bd","6407ce477202a50c26f19b50","1280","891","","1478","","j","","","<img src=""media/stimuli/inanimate_010_left.png"" class=""coveredImage test"" style = ""width:100px; height:100px; position:fixed; top:10%;    transform: translate(-50%, -50%);left:44.5%""></img><img src=""media/stimuli/inanimate_010_left.png"" class=""coveredImage test"" style = ""width:100px; height:100px; position:fixed; top:10%;    transform: translate(-50%, -50%);left:51.5%""></img><img src=""media/stimuli/animate_010_right.png"" class=""coveredImage test"" style = ""width:100px; height:100px;position:fixed; top:25%;        transform: translate(-50%, -50%);left:38%""></img><img src=""media/stimuli/inanimate_010_left.png"" class=""coveredImage test"" style = ""width:100px; height:100px;position:fixed; top:25%;        transform: translate(-50%, -50%);left:58%""></img><img src=""media/f.png""style = ""width:30px x; height:30px;position:fixed; top:43%;    transform: translate(-50%, -50%);left:40%""></img><img src=""media/j.png""style = ""width:30px; height:30px;position:fixed; top:43%;    transform: translate(-50%, -50%);left:60%""></img>","media/stimuli/inanimate_010_left.png","inanimate","left","pair","media/stimuli/animate_010_right.png","animate","right","single","media/stimuli/inanimate_010_left.png","inanimate","left","single","animacy_pose","","","",""
"","","","","","html-keyboard-response","16","52811","0.0-16.0","SS1678233163868","5e28e8730fd86a0a19e084cd","6406d7f26dd5b7fc1e3377bd","6407ce477202a50c26f19b50","1280","891","","2634","","f","","","<img src=""media/stimuli/inanimate_005_right.png"" class=""coveredImage test"" style = ""width:100px; height:100px; position:fixed; top:10%;    transform: translate(-50%, -50%);left:48%""></img><img src=""media/stimuli/inanimate_005_right.png"" class=""coveredImage test"" style = ""width:100px; height:100px;position:fixed; top:25%;        transform: translate(-50%, -50%);left:34.5%""></img><img src=""media/stimuli/inanimate_005_right.png"" class=""coveredImage test"" style = ""width:100px; height:100px;position:fixed; top:25%;        transform: translate(-50%, -50%);left:41.5%""></img><img src=""media/stimuli/inanimate_005_left.png"" class=""coveredImage test"" style = ""width:100px; height:100px;position:fixed; top:25%;        transform: translate(-50%, -50%);left:58%""></img><img src=""media/f.png""style = ""width:30px x; height:30px;position:fixed; top:43%;    transform: translate(-50%, -50%);left:40%""></img><img src=""media/j.png""style = ""width:30px; height:30px;position:fixed; top:43%;    transform: translate(-50%, -50%);left:60%""></img>","media/stimuli/inanimate_005_right.png","inanimate","right","single","media/stimuli/inanimate_005_right.png","inanimate","right","pair","media/stimuli/inanimate_005_left.png","inanimate","left","single","number_pose","","","",""
"","","","","","html-keyboard-response","17","57340","0.0-17.0","SS1678233163868","5e28e8730fd86a0a19e084cd","6406d7f26dd5b7fc1e3377bd","6407ce477202a50c26f19b50","1280","891","","4526","","f","","","<img src=""media/stimuli/animate_006_right.png"" class=""coveredImage test"" style = ""width:100px; height:100px; position:fixed; top:10%;    transform: translate(-50%, -50%);left:48%""></img><img src=""media/stimuli/animate_006_left.png"" class=""coveredImage test"" style = ""width:100px; height:100px;position:fixed; top:25%;        transform: translate(-50%, -50%);left:38%""></img><img src=""media/stimuli/animate_006_right.png"" class=""coveredImage test"" style = ""width:100px; height:100px;position:fixed; top:25%;        transform: translate(-50%, -50%);left:54.5%""></img><img src=""media/stimuli/animate_006_right.png"" class=""coveredImage test"" style = ""width:100px; height:100px;position:fixed; top:25%;        transform: translate(-50%, -50%);left:61.5%""></img><img src=""media/f.png""style = ""width:30px x; height:30px;position:fixed; top:43%;    transform: translate(-50%, -50%);left:40%""></img><img src=""media/j.png""style = ""width:30px; height:30px;position:fixed; top:43%;    transform: translate(-50%, -50%);left:60%""></img>","media/stimuli/animate_006_right.png","animate","right","single","media/stimuli/animate_006_left.png","animate","left","single","media/stimuli/animate_006_right.png","animate","right","pair","pose_number","","","",""
"","","","","","html-keyboard-response","18","58869","0.0-18.0","SS1678233163868","5e28e8730fd86a0a19e084cd","6406d7f26dd5b7fc1e3377bd","6407ce477202a50c26f19b50","1280","891","","1524","","f","","","<img src=""media/stimuli/animate_003_right.png"" class=""coveredImage test"" style = ""width:100px; height:100px; position:fixed; top:10%;    transform: translate(-50%, -50%);left:44.5%""></img><img src=""media/stimuli/animate_003_right.png"" class=""coveredImage test"" style = ""width:100px; height:100px; position:fixed; top:10%;    transform: translate(-50%, -50%);left:51.5%""></img><img src=""media/stimuli/animate_003_left.png"" class=""coveredImage test"" style = ""width:100px; height:100px;position:fixed; top:25%;        transform: translate(-50%, -50%);left:34.5%""></img><img src=""media/stimuli/animate_003_left.png"" class=""coveredImage test"" style = ""width:100px; height:100px;position:fixed; top:25%;        transform: translate(-50%, -50%);left:41.5%""></img><img src=""media/stimuli/animate_003_right.png"" class=""coveredImage test"" style = ""width:100px; height:100px;position:fixed; top:25%;        transform: translate(-50%, -50%);left:58%""></img><img src=""media/f.png""style = ""width:30px x; height:30px;position:fixed; top:43%;    transform: translate(-50%, -50%);left:40%""></img><img src=""media/j.png""style = ""width:30px; height:30px;position:fixed; top:43%;    transform: translate(-50%, -50%);left:60%""></img>","media/stimuli/animate_003_right.png","animate","right","pair","media/stimuli/animate_003_left.png","animate","left","pair","media/stimuli/animate_003_right.png","animate","right","single","pose_number","","","",""
"","","","","","html-keyboard-response","19","60684","0.0-19.0","SS1678233163868","5e28e8730fd86a0a19e084cd","6406d7f26dd5b7fc1e3377bd","6407ce477202a50c26f19b50","1280","891","","1812","","f","","","<img src=""media/stimuli/animate_004_right.png"" class=""coveredImage test"" style = ""width:100px; height:100px; position:fixed; top:10%;    transform: translate(-50%, -50%);left:44.5%""></img><img src=""media/stimuli/animate_004_right.png"" class=""coveredImage test"" style = ""width:100px; height:100px; position:fixed; top:10%;    transform: translate(-50%, -50%);left:51.5%""></img><img src=""media/stimuli/animate_004_right.png"" class=""coveredImage test"" style = ""width:100px; height:100px;position:fixed; top:25%;        transform: translate(-50%, -50%);left:38%""></img><img src=""media/stimuli/inanimate_004_right.png"" class=""coveredImage test"" style = ""width:100px; height:100px;position:fixed; top:25%;        transform: translate(-50%, -50%);left:54.5%""></img><img src=""media/stimuli/inanimate_004_right.png"" class=""coveredImage test"" style = ""width:100px; height:100px;position:fixed; top:25%;        transform: translate(-50%, -50%);left:61.5%""></img><img src=""media/f.png""style = ""width:30px x; height:30px;position:fixed; top:43%;    transform: translate(-50%, -50%);left:40%""></img><img src=""media/j.png""style = ""width:30px; height:30px;position:fixed; top:43%;    transform: translate(-50%, -50%);left:60%""></img>","media/stimuli/animate_004_right.png","animate","right","pair","media/stimuli/animate_004_right.png","animate","right","single","media/stimuli/inanimate_004_right.png","inanimate","right","pair","number_animacy","","","",""
"","","","","","html-keyboard-response","20","62659","0.0-20.0","SS1678233163868","5e28e8730fd86a0a19e084cd","6406d7f26dd5b7fc1e3377bd","6407ce477202a50c26f19b50","1280","891","","1972",""," ","","","","","","","","","","","","","","","","","","","",""
"","","","","","survey-likert","21","67812","0.0-21.0","SS1678233163868","5e28e8730fd86a0a19e084cd","6406d7f26dd5b7fc1e3377bd","6407ce477202a50c26f19b50","1280","891","","5149","","{""Q0"":0}","[0]","complexity","","","","","","","","","","","","","","","media/stimuli/inanimate_004_right.png","inanimate","pair","right"
"","","","","","survey-likert","22","71043","0.0-22.0","SS1678233163868","5e28e8730fd86a0a19e084cd","6406d7f26dd5b7fc1e3377bd","6407ce477202a50c26f19b50","1280","891","","3228","","{""Q0"":1}","[0]","complexity","","","","","","","","","","","","","","","media/stimuli/animate_007_left.png","animate","single","left"
"","","","","","survey-likert","23","74340","0.0-23.0","SS1678233163868","5e28e8730fd86a0a19e084cd","6406d7f26dd5b7fc1e3377bd","6407ce477202a50c26f19b50","1280","891","","3294","","{""Q0"":1}","[0]","complexity","","","","","","","","","","","","","","","media/stimuli/inanimate_011_right.png","inanimate","single","right"
"","","","","","survey-likert","24","76436","0.0-24.0","SS1678233163868","5e28e8730fd86a0a19e084cd","6406d7f26dd5b7fc1e3377bd","6407ce477202a50c26f19b50","1280","891","","2091","","{""Q0"":1}","[0]","complexity","","","","","","","","","","","","","","","media/stimuli/inanimate_011_left.png","inanimate","pair","left"
"","","","","","survey-likert","25","78580","0.0-25.0","SS1678233163868","5e28e8730fd86a0a19e084cd","6406d7f26dd5b7fc1e3377bd","6407ce477202a50c26f19b50","1280","891","","2138","","{""Q0"":1}","[0]","complexity","","","","","","","","","","","","","","","media/stimuli/animate_006_left.png","animate","pair","left"
"","","","","","survey-likert","26","81667","0.0-26.0","SS1678233163868","5e28e8730fd86a0a19e084cd","6406d7f26dd5b7fc1e3377bd","6407ce477202a50c26f19b50","1280","891","","3083","","{""Q0"":1}","[0]","complexity","","","","","","","","","","","","","","","media/stimuli/inanimate_006_left.png","inanimate","pair","left"
"","","","","","survey-likert","27","83819","0.0-27.0","SS1678233163868","5e28e8730fd86a0a19e084cd","6406d7f26dd5b7fc1e3377bd","6407ce477202a50c26f19b50","1280","891","","2149","","{""Q0"":1}","[0]","complexity","","","","","","","","","","","","","","","media/stimuli/animate_007_left.png","animate","pair","left"
"","","","","","survey-likert","28","85954","0.0-28.0","SS1678233163868","5e28e8730fd86a0a19e084cd","6406d7f26dd5b7fc1e3377bd","6407ce477202a50c26f19b50","1280","891","","2133","","{""Q0"":1}","[0]","complexity","","","","","","","","","","","","","","","media/stimuli/inanimate_004_left.png","inanimate","pair","left"
"","","","","","survey-likert","29","87571","0.0-29.0","SS1678233163868","5e28e8730fd86a0a19e084cd","6406d7f26dd5b7fc1e3377bd","6407ce477202a50c26f19b50","1280","891","","1614","","{""Q0"":1}","[0]","complexity","","","","","","","","","","","","","","","media/stimuli/inanimate_008_right.png","inanimate","pair","right"
"","","","","","survey-likert","30","89298","0.0-30.0","SS1678233163868","5e28e8730fd86a0a19e084cd","6406d7f26dd5b7fc1e3377bd","6407ce477202a50c26f19b50","1280","891","","1725","","{""Q0"":1}","[0]","complexity","","","","","","","","","","","","","","","media/stimuli/inanimate_001_right.png","inanimate","single","right"
"","","","","","survey-likert","31","91146","0.0-31.0","SS1678233163868","5e28e8730fd86a0a19e084cd","6406d7f26dd5b7fc1e3377bd","6407ce477202a50c26f19b50","1280","891","","1845","","{""Q0"":1}","[0]","complexity","","","","","","","","","","","","","","","media/stimuli/animate_008_right.png","animate","pair","right"
"","","","","","survey-likert","32","92963","0.0-32.0","SS1678233163868","5e28e8730fd86a0a19e084cd","6406d7f26dd5b7fc1e3377bd","6407ce477202a50c26f19b50","1280","891","","1814","","{""Q0"":1}","[0]","complexity","","","","","","","","","","","","","","","media/stimuli/animate_008_left.png","animate","single","left"
"","","","","","html-keyboard-response","33","94962","0.0-33.0","SS1678233163868","5e28e8730fd86a0a19e084cd","6406d7f26dd5b7fc1e3377bd","6407ce477202a50c26f19b50","1280","891","","1997",""," ","","","","","","","","","","","","","","","","","","","",""
"","","","","","html-keyboard-response","34","96820","0.0-34.0","SS1678233163868","5e28e8730fd86a0a19e084cd","6406d7f26dd5b7fc1e3377bd","6407ce477202a50c26f19b50","1280","891","","1856","","j","","","<img src=""media/stimuli/animate_005_right.png"" class=""coveredImage test"" style = ""width:100px; height:100px; position:fixed; top:10%;    transform: translate(-50%, -50%);left:48%""></img><img src=""media/stimuli/animate_004_right.png"" class=""coveredImage test"" style = ""width:100px; height:100px;position:fixed; top:25%;        transform: translate(-50%, -50%);left:38%""></img><img src=""media/stimuli/animate_005_right.png"" class=""coveredImage test"" style = ""width:100px; height:100px;position:fixed; top:25%;        transform: translate(-50%, -50%);left:54.5%""></img><img src=""media/stimuli/animate_005_right.png"" class=""coveredImage test"" style = ""width:100px; height:100px;position:fixed; top:25%;        transform: translate(-50%, -50%);left:61.5%""></img><img src=""media/f.png""style = ""width:30px x; height:30px;position:fixed; top:43%;    transform: translate(-50%, -50%);left:40%""></img><img src=""media/j.png""style = ""width:30px; height:30px;position:fixed; top:43%;    transform: translate(-50%, -50%);left:60%""></img>","media/stimuli/animate_005_right.png","animate","right","single","media/stimuli/animate_004_right.png","animate","right","single","media/stimuli/animate_005_right.png","animate","right","pair","identity_number","","","",""
"","","","","","html-keyboard-response","35","97541","0.0-35.0","SS1678233163868","5e28e8730fd86a0a19e084cd","6406d7f26dd5b7fc1e3377bd","6407ce477202a50c26f19b50","1280","891","","714","","f","","","<img src=""media/stimuli/animate_007_left.png"" class=""coveredImage test"" style = ""width:100px; height:100px; position:fixed; top:10%;    transform: translate(-50%, -50%);left:44.5%""></img><img src=""media/stimuli/animate_007_left.png"" class=""coveredImage test"" style = ""width:100px; height:100px; position:fixed; top:10%;    transform: translate(-50%, -50%);left:51.5%""></img><img src=""media/stimuli/animate_007_right.png"" class=""coveredImage test"" style = ""width:100px; height:100px;position:fixed; top:25%;        transform: translate(-50%, -50%);left:34.5%""></img><img src=""media/stimuli/animate_007_right.png"" class=""coveredImage test"" style = ""width:100px; height:100px;position:fixed; top:25%;        transform: translate(-50%, -50%);left:41.5%""></img><img src=""media/stimuli/animate_007_left.png"" class=""coveredImage test"" style = ""width:100px; height:100px;position:fixed; top:25%;        transform: translate(-50%, -50%);left:58%""></img><img src=""media/f.png""style = ""width:30px x; height:30px;position:fixed; top:43%;    transform: translate(-50%, -50%);left:40%""></img><img src=""media/j.png""style = ""width:30px; height:30px;position:fixed; top:43%;    transform: translate(-50%, -50%);left:60%""></img>","media/stimuli/animate_007_left.png","animate","left","pair","media/stimuli/animate_007_right.png","animate","right","pair","media/stimuli/animate_007_left.png","animate","left","single","pose_number","","","",""
"","","","","","html-keyboard-response","36","98459","0.0-36.0","SS1678233163868","5e28e8730fd86a0a19e084cd","6406d7f26dd5b7fc1e3377bd","6407ce477202a50c26f19b50","1280","891","","912","","f","","","<img src=""media/stimuli/inanimate_001_right.png"" class=""coveredImage test"" style = ""width:100px; height:100px; position:fixed; top:10%;    transform: translate(-50%, -50%);left:48%""></img><img src=""media/stimuli/inanimate_001_left.png"" class=""coveredImage test"" style = ""width:100px; height:100px;position:fixed; top:25%;        transform: translate(-50%, -50%);left:38%""></img><img src=""media/stimuli/inanimate_003_right.png"" class=""coveredImage test"" style = ""width:100px; height:100px;position:fixed; top:25%;        transform: translate(-50%, -50%);left:58%""></img><img src=""media/f.png""style = ""width:30px x; height:30px;position:fixed; top:43%;    transform: translate(-50%, -50%);left:40%""></img><img src=""media/j.png""style = ""width:30px; height:30px;position:fixed; top:43%;    transform: translate(-50%, -50%);left:60%""></img>","media/stimuli/inanimate_001_right.png","inanimate","right","single","media/stimuli/inanimate_001_left.png","inanimate","left","single","media/stimuli/inanimate_003_right.png","inanimate","right","single","pose_identity","","","",""
"","","","","","html-keyboard-response","37","99300","0.0-37.0","SS1678233163868","5e28e8730fd86a0a19e084cd","6406d7f26dd5b7fc1e3377bd","6407ce477202a50c26f19b50","1280","891","","836","","f","","","<img src=""media/stimuli/inanimate_011_right.png"" class=""coveredImage test"" style = ""width:100px; height:100px; position:fixed; top:10%;    transform: translate(-50%, -50%);left:44.5%""></img><img src=""media/stimuli/inanimate_011_right.png"" class=""coveredImage test"" style = ""width:100px; height:100px; position:fixed; top:10%;    transform: translate(-50%, -50%);left:51.5%""></img><img src=""media/stimuli/inanimate_011_right.png"" class=""coveredImage test"" style = ""width:100px; height:100px;position:fixed; top:25%;        transform: translate(-50%, -50%);left:38%""></img><img src=""media/stimuli/animate_011_right.png"" class=""coveredImage test"" style = ""width:100px; height:100px;position:fixed; top:25%;        transform: translate(-50%, -50%);left:54.5%""></img><img src=""media/stimuli/animate_011_right.png"" class=""coveredImage test"" style = ""width:100px; height:100px;position:fixed; top:25%;        transform: translate(-50%, -50%);left:61.5%""></img><img src=""media/f.png""style = ""width:30px x; height:30px;position:fixed; top:43%;    transform: translate(-50%, -50%);left:40%""></img><img src=""media/j.png""style = ""width:30px; height:30px;position:fixed; top:43%;    transform: translate(-50%, -50%);left:60%""></img>","media/stimuli/inanimate_011_right.png","inanimate","right","pair","media/stimuli/inanimate_011_right.png","inanimate","right","single","media/stimuli/animate_011_right.png","animate","right","pair","number_animacy","","","",""
"","","","","","html-keyboard-response","38","99988","0.0-38.0","SS1678233163868","5e28e8730fd86a0a19e084cd","6406d7f26dd5b7fc1e3377bd","6407ce477202a50c26f19b50","1280","891","","681","","f","","","<img src=""media/stimuli/animate_012_left.png"" class=""coveredImage test"" style = ""width:100px; height:100px; position:fixed; top:10%;    transform: translate(-50%, -50%);left:44.5%""></img><img src=""media/stimuli/animate_012_left.png"" class=""coveredImage test"" style = ""width:100px; height:100px; position:fixed; top:10%;    transform: translate(-50%, -50%);left:51.5%""></img><img src=""media/stimuli/animate_012_left.png"" class=""coveredImage test"" style = ""width:100px; height:100px;position:fixed; top:25%;        transform: translate(-50%, -50%);left:38%""></img><img src=""media/stimuli/inanimate_004_right.png"" class=""coveredImage test"" style = ""width:100px; height:100px;position:fixed; top:25%;        transform: translate(-50%, -50%);left:58%""></img><img src=""media/f.png""style = ""width:30px x; height:30px;position:fixed; top:43%;    transform: translate(-50%, -50%);left:40%""></img><img src=""media/j.png""style = ""width:30px; height:30px;position:fixed; top:43%;    transform: translate(-50%, -50%);left:60%""></img>","media/stimuli/animate_012_left.png","animate","left","pair","media/stimuli/animate_012_left.png","animate","left","single","media/stimuli/inanimate_004_right.png","inanimate","right","single","pose_animacy","","","",""
"","","","","","html-keyboard-response","39","100700","0.0-39.0","SS1678233163868","5e28e8730fd86a0a19e084cd","6406d7f26dd5b7fc1e3377bd","6407ce477202a50c26f19b50","1280","891","","707","","j","","","<img src=""media/stimuli/animate_011_right.png"" class=""coveredImage test"" style = ""width:100px; height:100px; position:fixed; top:10%;    transform: translate(-50%, -50%);left:44.5%""></img><img src=""media/stimuli/animate_011_right.png"" class=""coveredImage test"" style = ""width:100px; height:100px; position:fixed; top:10%;    transform: translate(-50%, -50%);left:51.5%""></img><img src=""media/stimuli/animate_003_right.png"" class=""coveredImage test"" style = ""width:100px; height:100px;position:fixed; top:25%;        transform: translate(-50%, -50%);left:34.5%""></img><img src=""media/stimuli/animate_003_right.png"" class=""coveredImage test"" style = ""width:100px; height:100px;position:fixed; top:25%;        transform: translate(-50%, -50%);left:41.5%""></img><img src=""media/stimuli/animate_011_left.png"" class=""coveredImage test"" style = ""width:100px; height:100px;position:fixed; top:25%;        transform: translate(-50%, -50%);left:54.5%""></img><img src=""media/stimuli/animate_011_left.png"" class=""coveredImage test"" style = ""width:100px; height:100px;position:fixed; top:25%;        transform: translate(-50%, -50%);left:61.5%""></img><img src=""media/f.png""style = ""width:30px x; height:30px;position:fixed; top:43%;    transform: translate(-50%, -50%);left:40%""></img><img src=""media/j.png""style = ""width:30px; height:30px;position:fixed; top:43%;    transform: translate(-50%, -50%);left:60%""></img>","media/stimuli/animate_011_right.png","animate","right","pair","media/stimuli/animate_003_right.png","animate","right","pair","media/stimuli/animate_011_left.png","animate","left","pair","identity_pose","","","",""
"","","","","","html-keyboard-response","40","101499","0.0-40.0","SS1678233163868","5e28e8730fd86a0a19e084cd","6406d7f26dd5b7fc1e3377bd","6407ce477202a50c26f19b50","1280","891","","793","","j","","","<img src=""media/stimuli/animate_003_right.png"" class=""coveredImage test"" style = ""width:100px; height:100px; position:fixed; top:10%;    transform: translate(-50%, -50%);left:44.5%""></img><img src=""media/stimuli/animate_003_right.png"" class=""coveredImage test"" style = ""width:100px; height:100px; position:fixed; top:10%;    transform: translate(-50%, -50%);left:51.5%""></img><img src=""media/stimuli/animate_011_right.png"" class=""coveredImage test"" style = ""width:100px; height:100px;position:fixed; top:25%;        transform: translate(-50%, -50%);left:34.5%""></img><img src=""media/stimuli/animate_011_right.png"" class=""coveredImage test"" style = ""width:100px; height:100px;position:fixed; top:25%;        transform: translate(-50%, -50%);left:41.5%""></img><img src=""media/stimuli/animate_003_left.png"" class=""coveredImage test"" style = ""width:100px; height:100px;position:fixed; top:25%;        transform: translate(-50%, -50%);left:54.5%""></img><img src=""media/stimuli/animate_003_left.png"" class=""coveredImage test"" style = ""width:100px; height:100px;position:fixed; top:25%;        transform: translate(-50%, -50%);left:61.5%""></img><img src=""media/f.png""style = ""width:30px x; height:30px;position:fixed; top:43%;    transform: translate(-50%, -50%);left:40%""></img><img src=""media/j.png""style = ""width:30px; height:30px;position:fixed; top:43%;    transform: translate(-50%, -50%);left:60%""></img>","media/stimuli/animate_003_right.png","animate","right","pair","media/stimuli/animate_011_right.png","animate","right","pair","media/stimuli/animate_003_left.png","animate","left","pair","identity_pose","","","",""
"","","","","","html-keyboard-response","41","102283","0.0-41.0","SS1678233163868","5e28e8730fd86a0a19e084cd","6406d7f26dd5b7fc1e3377bd","6407ce477202a50c26f19b50","1280","891","","779","","j","","","<img src=""media/stimuli/animate_003_right.png"" class=""coveredImage test"" style = ""width:100px; height:100px; position:fixed; top:10%;    transform: translate(-50%, -50%);left:44.5%""></img><img src=""media/stimuli/animate_003_right.png"" class=""coveredImage test"" style = ""width:100px; height:100px; position:fixed; top:10%;    transform: translate(-50%, -50%);left:51.5%""></img><img src=""media/stimuli/inanimate_007_right.png"" class=""coveredImage test"" style = ""width:100px; height:100px;position:fixed; top:25%;        transform: translate(-50%, -50%);left:38%""></img><img src=""media/stimuli/animate_003_left.png"" class=""coveredImage test"" style = ""width:100px; height:100px;position:fixed; top:25%;        transform: translate(-50%, -50%);left:58%""></img><img src=""media/f.png""style = ""width:30px x; height:30px;position:fixed; top:43%;    transform: translate(-50%, -50%);left:40%""></img><img src=""media/j.png""style = ""width:30px; height:30px;position:fixed; top:43%;    transform: translate(-50%, -50%);left:60%""></img>","media/stimuli/animate_003_right.png","animate","right","pair","media/stimuli/inanimate_007_right.png","inanimate","right","single","media/stimuli/animate_003_left.png","animate","left","single","animacy_pose","","","",""
"","","","","","html-keyboard-response","42","103420","0.0-42.0","SS1678233163868","5e28e8730fd86a0a19e084cd","6406d7f26dd5b7fc1e3377bd","6407ce477202a50c26f19b50","1280","891","","1132","","j","","","<img src=""media/stimuli/inanimate_006_left.png"" class=""coveredImage test"" style = ""width:100px; height:100px; position:fixed; top:10%;    transform: translate(-50%, -50%);left:48%""></img><img src=""media/stimuli/animate_012_left.png"" class=""coveredImage test"" style = ""width:100px; height:100px;position:fixed; top:25%;        transform: translate(-50%, -50%);left:38%""></img><img src=""media/stimuli/inanimate_006_right.png"" class=""coveredImage test"" style = ""width:100px; height:100px;position:fixed; top:25%;        transform: translate(-50%, -50%);left:58%""></img><img src=""media/f.png""style = ""width:30px x; height:30px;position:fixed; top:43%;    transform: translate(-50%, -50%);left:40%""></img><img src=""media/j.png""style = ""width:30px; height:30px;position:fixed; top:43%;    transform: translate(-50%, -50%);left:60%""></img>","media/stimuli/inanimate_006_left.png","inanimate","left","single","media/stimuli/animate_012_left.png","animate","left","single","media/stimuli/inanimate_006_right.png","inanimate","right","single","animacy_pose","","","",""
"","","","","","html-keyboard-response","43","104855","0.0-43.0","SS1678233163868","5e28e8730fd86a0a19e084cd","6406d7f26dd5b7fc1e3377bd","6407ce477202a50c26f19b50","1280","891","","1426","","f","","","<img src=""media/stimuli/animate_007_left.png"" class=""coveredImage test"" style = ""width:100px; height:100px; position:fixed; top:10%;    transform: translate(-50%, -50%);left:44.5%""></img><img src=""media/stimuli/animate_007_left.png"" class=""coveredImage test"" style = ""width:100px; height:100px; position:fixed; top:10%;    transform: translate(-50%, -50%);left:51.5%""></img><img src=""media/stimuli/animate_009_left.png"" class=""coveredImage test"" style = ""width:100px; height:100px;position:fixed; top:25%;        transform: translate(-50%, -50%);left:34.5%""></img><img src=""media/stimuli/animate_009_left.png"" class=""coveredImage test"" style = ""width:100px; height:100px;position:fixed; top:25%;        transform: translate(-50%, -50%);left:41.5%""></img><img src=""media/stimuli/animate_007_left.png"" class=""coveredImage test"" style = ""width:100px; height:100px;position:fixed; top:25%;        transform: translate(-50%, -50%);left:58%""></img><img src=""media/f.png""style = ""width:30px x; height:30px;position:fixed; top:43%;    transform: translate(-50%, -50%);left:40%""></img><img src=""media/j.png""style = ""width:30px; height:30px;position:fixed; top:43%;    transform: translate(-50%, -50%);left:60%""></img>","media/stimuli/animate_007_left.png","animate","left","pair","media/stimuli/animate_009_left.png","animate","left","pair","media/stimuli/animate_007_left.png","animate","left","single","identity_number","","","",""
"","","","","","html-keyboard-response","44","106044","0.0-44.0","SS1678233163868","5e28e8730fd86a0a19e084cd","6406d7f26dd5b7fc1e3377bd","6407ce477202a50c26f19b50","1280","891","","1181","","j","","","<img src=""media/stimuli/inanimate_001_right.png"" class=""coveredImage test"" style = ""width:100px; height:100px; position:fixed; top:10%;    transform: translate(-50%, -50%);left:44.5%""></img><img src=""media/stimuli/inanimate_001_right.png"" class=""coveredImage test"" style = ""width:100px; height:100px; position:fixed; top:10%;    transform: translate(-50%, -50%);left:51.5%""></img><img src=""media/stimuli/animate_006_right.png"" class=""coveredImage test"" style = ""width:100px; height:100px;position:fixed; top:25%;        transform: translate(-50%, -50%);left:34.5%""></img><img src=""media/stimuli/animate_006_right.png"" class=""coveredImage test"" style = ""width:100px; height:100px;position:fixed; top:25%;        transform: translate(-50%, -50%);left:41.5%""></img><img src=""media/stimuli/inanimate_001_right.png"" class=""coveredImage test"" style = ""width:100px; height:100px;position:fixed; top:25%;        transform: translate(-50%, -50%);left:58%""></img><img src=""media/f.png""style = ""width:30px x; height:30px;position:fixed; top:43%;    transform: translate(-50%, -50%);left:40%""></img><img src=""media/j.png""style = ""width:30px; height:30px;position:fixed; top:43%;    transform: translate(-50%, -50%);left:60%""></img>","media/stimuli/inanimate_001_right.png","inanimate","right","pair","media/stimuli/animate_006_right.png","animate","right","pair","media/stimuli/inanimate_001_right.png","inanimate","right","single","animacy_number","","","",""
"","","","","","html-keyboard-response","45","107124","0.0-45.0","SS1678233163868","5e28e8730fd86a0a19e084cd","6406d7f26dd5b7fc1e3377bd","6407ce477202a50c26f19b50","1280","891","","1074","","j","","","<img src=""media/stimuli/animate_004_left.png"" class=""coveredImage test"" style = ""width:100px; height:100px; position:fixed; top:10%;    transform: translate(-50%, -50%);left:44.5%""></img><img src=""media/stimuli/animate_004_left.png"" class=""coveredImage test"" style = ""width:100px; height:100px; position:fixed; top:10%;    transform: translate(-50%, -50%);left:51.5%""></img><img src=""media/stimuli/animate_001_left.png"" class=""coveredImage test"" style = ""width:100px; height:100px;position:fixed; top:25%;        transform: translate(-50%, -50%);left:34.5%""></img><img src=""media/stimuli/animate_001_left.png"" class=""coveredImage test"" style = ""width:100px; height:100px;position:fixed; top:25%;        transform: translate(-50%, -50%);left:41.5%""></img><img src=""media/stimuli/animate_004_right.png"" class=""coveredImage test"" style = ""width:100px; height:100px;position:fixed; top:25%;        transform: translate(-50%, -50%);left:54.5%""></img><img src=""media/stimuli/animate_004_right.png"" class=""coveredImage test"" style = ""width:100px; height:100px;position:fixed; top:25%;        transform: translate(-50%, -50%);left:61.5%""></img><img src=""media/f.png""style = ""width:30px x; height:30px;position:fixed; top:43%;    transform: translate(-50%, -50%);left:40%""></img><img src=""media/j.png""style = ""width:30px; height:30px;position:fixed; top:43%;    transform: translate(-50%, -50%);left:60%""></img>","media/stimuli/animate_004_left.png","animate","left","pair","media/stimuli/animate_001_left.png","animate","left","pair","media/stimuli/animate_004_right.png","animate","right","pair","identity_pose","","","",""
"","","","","","html-keyboard-response","46","109021","0.0-46.0","SS1678233163868","5e28e8730fd86a0a19e084cd","6406d7f26dd5b7fc1e3377bd","6407ce477202a50c26f19b50","1280","891","","1889",""," ","","","","","","","","","","","","","","","","","","","",""
"","","","","","html-keyboard-response","47","111354","0.0-47.0","SS1678233163868","5e28e8730fd86a0a19e084cd","6406d7f26dd5b7fc1e3377bd","6407ce477202a50c26f19b50","1280","891","","2325","","j","","","<img src=""media/stimuli/animate_009_left.png"" class=""coveredImage test"" style = ""width:100px; height:100px; position:fixed; top:10%;    transform: translate(-50%, -50%);left:44.5%""></img><img src=""media/stimuli/animate_009_left.png"" class=""coveredImage test"" style = ""width:100px; height:100px; position:fixed; top:10%;    transform: translate(-50%, -50%);left:51.5%""></img><img src=""media/stimuli/inanimate_008_left.png"" class=""coveredImage test"" style = ""width:100px; height:100px;position:fixed; top:25%;        transform: translate(-50%, -50%);left:34.5%""></img><img src=""media/stimuli/inanimate_008_left.png"" class=""coveredImage test"" style = ""width:100px; height:100px;position:fixed; top:25%;        transform: translate(-50%, -50%);left:41.5%""></img><img src=""media/stimuli/animate_008_left.png"" class=""coveredImage test"" style = ""width:100px; height:100px;position:fixed; top:25%;        transform: translate(-50%, -50%);left:54.5%""></img><img src=""media/stimuli/animate_008_left.png"" class=""coveredImage test"" style = ""width:100px; height:100px;position:fixed; top:25%;        transform: translate(-50%, -50%);left:61.5%""></img><img src=""media/f.png""style = ""width:30px x; height:30px;position:fixed; top:43%;    transform: translate(-50%, -50%);left:40%""></img><img src=""media/j.png""style = ""width:30px; height:30px;position:fixed; top:43%;    transform: translate(-50%, -50%);left:60%""></img>","media/stimuli/animate_009_left.png","animate","left","pair","media/stimuli/inanimate_008_left.png","inanimate","left","pair","media/stimuli/animate_008_left.png","animate","left","pair","animacy_identity","","","",""
"","","","","","html-keyboard-response","48","112548","0.0-48.0","SS1678233163868","5e28e8730fd86a0a19e084cd","6406d7f26dd5b7fc1e3377bd","6407ce477202a50c26f19b50","1280","891","","1190","","f","","","<img src=""media/stimuli/animate_006_left.png"" class=""coveredImage test"" style = ""width:100px; height:100px; position:fixed; top:10%;    transform: translate(-50%, -50%);left:48%""></img><img src=""media/stimuli/animate_006_left.png"" class=""coveredImage test"" style = ""width:100px; height:100px;position:fixed; top:25%;        transform: translate(-50%, -50%);left:34.5%""></img><img src=""media/stimuli/animate_006_left.png"" class=""coveredImage test"" style = ""width:100px; height:100px;position:fixed; top:25%;        transform: translate(-50%, -50%);left:41.5%""></img><img src=""media/stimuli/inanimate_003_left.png"" class=""coveredImage test"" style = ""width:100px; height:100px;position:fixed; top:25%;        transform: translate(-50%, -50%);left:58%""></img><img src=""media/f.png""style = ""width:30px x; height:30px;position:fixed; top:43%;    transform: translate(-50%, -50%);left:40%""></img><img src=""media/j.png""style = ""width:30px; height:30px;position:fixed; top:43%;    transform: translate(-50%, -50%);left:60%""></img>","media/stimuli/animate_006_left.png","animate","left","single","media/stimuli/animate_006_left.png","animate","left","pair","media/stimuli/inanimate_003_left.png","inanimate","left","single","number_animacy","","","",""
"","","","","","html-keyboard-response","49","113339","0.0-49.0","SS1678233163868","5e28e8730fd86a0a19e084cd","6406d7f26dd5b7fc1e3377bd","6407ce477202a50c26f19b50","1280","891","","784","","j","","","<img src=""media/stimuli/animate_003_right.png"" class=""coveredImage test"" style = ""width:100px; height:100px; position:fixed; top:10%;    transform: translate(-50%, -50%);left:48%""></img><img src=""media/stimuli/inanimate_012_right.png"" class=""coveredImage test"" style = ""width:100px; height:100px;position:fixed; top:25%;        transform: translate(-50%, -50%);left:38%""></img><img src=""media/stimuli/animate_003_right.png"" class=""coveredImage test"" style = ""width:100px; height:100px;position:fixed; top:25%;        transform: translate(-50%, -50%);left:54.5%""></img><img src=""media/stimuli/animate_003_right.png"" class=""coveredImage test"" style = ""width:100px; height:100px;position:fixed; top:25%;        transform: translate(-50%, -50%);left:61.5%""></img><img src=""media/f.png""style = ""width:30px x; height:30px;position:fixed; top:43%;    transform: translate(-50%, -50%);left:40%""></img><img src=""media/j.png""style = ""width:30px; height:30px;position:fixed; top:43%;    transform: translate(-50%, -50%);left:60%""></img>","media/stimuli/animate_003_right.png","animate","right","single","media/stimuli/inanimate_012_right.png","inanimate","right","single","media/stimuli/animate_003_right.png","animate","right","pair","animacy_number","","","",""
"","","","","","html-keyboard-response","50","114269","0.0-50.0","SS1678233163868","5e28e8730fd86a0a19e084cd","6406d7f26dd5b7fc1e3377bd","6407ce477202a50c26f19b50","1280","891","","924","","j","","","<img src=""media/stimuli/animate_012_left.png"" class=""coveredImage test"" style = ""width:100px; height:100px; position:fixed; top:10%;    transform: translate(-50%, -50%);left:48%""></img><img src=""media/stimuli/animate_003_left.png"" class=""coveredImage test"" style = ""width:100px; height:100px;position:fixed; top:25%;        transform: translate(-50%, -50%);left:38%""></img><img src=""media/stimuli/animate_012_left.png"" class=""coveredImage test"" style = ""width:100px; height:100px;position:fixed; top:25%;        transform: translate(-50%, -50%);left:54.5%""></img><img src=""media/stimuli/animate_012_left.png"" class=""coveredImage test"" style = ""width:100px; height:100px;position:fixed; top:25%;        transform: translate(-50%, -50%);left:61.5%""></img><img src=""media/f.png""style = ""width:30px x; height:30px;position:fixed; top:43%;    transform: translate(-50%, -50%);left:40%""></img><img src=""media/j.png""style = ""width:30px; height:30px;position:fixed; top:43%;    transform: translate(-50%, -50%);left:60%""></img>","media/stimuli/animate_012_left.png","animate","left","single","media/stimuli/animate_003_left.png","animate","left","single","media/stimuli/animate_012_left.png","animate","left","pair","identity_number","","","",""
"","","","","","html-keyboard-response","51","115052","0.0-51.0","SS1678233163868","5e28e8730fd86a0a19e084cd","6406d7f26dd5b7fc1e3377bd","6407ce477202a50c26f19b50","1280","891","","774","","j","","","<img src=""media/stimuli/inanimate_007_left.png"" class=""coveredImage test"" style = ""width:100px; height:100px; position:fixed; top:10%;    transform: translate(-50%, -50%);left:48%""></img><img src=""media/stimuli/inanimate_009_left.png"" class=""coveredImage test"" style = ""width:100px; height:100px;position:fixed; top:25%;        transform: translate(-50%, -50%);left:38%""></img><img src=""media/stimuli/inanimate_007_right.png"" class=""coveredImage test"" style = ""width:100px; height:100px;position:fixed; top:25%;        transform: translate(-50%, -50%);left:58%""></img><img src=""media/f.png""style = ""width:30px x; height:30px;position:fixed; top:43%;    transform: translate(-50%, -50%);left:40%""></img><img src=""media/j.png""style = ""width:30px; height:30px;position:fixed; top:43%;    transform: translate(-50%, -50%);left:60%""></img>","media/stimuli/inanimate_007_left.png","inanimate","left","single","media/stimuli/inanimate_009_left.png","inanimate","left","single","media/stimuli/inanimate_007_right.png","inanimate","right","single","identity_pose","","","",""
"","","","","","html-keyboard-response","52","116564","0.0-52.0","SS1678233163868","5e28e8730fd86a0a19e084cd","6406d7f26dd5b7fc1e3377bd","6407ce477202a50c26f19b50","1280","891","","1508","","f","","","<img src=""media/stimuli/animate_007_right.png"" class=""coveredImage test"" style = ""width:100px; height:100px; position:fixed; top:10%;    transform: translate(-50%, -50%);left:48%""></img><img src=""media/stimuli/animate_005_right.png"" class=""coveredImage test"" style = ""width:100px; height:100px;position:fixed; top:25%;        transform: translate(-50%, -50%);left:38%""></img><img src=""media/stimuli/inanimate_009_right.png"" class=""coveredImage test"" style = ""width:100px; height:100px;position:fixed; top:25%;        transform: translate(-50%, -50%);left:58%""></img><img src=""media/f.png""style = ""width:30px x; height:30px;position:fixed; top:43%;    transform: translate(-50%, -50%);left:40%""></img><img src=""media/j.png""style = ""width:30px; height:30px;position:fixed; top:43%;    transform: translate(-50%, -50%);left:60%""></img>","media/stimuli/animate_007_right.png","animate","right","single","media/stimuli/animate_005_right.png","animate","right","single","media/stimuli/inanimate_009_right.png","inanimate","right","single","identity_animacy","","","",""
"","","","","","html-keyboard-response","53","117292","0.0-53.0","SS1678233163868","5e28e8730fd86a0a19e084cd","6406d7f26dd5b7fc1e3377bd","6407ce477202a50c26f19b50","1280","891","","723","","j","","","<img src=""media/stimuli/animate_003_right.png"" class=""coveredImage test"" style = ""width:100px; height:100px; position:fixed; top:10%;    transform: translate(-50%, -50%);left:44.5%""></img><img src=""media/stimuli/animate_003_right.png"" class=""coveredImage test"" style = ""width:100px; height:100px; position:fixed; top:10%;    transform: translate(-50%, -50%);left:51.5%""></img><img src=""media/stimuli/inanimate_005_right.png"" class=""coveredImage test"" style = ""width:100px; height:100px;position:fixed; top:25%;        transform: translate(-50%, -50%);left:38%""></img><img src=""media/stimuli/animate_003_left.png"" class=""coveredImage test"" style = ""width:100px; height:100px;position:fixed; top:25%;        transform: translate(-50%, -50%);left:58%""></img><img src=""media/f.png""style = ""width:30px x; height:30px;position:fixed; top:43%;    transform: translate(-50%, -50%);left:40%""></img><img src=""media/j.png""style = ""width:30px; height:30px;position:fixed; top:43%;    transform: translate(-50%, -50%);left:60%""></img>","media/stimuli/animate_003_right.png","animate","right","pair","media/stimuli/inanimate_005_right.png","inanimate","right","single","media/stimuli/animate_003_left.png","animate","left","single","animacy_pose","","","",""
"","","","","","html-keyboard-response","54","118075","0.0-54.0","SS1678233163868","5e28e8730fd86a0a19e084cd","6406d7f26dd5b7fc1e3377bd","6407ce477202a50c26f19b50","1280","891","","777","","j","","","<img src=""media/stimuli/animate_008_right.png"" class=""coveredImage test"" style = ""width:100px; height:100px; position:fixed; top:10%;    transform: translate(-50%, -50%);left:48%""></img><img src=""media/stimuli/animate_011_right.png"" class=""coveredImage test"" style = ""width:100px; height:100px;position:fixed; top:25%;        transform: translate(-50%, -50%);left:38%""></img><img src=""media/stimuli/animate_008_left.png"" class=""coveredImage test"" style = ""width:100px; height:100px;position:fixed; top:25%;        transform: translate(-50%, -50%);left:58%""></img><img src=""media/f.png""style = ""width:30px x; height:30px;position:fixed; top:43%;    transform: translate(-50%, -50%);left:40%""></img><img src=""media/j.png""style = ""width:30px; height:30px;position:fixed; top:43%;    transform: translate(-50%, -50%);left:60%""></img>","media/stimuli/animate_008_right.png","animate","right","single","media/stimuli/animate_011_right.png","animate","right","single","media/stimuli/animate_008_left.png","animate","left","single","identity_pose","","","",""
"","","","","","html-keyboard-response","55","119132","0.0-55.0","SS1678233163868","5e28e8730fd86a0a19e084cd","6406d7f26dd5b7fc1e3377bd","6407ce477202a50c26f19b50","1280","891","","1053","","f","","","<img src=""media/stimuli/inanimate_006_right.png"" class=""coveredImage test"" style = ""width:100px; height:100px; position:fixed; top:10%;    transform: translate(-50%, -50%);left:44.5%""></img><img src=""media/stimuli/inanimate_006_right.png"" class=""coveredImage test"" style = ""width:100px; height:100px; position:fixed; top:10%;    transform: translate(-50%, -50%);left:51.5%""></img><img src=""media/stimuli/inanimate_006_left.png"" class=""coveredImage test"" style = ""width:100px; height:100px;position:fixed; top:25%;        transform: translate(-50%, -50%);left:34.5%""></img><img src=""media/stimuli/inanimate_006_left.png"" class=""coveredImage test"" style = ""width:100px; height:100px;position:fixed; top:25%;        transform: translate(-50%, -50%);left:41.5%""></img><img src=""media/stimuli/inanimate_006_right.png"" class=""coveredImage test"" style = ""width:100px; height:100px;position:fixed; top:25%;        transform: translate(-50%, -50%);left:58%""></img><img src=""media/f.png""style = ""width:30px x; height:30px;position:fixed; top:43%;    transform: translate(-50%, -50%);left:40%""></img><img src=""media/j.png""style = ""width:30px; height:30px;position:fixed; top:43%;    transform: translate(-50%, -50%);left:60%""></img>","media/stimuli/inanimate_006_right.png","inanimate","right","pair","media/stimuli/inanimate_006_left.png","inanimate","left","pair","media/stimuli/inanimate_006_right.png","inanimate","right","single","pose_number","","","",""
"","","","","","html-keyboard-response","56","120028","0.0-56.0","SS1678233163868","5e28e8730fd86a0a19e084cd","6406d7f26dd5b7fc1e3377bd","6407ce477202a50c26f19b50","1280","891","","887","","j","","","<img src=""media/stimuli/animate_001_right.png"" class=""coveredImage test"" style = ""width:100px; height:100px; position:fixed; top:10%;    transform: translate(-50%, -50%);left:48%""></img><img src=""media/stimuli/inanimate_007_right.png"" class=""coveredImage test"" style = ""width:100px; height:100px;position:fixed; top:25%;        transform: translate(-50%, -50%);left:38%""></img><img src=""media/stimuli/animate_001_left.png"" class=""coveredImage test"" style = ""width:100px; height:100px;position:fixed; top:25%;        transform: translate(-50%, -50%);left:58%""></img><img src=""media/f.png""style = ""width:30px x; height:30px;position:fixed; top:43%;    transform: translate(-50%, -50%);left:40%""></img><img src=""media/j.png""style = ""width:30px; height:30px;position:fixed; top:43%;    transform: translate(-50%, -50%);left:60%""></img>","media/stimuli/animate_001_right.png","animate","right","single","media/stimuli/inanimate_007_right.png","inanimate","right","single","media/stimuli/animate_001_left.png","animate","left","single","animacy_pose","","","",""
"","","","","","html-keyboard-response","57","121444","0.0-57.0","SS1678233163868","5e28e8730fd86a0a19e084cd","6406d7f26dd5b7fc1e3377bd","6407ce477202a50c26f19b50","1280","891","","1407","","f","","","<img src=""media/stimuli/animate_001_left.png"" class=""coveredImage test"" style = ""width:100px; height:100px; position:fixed; top:10%;    transform: translate(-50%, -50%);left:48%""></img><img src=""media/stimuli/animate_001_right.png"" class=""coveredImage test"" style = ""width:100px; height:100px;position:fixed; top:25%;        transform: translate(-50%, -50%);left:38%""></img><img src=""media/stimuli/animate_001_left.png"" class=""coveredImage test"" style = ""width:100px; height:100px;position:fixed; top:25%;        transform: translate(-50%, -50%);left:54.5%""></img><img src=""media/stimuli/animate_001_left.png"" class=""coveredImage test"" style = ""width:100px; height:100px;position:fixed; top:25%;        transform: translate(-50%, -50%);left:61.5%""></img><img src=""media/f.png""style = ""width:30px x; height:30px;position:fixed; top:43%;    transform: translate(-50%, -50%);left:40%""></img><img src=""media/j.png""style = ""width:30px; height:30px;position:fixed; top:43%;    transform: translate(-50%, -50%);left:60%""></img>","media/stimuli/animate_001_left.png","animate","left","single","media/stimuli/animate_001_right.png","animate","right","single","media/stimuli/animate_001_left.png","animate","left","pair","pose_number","","","",""
"","","","","","html-keyboard-response","58","122843","0.0-58.0","SS1678233163868","5e28e8730fd86a0a19e084cd","6406d7f26dd5b7fc1e3377bd","6407ce477202a50c26f19b50","1280","891","","1394","","f","","","<img src=""media/stimuli/inanimate_010_right.png"" class=""coveredImage test"" style = ""width:100px; height:100px; position:fixed; top:10%;    transform: translate(-50%, -50%);left:44.5%""></img><img src=""media/stimuli/inanimate_010_right.png"" class=""coveredImage test"" style = ""width:100px; height:100px; position:fixed; top:10%;    transform: translate(-50%, -50%);left:51.5%""></img><img src=""media/stimuli/inanimate_012_right.png"" class=""coveredImage test"" style = ""width:100px; height:100px;position:fixed; top:25%;        transform: translate(-50%, -50%);left:34.5%""></img><img src=""media/stimuli/inanimate_012_right.png"" class=""coveredImage test"" style = ""width:100px; height:100px;position:fixed; top:25%;        transform: translate(-50%, -50%);left:41.5%""></img><img src=""media/stimuli/animate_004_right.png"" class=""coveredImage test"" style = ""width:100px; height:100px;position:fixed; top:25%;        transform: translate(-50%, -50%);left:54.5%""></img><img src=""media/stimuli/animate_004_right.png"" class=""coveredImage test"" style = ""width:100px; height:100px;position:fixed; top:25%;        transform: translate(-50%, -50%);left:61.5%""></img><img src=""media/f.png""style = ""width:30px x; height:30px;position:fixed; top:43%;    transform: translate(-50%, -50%);left:40%""></img><img src=""media/j.png""style = ""width:30px; height:30px;position:fixed; top:43%;    transform: translate(-50%, -50%);left:60%""></img>","media/stimuli/inanimate_010_right.png","inanimate","right","pair","media/stimuli/inanimate_012_right.png","inanimate","right","pair","media/stimuli/animate_004_right.png","animate","right","pair","identity_animacy","","","",""
"","","","","","html-keyboard-response","59","124034","0.0-59.0","SS1678233163868","5e28e8730fd86a0a19e084cd","6406d7f26dd5b7fc1e3377bd","6407ce477202a50c26f19b50","1280","891","","1183",""," ","","","","","","","","","","","","","","","","","","","",""
"","","","","","html-keyboard-response","60","125133","0.0-60.0","SS1678233163868","5e28e8730fd86a0a19e084cd","6406d7f26dd5b7fc1e3377bd","6407ce477202a50c26f19b50","1280","891","","1096","","j","","","<img src=""media/stimuli/animate_008_right.png"" class=""coveredImage test"" style = ""width:100px; height:100px; position:fixed; top:10%;    transform: translate(-50%, -50%);left:48%""></img><img src=""media/stimuli/inanimate_006_right.png"" class=""coveredImage test"" style = ""width:100px; height:100px;position:fixed; top:25%;        transform: translate(-50%, -50%);left:38%""></img><img src=""media/stimuli/animate_008_right.png"" class=""coveredImage test"" style = ""width:100px; height:100px;position:fixed; top:25%;        transform: translate(-50%, -50%);left:54.5%""></img><img src=""media/stimuli/animate_008_right.png"" class=""coveredImage test"" style = ""width:100px; height:100px;position:fixed; top:25%;        transform: translate(-50%, -50%);left:61.5%""></img><img src=""media/f.png""style = ""width:30px x; height:30px;position:fixed; top:43%;    transform: translate(-50%, -50%);left:40%""></img><img src=""media/j.png""style = ""width:30px; height:30px;position:fixed; top:43%;    transform: translate(-50%, -50%);left:60%""></img>","media/stimuli/animate_008_right.png","animate","right","single","media/stimuli/inanimate_006_right.png","inanimate","right","single","media/stimuli/animate_008_right.png","animate","right","pair","animacy_number","","","",""
"","","","","","html-keyboard-response","61","126218","0.0-61.0","SS1678233163868","5e28e8730fd86a0a19e084cd","6406d7f26dd5b7fc1e3377bd","6407ce477202a50c26f19b50","1280","891","","1082","","f","","","<img src=""media/stimuli/animate_005_left.png"" class=""coveredImage test"" style = ""width:100px; height:100px; position:fixed; top:10%;    transform: translate(-50%, -50%);left:48%""></img><img src=""media/stimuli/animate_005_right.png"" class=""coveredImage test"" style = ""width:100px; height:100px;position:fixed; top:25%;        transform: translate(-50%, -50%);left:38%""></img><img src=""media/stimuli/animate_005_left.png"" class=""coveredImage test"" style = ""width:100px; height:100px;position:fixed; top:25%;        transform: translate(-50%, -50%);left:54.5%""></img><img src=""media/stimuli/animate_005_left.png"" class=""coveredImage test"" style = ""width:100px; height:100px;position:fixed; top:25%;        transform: translate(-50%, -50%);left:61.5%""></img><img src=""media/f.png""style = ""width:30px x; height:30px;position:fixed; top:43%;    transform: translate(-50%, -50%);left:40%""></img><img src=""media/j.png""style = ""width:30px; height:30px;position:fixed; top:43%;    transform: translate(-50%, -50%);left:60%""></img>","media/stimuli/animate_005_left.png","animate","left","single","media/stimuli/animate_005_right.png","animate","right","single","media/stimuli/animate_005_left.png","animate","left","pair","pose_number","","","",""
"","","","","","html-keyboard-response","62","127026","0.0-62.0","SS1678233163868","5e28e8730fd86a0a19e084cd","6406d7f26dd5b7fc1e3377bd","6407ce477202a50c26f19b50","1280","891","","802","","j","","","<img src=""media/stimuli/animate_008_left.png"" class=""coveredImage test"" style = ""width:100px; height:100px; position:fixed; top:10%;    transform: translate(-50%, -50%);left:48%""></img><img src=""media/stimuli/inanimate_012_left.png"" class=""coveredImage test"" style = ""width:100px; height:100px;position:fixed; top:25%;        transform: translate(-50%, -50%);left:38%""></img><img src=""media/stimuli/animate_008_left.png"" class=""coveredImage test"" style = ""width:100px; height:100px;position:fixed; top:25%;        transform: translate(-50%, -50%);left:58%""></img><img src=""media/f.png""style = ""width:30px x; height:30px;position:fixed; top:43%;    transform: translate(-50%, -50%);left:40%""></img><img src=""media/j.png""style = ""width:30px; height:30px;position:fixed; top:43%;    transform: translate(-50%, -50%);left:60%""></img>","media/stimuli/animate_008_left.png","animate","left","single","media/stimuli/inanimate_012_left.png","inanimate","left","single","media/stimuli/animate_008_left.png","animate","left","single","animacy_filler","","","",""
"","","","","","html-keyboard-response","63","129012","0.0-63.0","SS1678233163868","5e28e8730fd86a0a19e084cd","6406d7f26dd5b7fc1e3377bd","6407ce477202a50c26f19b50","1280","891","","1984","","f","","","<img src=""media/stimuli/inanimate_012_left.png"" class=""coveredImage test"" style = ""width:100px; height:100px; position:fixed; top:10%;    transform: translate(-50%, -50%);left:44.5%""></img><img src=""media/stimuli/inanimate_012_left.png"" class=""coveredImage test"" style = ""width:100px; height:100px; position:fixed; top:10%;    transform: translate(-50%, -50%);left:51.5%""></img><img src=""media/stimuli/inanimate_009_left.png"" class=""coveredImage test"" style = ""width:100px; height:100px;position:fixed; top:25%;        transform: translate(-50%, -50%);left:34.5%""></img><img src=""media/stimuli/inanimate_009_left.png"" class=""coveredImage test"" style = ""width:100px; height:100px;position:fixed; top:25%;        transform: translate(-50%, -50%);left:41.5%""></img><img src=""media/stimuli/animate_008_left.png"" class=""coveredImage test"" style = ""width:100px; height:100px;position:fixed; top:25%;        transform: translate(-50%, -50%);left:54.5%""></img><img src=""media/stimuli/animate_008_left.png"" class=""coveredImage test"" style = ""width:100px; height:100px;position:fixed; top:25%;        transform: translate(-50%, -50%);left:61.5%""></img><img src=""media/f.png""style = ""width:30px x; height:30px;position:fixed; top:43%;    transform: translate(-50%, -50%);left:40%""></img><img src=""media/j.png""style = ""width:30px; height:30px;position:fixed; top:43%;    transform: translate(-50%, -50%);left:60%""></img>","media/stimuli/inanimate_012_left.png","inanimate","left","pair","media/stimuli/inanimate_009_left.png","inanimate","left","pair","media/stimuli/animate_008_left.png","animate","left","pair","identity_animacy","","","",""
"","","","","","html-keyboard-response","64","130027","0.0-64.0","SS1678233163868","5e28e8730fd86a0a19e084cd","6406d7f26dd5b7fc1e3377bd","6407ce477202a50c26f19b50","1280","891","","1009","","f","","","<img src=""media/stimuli/inanimate_005_right.png"" class=""coveredImage test"" style = ""width:100px; height:100px; position:fixed; top:10%;    transform: translate(-50%, -50%);left:44.5%""></img><img src=""media/stimuli/inanimate_005_right.png"" class=""coveredImage test"" style = ""width:100px; height:100px; position:fixed; top:10%;    transform: translate(-50%, -50%);left:51.5%""></img><img src=""media/stimuli/inanimate_009_right.png"" class=""coveredImage test"" style = ""width:100px; height:100px;position:fixed; top:25%;        transform: translate(-50%, -50%);left:34.5%""></img><img src=""media/stimuli/inanimate_009_right.png"" class=""coveredImage test"" style = ""width:100px; height:100px;position:fixed; top:25%;        transform: translate(-50%, -50%);left:41.5%""></img><img src=""media/stimuli/animate_001_right.png"" class=""coveredImage test"" style = ""width:100px; height:100px;position:fixed; top:25%;        transform: translate(-50%, -50%);left:54.5%""></img><img src=""media/stimuli/animate_001_right.png"" class=""coveredImage test"" style = ""width:100px; height:100px;position:fixed; top:25%;        transform: translate(-50%, -50%);left:61.5%""></img><img src=""media/f.png""style = ""width:30px x; height:30px;position:fixed; top:43%;    transform: translate(-50%, -50%);left:40%""></img><img src=""media/j.png""style = ""width:30px; height:30px;position:fixed; top:43%;    transform: translate(-50%, -50%);left:60%""></img>","media/stimuli/inanimate_005_right.png","inanimate","right","pair","media/stimuli/inanimate_009_right.png","inanimate","right","pair","media/stimuli/animate_001_right.png","animate","right","pair","identity_animacy","","","",""
"","","","","","html-keyboard-response","65","130916","0.0-65.0","SS1678233163868","5e28e8730fd86a0a19e084cd","6406d7f26dd5b7fc1e3377bd","6407ce477202a50c26f19b50","1280","891","","886","","j","","","<img src=""media/stimuli/inanimate_001_right.png"" class=""coveredImage test"" style = ""width:100px; height:100px; position:fixed; top:10%;    transform: translate(-50%, -50%);left:44.5%""></img><img src=""media/stimuli/inanimate_001_right.png"" class=""coveredImage test"" style = ""width:100px; height:100px; position:fixed; top:10%;    transform: translate(-50%, -50%);left:51.5%""></img><img src=""media/stimuli/animate_001_right.png"" class=""coveredImage test"" style = ""width:100px; height:100px;position:fixed; top:25%;        transform: translate(-50%, -50%);left:34.5%""></img><img src=""media/stimuli/animate_001_right.png"" class=""coveredImage test"" style = ""width:100px; height:100px;position:fixed; top:25%;        transform: translate(-50%, -50%);left:41.5%""></img><img src=""media/stimuli/inanimate_003_right.png"" class=""coveredImage test"" style = ""width:100px; height:100px;position:fixed; top:25%;        transform: translate(-50%, -50%);left:54.5%""></img><img src=""media/stimuli/inanimate_003_right.png"" class=""coveredImage test"" style = ""width:100px; height:100px;position:fixed; top:25%;        transform: translate(-50%, -50%);left:61.5%""></img><img src=""media/f.png""style = ""width:30px x; height:30px;position:fixed; top:43%;    transform: translate(-50%, -50%);left:40%""></img><img src=""media/j.png""style = ""width:30px; height:30px;position:fixed; top:43%;    transform: translate(-50%, -50%);left:60%""></img>","media/stimuli/inanimate_001_right.png","inanimate","right","pair","media/stimuli/animate_001_right.png","animate","right","pair","media/stimuli/inanimate_003_right.png","inanimate","right","pair","animacy_identity","","","",""
"","","","","","html-keyboard-response","66","131997","0.0-66.0","SS1678233163868","5e28e8730fd86a0a19e084cd","6406d7f26dd5b7fc1e3377bd","6407ce477202a50c26f19b50","1280","891","","1071","","f","","","<img src=""media/stimuli/animate_002_left.png"" class=""coveredImage test"" style = ""width:100px; height:100px; position:fixed; top:10%;    transform: translate(-50%, -50%);left:48%""></img><img src=""media/stimuli/animate_002_right.png"" class=""coveredImage test"" style = ""width:100px; height:100px;position:fixed; top:25%;        transform: translate(-50%, -50%);left:38%""></img><img src=""media/stimuli/animate_005_left.png"" class=""coveredImage test"" style = ""width:100px; height:100px;position:fixed; top:25%;        transform: translate(-50%, -50%);left:58%""></img><img src=""media/f.png""style = ""width:30px x; height:30px;position:fixed; top:43%;    transform: translate(-50%, -50%);left:40%""></img><img src=""media/j.png""style = ""width:30px; height:30px;position:fixed; top:43%;    transform: translate(-50%, -50%);left:60%""></img>","media/stimuli/animate_002_left.png","animate","left","single","media/stimuli/animate_002_right.png","animate","right","single","media/stimuli/animate_005_left.png","animate","left","single","pose_identity","","","",""
"","","","","","html-keyboard-response","67","132788","0.0-67.0","SS1678233163868","5e28e8730fd86a0a19e084cd","6406d7f26dd5b7fc1e3377bd","6407ce477202a50c26f19b50","1280","891","","787","","j","","","<img src=""media/stimuli/inanimate_007_left.png"" class=""coveredImage test"" style = ""width:100px; height:100px; position:fixed; top:10%;    transform: translate(-50%, -50%);left:48%""></img><img src=""media/stimuli/inanimate_003_left.png"" class=""coveredImage test"" style = ""width:100px; height:100px;position:fixed; top:25%;        transform: translate(-50%, -50%);left:38%""></img><img src=""media/stimuli/inanimate_007_right.png"" class=""coveredImage test"" style = ""width:100px; height:100px;position:fixed; top:25%;        transform: translate(-50%, -50%);left:58%""></img><img src=""media/f.png""style = ""width:30px x; height:30px;position:fixed; top:43%;    transform: translate(-50%, -50%);left:40%""></img><img src=""media/j.png""style = ""width:30px; height:30px;position:fixed; top:43%;    transform: translate(-50%, -50%);left:60%""></img>","media/stimuli/inanimate_007_left.png","inanimate","left","single","media/stimuli/inanimate_003_left.png","inanimate","left","single","media/stimuli/inanimate_007_right.png","inanimate","right","single","identity_pose","","","",""
"","","","","","html-keyboard-response","68","134331","0.0-68.0","SS1678233163868","5e28e8730fd86a0a19e084cd","6406d7f26dd5b7fc1e3377bd","6407ce477202a50c26f19b50","1280","891","","1539","","f","","","<img src=""media/stimuli/inanimate_012_right.png"" class=""coveredImage test"" style = ""width:100px; height:100px; position:fixed; top:10%;    transform: translate(-50%, -50%);left:48%""></img><img src=""media/stimuli/inanimate_012_right.png"" class=""coveredImage test"" style = ""width:100px; height:100px;position:fixed; top:25%;        transform: translate(-50%, -50%);left:34.5%""></img><img src=""media/stimuli/inanimate_012_right.png"" class=""coveredImage test"" style = ""width:100px; height:100px;position:fixed; top:25%;        transform: translate(-50%, -50%);left:41.5%""></img><img src=""media/stimuli/inanimate_003_right.png"" class=""coveredImage test"" style = ""width:100px; height:100px;position:fixed; top:25%;        transform: translate(-50%, -50%);left:58%""></img><img src=""media/f.png""style = ""width:30px x; height:30px;position:fixed; top:43%;    transform: translate(-50%, -50%);left:40%""></img><img src=""media/j.png""style = ""width:30px; height:30px;position:fixed; top:43%;    transform: translate(-50%, -50%);left:60%""></img>","media/stimuli/inanimate_012_right.png","inanimate","right","single","media/stimuli/inanimate_012_right.png","inanimate","right","pair","media/stimuli/inanimate_003_right.png","inanimate","right","single","number_identity","","","",""
"","","","","","html-keyboard-response","69","135140","0.0-69.0","SS1678233163868","5e28e8730fd86a0a19e084cd","6406d7f26dd5b7fc1e3377bd","6407ce477202a50c26f19b50","1280","891","","803","","j","","","<img src=""media/stimuli/inanimate_008_left.png"" class=""coveredImage test"" style = ""width:100px; height:100px; position:fixed; top:10%;    transform: translate(-50%, -50%);left:48%""></img><img src=""media/stimuli/inanimate_002_left.png"" class=""coveredImage test"" style = ""width:100px; height:100px;position:fixed; top:25%;        transform: translate(-50%, -50%);left:38%""></img><img src=""media/stimuli/inanimate_008_left.png"" class=""coveredImage test"" style = ""width:100px; height:100px;position:fixed; top:25%;        transform: translate(-50%, -50%);left:54.5%""></img><img src=""media/stimuli/inanimate_008_left.png"" class=""coveredImage test"" style = ""width:100px; height:100px;position:fixed; top:25%;        transform: translate(-50%, -50%);left:61.5%""></img><img src=""media/f.png""style = ""width:30px x; height:30px;position:fixed; top:43%;    transform: translate(-50%, -50%);left:40%""></img><img src=""media/j.png""style = ""width:30px; height:30px;position:fixed; top:43%;    transform: translate(-50%, -50%);left:60%""></img>","media/stimuli/inanimate_008_left.png","inanimate","left","single","media/stimuli/inanimate_002_left.png","inanimate","left","single","media/stimuli/inanimate_008_left.png","inanimate","left","pair","identity_number","","","",""
"","","","","","html-keyboard-response","70","135885","0.0-70.0","SS1678233163868","5e28e8730fd86a0a19e084cd","6406d7f26dd5b7fc1e3377bd","6407ce477202a50c26f19b50","1280","891","","733","","j","","","<img src=""media/stimuli/inanimate_006_left.png"" class=""coveredImage test"" style = ""width:100px; height:100px; position:fixed; top:10%;    transform: translate(-50%, -50%);left:48%""></img><img src=""media/stimuli/animate_010_left.png"" class=""coveredImage test"" style = ""width:100px; height:100px;position:fixed; top:25%;        transform: translate(-50%, -50%);left:38%""></img><img src=""media/stimuli/inanimate_006_right.png"" class=""coveredImage test"" style = ""width:100px; height:100px;position:fixed; top:25%;        transform: translate(-50%, -50%);left:58%""></img><img src=""media/f.png""style = ""width:30px x; height:30px;position:fixed; top:43%;    transform: translate(-50%, -50%);left:40%""></img><img src=""media/j.png""style = ""width:30px; height:30px;position:fixed; top:43%;    transform: translate(-50%, -50%);left:60%""></img>","media/stimuli/inanimate_006_left.png","inanimate","left","single","media/stimuli/animate_010_left.png","animate","left","single","media/stimuli/inanimate_006_right.png","inanimate","right","single","animacy_pose","","","",""
"","","","","","html-keyboard-response","71","136556","0.0-71.0","SS1678233163868","5e28e8730fd86a0a19e084cd","6406d7f26dd5b7fc1e3377bd","6407ce477202a50c26f19b50","1280","891","","663","","j","","","<img src=""media/stimuli/inanimate_003_right.png"" class=""coveredImage test"" style = ""width:100px; height:100px; position:fixed; top:10%;    transform: translate(-50%, -50%);left:48%""></img><img src=""media/stimuli/inanimate_003_left.png"" class=""coveredImage test"" style = ""width:100px; height:100px;position:fixed; top:25%;        transform: translate(-50%, -50%);left:38%""></img><img src=""media/stimuli/inanimate_003_right.png"" class=""coveredImage test"" style = ""width:100px; height:100px;position:fixed; top:25%;        transform: translate(-50%, -50%);left:54.5%""></img><img src=""media/stimuli/inanimate_003_right.png"" class=""coveredImage test"" style = ""width:100px; height:100px;position:fixed; top:25%;        transform: translate(-50%, -50%);left:61.5%""></img><img src=""media/f.png""style = ""width:30px x; height:30px;position:fixed; top:43%;    transform: translate(-50%, -50%);left:40%""></img><img src=""media/j.png""style = ""width:30px; height:30px;position:fixed; top:43%;    transform: translate(-50%, -50%);left:60%""></img>","media/stimuli/inanimate_003_right.png","inanimate","right","single","media/stimuli/inanimate_003_left.png","inanimate","left","single","media/stimuli/inanimate_003_right.png","inanimate","right","pair","pose_number","","","",""
"","","","","","html-keyboard-response","72","137628","0.0-72.0","SS1678233163868","5e28e8730fd86a0a19e084cd","6406d7f26dd5b7fc1e3377bd","6407ce477202a50c26f19b50","1280","891","","1056",""," ","","","","","","","","","","","","","","","","","","","",""
"","","","","","survey-likert","73","141436","0.0-73.0","SS1678233163868","5e28e8730fd86a0a19e084cd","6406d7f26dd5b7fc1e3377bd","6407ce477202a50c26f19b50","1280","891","","3801","","{""Q0"":1}","[0]","complexity","","","","","","","","","","","","","","","media/stimuli/animate_012_left.png","animate","pair","left"
"","","","","","survey-likert","74","143908","0.0-74.0","SS1678233163868","5e28e8730fd86a0a19e084cd","6406d7f26dd5b7fc1e3377bd","6407ce477202a50c26f19b50","1280","891","","2466","","{""Q0"":1}","[0]","complexity","","","","","","","","","","","","","","","media/stimuli/inanimate_009_right.png","inanimate","pair","right"
"","","","","","survey-likert","75","145370","0.0-75.0","SS1678233163868","5e28e8730fd86a0a19e084cd","6406d7f26dd5b7fc1e3377bd","6407ce477202a50c26f19b50","1280","891","","1458","","{""Q0"":1}","[0]","complexity","","","","","","","","","","","","","","","media/stimuli/animate_005_right.png","animate","pair","right"
"","","","","","survey-likert","76","147219","0.0-76.0","SS1678233163868","5e28e8730fd86a0a19e084cd","6406d7f26dd5b7fc1e3377bd","6407ce477202a50c26f19b50","1280","891","","1845","","{""Q0"":1}","[0]","complexity","","","","","","","","","","","","","","","media/stimuli/animate_009_right.png","animate","pair","right"
"","","","","","survey-likert","77","148748","0.0-77.0","SS1678233163868","5e28e8730fd86a0a19e084cd","6406d7f26dd5b7fc1e3377bd","6407ce477202a50c26f19b50","1280","891","","1523","","{""Q0"":1}","[0]","complexity","","","","","","","","","","","","","","","media/stimuli/inanimate_002_left.png","inanimate","single","left"
"","","","","","survey-likert","78","150483","0.0-78.0","SS1678233163868","5e28e8730fd86a0a19e084cd","6406d7f26dd5b7fc1e3377bd","6407ce477202a50c26f19b50","1280","891","","1732","","{""Q0"":1}","[0]","complexity","","","","","","","","","","","","","","","media/stimuli/animate_006_right.png","animate","pair","right"
"","","","","","survey-likert","79","151771","0.0-79.0","SS1678233163868","5e28e8730fd86a0a19e084cd","6406d7f26dd5b7fc1e3377bd","6407ce477202a50c26f19b50","1280","891","","1283","","{""Q0"":1}","[0]","complexity","","","","","","","","","","","","","","","media/stimuli/inanimate_008_left.png","inanimate","single","left"
"","","","","","survey-likert","80","153395","0.0-80.0","SS1678233163868","5e28e8730fd86a0a19e084cd","6406d7f26dd5b7fc1e3377bd","6407ce477202a50c26f19b50","1280","891","","1619","","{""Q0"":1}","[0]","complexity","","","","","","","","","","","","","","","media/stimuli/inanimate_002_left.png","inanimate","pair","left"
"","","","","","survey-likert","81","154971","0.0-81.0","SS1678233163868","5e28e8730fd86a0a19e084cd","6406d7f26dd5b7fc1e3377bd","6407ce477202a50c26f19b50","1280","891","","1572","","{""Q0"":1}","[0]","complexity","","","","","","","","","","","","","","","media/stimuli/animate_001_right.png","animate","pair","right"
"","","","","","survey-likert","82","157804","0.0-82.0","SS1678233163868","5e28e8730fd86a0a19e084cd","6406d7f26dd5b7fc1e3377bd","6407ce477202a50c26f19b50","1280","891","","2828","","{""Q0"":1}","[0]","complexity","","","","","","","","","","","","","","","media/stimuli/animate_012_right.png","animate","single","right"
"","","","","","survey-likert","83","159596","0.0-83.0","SS1678233163868","5e28e8730fd86a0a19e084cd","6406d7f26dd5b7fc1e3377bd","6407ce477202a50c26f19b50","1280","891","","1788","","{""Q0"":1}","[0]","complexity","","","","","","","","","","","","","","","media/stimuli/animate_001_left.png","animate","pair","left"
"","","","","","survey-likert","84","161236","0.0-84.0","SS1678233163868","5e28e8730fd86a0a19e084cd","6406d7f26dd5b7fc1e3377bd","6407ce477202a50c26f19b50","1280","891","","1637","","{""Q0"":1}","[0]","complexity","","","","","","","","","","","","","","","media/stimuli/animate_011_left.png","animate","single","left"
"","","","","","html-keyboard-response","85","162843","0.0-85.0","SS1678233163868","5e28e8730fd86a0a19e084cd","6406d7f26dd5b7fc1e3377bd","6407ce477202a50c26f19b50","1280","891","","1604",""," ","","","","","","","","","","","","","","","","","","","",""
"","","","","","survey-likert","86","166364","0.0-86.0","SS1678233163868","5e28e8730fd86a0a19e084cd","6406d7f26dd5b7fc1e3377bd","6407ce477202a50c26f19b50","1280","891","","3509","","{""Q0"":1}","[0]","complexity","","","","","","","","","","","","","","","media/stimuli/inanimate_007_right.png","inanimate","single","right"
"","","","","","survey-likert","87","168203","0.0-87.0","SS1678233163868","5e28e8730fd86a0a19e084cd","6406d7f26dd5b7fc1e3377bd","6407ce477202a50c26f19b50","1280","891","","1835","","{""Q0"":1}","[0]","complexity","","","","","","","","","","","","","","","media/stimuli/animate_010_left.png","animate","single","left"
"","","","","","survey-likert","88","169675","0.0-88.0","SS1678233163868","5e28e8730fd86a0a19e084cd","6406d7f26dd5b7fc1e3377bd","6407ce477202a50c26f19b50","1280","891","","1468","","{""Q0"":1}","[0]","complexity","","","","","","","","","","","","","","","media/stimuli/inanimate_003_left.png","inanimate","single","left"
"","","","","","survey-likert","89","170795","0.0-89.0","SS1678233163868","5e28e8730fd86a0a19e084cd","6406d7f26dd5b7fc1e3377bd","6407ce477202a50c26f19b50","1280","891","","1116","","{""Q0"":1}","[0]","complexity","","","","","","","","","","","","","","","media/stimuli/inanimate_007_left.png","inanimate","single","left"
"","","","","","survey-likert","90","172659","0.0-90.0","SS1678233163868","5e28e8730fd86a0a19e084cd","6406d7f26dd5b7fc1e3377bd","6407ce477202a50c26f19b50","1280","891","","1861","","{""Q0"":1}","[0]","complexity","","","","","","","","","","","","","","","media/stimuli/animate_011_right.png","animate","single","right"
"","","","","","survey-likert","91","174283","0.0-91.0","SS1678233163868","5e28e8730fd86a0a19e084cd","6406d7f26dd5b7fc1e3377bd","6407ce477202a50c26f19b50","1280","891","","1619","","{""Q0"":1}","[0]","complexity","","","","","","","","","","","","","","","media/stimuli/inanimate_009_left.png","inanimate","pair","left"
"","","","","","survey-likert","92","175539","0.0-92.0","SS1678233163868","5e28e8730fd86a0a19e084cd","6406d7f26dd5b7fc1e3377bd","6407ce477202a50c26f19b50","1280","891","","1253","","{""Q0"":1}","[0]","complexity","","","","","","","","","","","","","","","media/stimuli/inanimate_012_left.png","inanimate","single","left"
"","","","","","survey-likert","93","177067","0.0-93.0","SS1678233163868","5e28e8730fd86a0a19e084cd","6406d7f26dd5b7fc1e3377bd","6407ce477202a50c26f19b50","1280","891","","1523","","{""Q0"":1}","[0]","complexity","","","","","","","","","","","","","","","media/stimuli/animate_010_left.png","animate","pair","left"
"","","","","","survey-likert","94","178835","0.0-94.0","SS1678233163868","5e28e8730fd86a0a19e084cd","6406d7f26dd5b7fc1e3377bd","6407ce477202a50c26f19b50","1280","891","","1765","","{""Q0"":1}","[0]","complexity","","","","","","","","","","","","","","","media/stimuli/inanimate_005_right.png","inanimate","single","right"
"","","","","","survey-likert","95","180483","0.0-95.0","SS1678233163868","5e28e8730fd86a0a19e084cd","6406d7f26dd5b7fc1e3377bd","6407ce477202a50c26f19b50","1280","891","","1644","","{""Q0"":1}","[0]","complexity","","","","","","","","","","","","","","","media/stimuli/inanimate_004_right.png","inanimate","single","right"
"","","","","","survey-likert","96","181859","0.0-96.0","SS1678233163868","5e28e8730fd86a0a19e084cd","6406d7f26dd5b7fc1e3377bd","6407ce477202a50c26f19b50","1280","891","","1372","","{""Q0"":1}","[0]","complexity","","","","","","","","","","","","","","","media/stimuli/animate_001_right.png","animate","single","right"
"","","","","","survey-likert","97","183155","0.0-97.0","SS1678233163868","5e28e8730fd86a0a19e084cd","6406d7f26dd5b7fc1e3377bd","6407ce477202a50c26f19b50","1280","891","","1292","","{""Q0"":1}","[0]","complexity","","","","","","","","","","","","","","","media/stimuli/inanimate_010_left.png","inanimate","single","left"
"","","","","","html-keyboard-response","98","184132","0.0-98.0","SS1678233163868","5e28e8730fd86a0a19e084cd","6406d7f26dd5b7fc1e3377bd","6407ce477202a50c26f19b50","1280","891","","973",""," ","","","","","","","","","","","","","","","","","","","",""
"","","","","","html-keyboard-response","99","185756","0.0-99.0","SS1678233163868","5e28e8730fd86a0a19e084cd","6406d7f26dd5b7fc1e3377bd","6407ce477202a50c26f19b50","1280","891","","1618","","f","","","<img src=""media/stimuli/inanimate_006_right.png"" class=""coveredImage test"" style = ""width:100px; height:100px; position:fixed; top:10%;    transform: translate(-50%, -50%);left:44.5%""></img><img src=""media/stimuli/inanimate_006_right.png"" class=""coveredImage test"" style = ""width:100px; height:100px; position:fixed; top:10%;    transform: translate(-50%, -50%);left:51.5%""></img><img src=""media/stimuli/inanimate_011_right.png"" class=""coveredImage test"" style = ""width:100px; height:100px;position:fixed; top:25%;        transform: translate(-50%, -50%);left:34.5%""></img><img src=""media/stimuli/inanimate_011_right.png"" class=""coveredImage test"" style = ""width:100px; height:100px;position:fixed; top:25%;        transform: translate(-50%, -50%);left:41.5%""></img><img src=""media/stimuli/animate_009_right.png"" class=""coveredImage test"" style = ""width:100px; height:100px;position:fixed; top:25%;        transform: translate(-50%, -50%);left:54.5%""></img><img src=""media/stimuli/animate_009_right.png"" class=""coveredImage test"" style = ""width:100px; height:100px;position:fixed; top:25%;        transform: translate(-50%, -50%);left:61.5%""></img><img src=""media/f.png""style = ""width:30px x; height:30px;position:fixed; top:43%;    transform: translate(-50%, -50%);left:40%""></img><img src=""media/j.png""style = ""width:30px; height:30px;position:fixed; top:43%;    transform: translate(-50%, -50%);left:60%""></img>","media/stimuli/inanimate_006_right.png","inanimate","right","pair","media/stimuli/inanimate_011_right.png","inanimate","right","pair","media/stimuli/animate_009_right.png","animate","right","pair","identity_animacy","","","",""
"","","","","","html-keyboard-response","100","186515","0.0-100.0","SS1678233163868","5e28e8730fd86a0a19e084cd","6406d7f26dd5b7fc1e3377bd","6407ce477202a50c26f19b50","1280","891","","750","","j","","","<img src=""media/stimuli/inanimate_003_left.png"" class=""coveredImage test"" style = ""width:100px; height:100px; position:fixed; top:10%;    transform: translate(-50%, -50%);left:44.5%""></img><img src=""media/stimuli/inanimate_003_left.png"" class=""coveredImage test"" style = ""width:100px; height:100px; position:fixed; top:10%;    transform: translate(-50%, -50%);left:51.5%""></img><img src=""media/stimuli/inanimate_004_left.png"" class=""coveredImage test"" style = ""width:100px; height:100px;position:fixed; top:25%;        transform: translate(-50%, -50%);left:34.5%""></img><img src=""media/stimuli/inanimate_004_left.png"" class=""coveredImage test"" style = ""width:100px; height:100px;position:fixed; top:25%;        transform: translate(-50%, -50%);left:41.5%""></img><img src=""media/stimuli/inanimate_003_right.png"" class=""coveredImage test"" style = ""width:100px; height:100px;position:fixed; top:25%;        transform: translate(-50%, -50%);left:54.5%""></img><img src=""media/stimuli/inanimate_003_right.png"" class=""coveredImage test"" style = ""width:100px; height:100px;position:fixed; top:25%;        transform: translate(-50%, -50%);left:61.5%""></img><img src=""media/f.png""style = ""width:30px x; height:30px;position:fixed; top:43%;    transform: translate(-50%, -50%);left:40%""></img><img src=""media/j.png""style = ""width:30px; height:30px;position:fixed; top:43%;    transform: translate(-50%, -50%);left:60%""></img>","media/stimuli/inanimate_003_left.png","inanimate","left","pair","media/stimuli/inanimate_004_left.png","inanimate","left","pair","media/stimuli/inanimate_003_right.png","inanimate","right","pair","identity_pose","","","",""
"","","","","","html-keyboard-response","101","187740","0.0-101.0","SS1678233163868","5e28e8730fd86a0a19e084cd","6406d7f26dd5b7fc1e3377bd","6407ce477202a50c26f19b50","1280","891","","1213","","f","","","<img src=""media/stimuli/animate_003_left.png"" class=""coveredImage test"" style = ""width:100px; height:100px; position:fixed; top:10%;    transform: translate(-50%, -50%);left:48%""></img><img src=""media/stimuli/animate_001_left.png"" class=""coveredImage test"" style = ""width:100px; height:100px;position:fixed; top:25%;        transform: translate(-50%, -50%);left:38%""></img><img src=""media/stimuli/inanimate_012_left.png"" class=""coveredImage test"" style = ""width:100px; height:100px;position:fixed; top:25%;        transform: translate(-50%, -50%);left:58%""></img><img src=""media/f.png""style = ""width:30px x; height:30px;position:fixed; top:43%;    transform: translate(-50%, -50%);left:40%""></img><img src=""media/j.png""style = ""width:30px; height:30px;position:fixed; top:43%;    transform: translate(-50%, -50%);left:60%""></img>","media/stimuli/animate_003_left.png","animate","left","single","media/stimuli/animate_001_left.png","animate","left","single","media/stimuli/inanimate_012_left.png","inanimate","left","single","identity_animacy","","","",""
"","","","","","html-keyboard-response","102","188435","0.0-102.0","SS1678233163868","5e28e8730fd86a0a19e084cd","6406d7f26dd5b7fc1e3377bd","6407ce477202a50c26f19b50","1280","891","","687","","j","","","<img src=""media/stimuli/animate_006_right.png"" class=""coveredImage test"" style = ""width:100px; height:100px; position:fixed; top:10%;    transform: translate(-50%, -50%);left:48%""></img><img src=""media/stimuli/inanimate_010_right.png"" class=""coveredImage test"" style = ""width:100px; height:100px;position:fixed; top:25%;        transform: translate(-50%, -50%);left:38%""></img><img src=""media/stimuli/animate_009_right.png"" class=""coveredImage test"" style = ""width:100px; height:100px;position:fixed; top:25%;        transform: translate(-50%, -50%);left:58%""></img><img src=""media/f.png""style = ""width:30px x; height:30px;position:fixed; top:43%;    transform: translate(-50%, -50%);left:40%""></img><img src=""media/j.png""style = ""width:30px; height:30px;position:fixed; top:43%;    transform: translate(-50%, -50%);left:60%""></img>","media/stimuli/animate_006_right.png","animate","right","single","media/stimuli/inanimate_010_right.png","inanimate","right","single","media/stimuli/animate_009_right.png","animate","right","single","animacy_identity","","","",""
"","","","","","html-keyboard-response","103","189178","0.0-103.0","SS1678233163868","5e28e8730fd86a0a19e084cd","6406d7f26dd5b7fc1e3377bd","6407ce477202a50c26f19b50","1280","891","","731","","f","","","<img src=""media/stimuli/inanimate_004_right.png"" class=""coveredImage test"" style = ""width:100px; height:100px; position:fixed; top:10%;    transform: translate(-50%, -50%);left:44.5%""></img><img src=""media/stimuli/inanimate_004_right.png"" class=""coveredImage test"" style = ""width:100px; height:100px; position:fixed; top:10%;    transform: translate(-50%, -50%);left:51.5%""></img><img src=""media/stimuli/inanimate_004_left.png"" class=""coveredImage test"" style = ""width:100px; height:100px;position:fixed; top:25%;        transform: translate(-50%, -50%);left:34.5%""></img><img src=""media/stimuli/inanimate_004_left.png"" class=""coveredImage test"" style = ""width:100px; height:100px;position:fixed; top:25%;        transform: translate(-50%, -50%);left:41.5%""></img><img src=""media/stimuli/inanimate_004_right.png"" class=""coveredImage test"" style = ""width:100px; height:100px;position:fixed; top:25%;        transform: translate(-50%, -50%);left:58%""></img><img src=""media/f.png""style = ""width:30px x; height:30px;position:fixed; top:43%;    transform: translate(-50%, -50%);left:40%""></img><img src=""media/j.png""style = ""width:30px; height:30px;position:fixed; top:43%;    transform: translate(-50%, -50%);left:60%""></img>","media/stimuli/inanimate_004_right.png","inanimate","right","pair","media/stimuli/inanimate_004_left.png","inanimate","left","pair","media/stimuli/inanimate_004_right.png","inanimate","right","single","pose_number","","","",""
"","","","","","html-keyboard-response","104","190478","0.0-104.0","SS1678233163868","5e28e8730fd86a0a19e084cd","6406d7f26dd5b7fc1e3377bd","6407ce477202a50c26f19b50","1280","891","","1296","","j","","","<img src=""media/stimuli/inanimate_005_right.png"" class=""coveredImage test"" style = ""width:100px; height:100px; position:fixed; top:10%;    transform: translate(-50%, -50%);left:48%""></img><img src=""media/stimuli/animate_001_left.png"" class=""coveredImage test"" style = ""width:100px; height:100px;position:fixed; top:25%;        transform: translate(-50%, -50%);left:34.5%""></img><img src=""media/stimuli/animate_001_left.png"" class=""coveredImage test"" style = ""width:100px; height:100px;position:fixed; top:25%;        transform: translate(-50%, -50%);left:41.5%""></img><img src=""media/stimuli/inanimate_005_right.png"" class=""coveredImage test"" style = ""width:100px; height:100px;position:fixed; top:25%;        transform: translate(-50%, -50%);left:54.5%""></img><img src=""media/stimuli/inanimate_005_right.png"" class=""coveredImage test"" style = ""width:100px; height:100px;position:fixed; top:25%;        transform: translate(-50%, -50%);left:61.5%""></img><img src=""media/f.png""style = ""width:30px x; height:30px;position:fixed; top:43%;    transform: translate(-50%, -50%);left:40%""></img><img src=""media/j.png""style = ""width:30px; height:30px;position:fixed; top:43%;    transform: translate(-50%, -50%);left:60%""></img>","media/stimuli/inanimate_005_right.png","inanimate","right","single","media/stimuli/animate_001_left.png","animate","left","pair","media/stimuli/inanimate_005_right.png","inanimate","right","pair","animacy_pose","","","",""
