"success","trial_type","trial_index","time_elapsed","internal_node_id","subject","rt","responses","stimulus","key_press","view_history","stimulus_type","trial_stimulus","minimum_viewing_duration","trial_looking_time","condition_num","block_number","block_type","stimulus_displayed","position_displayed"
"true","fullscreen","0","2285","0.0-0.0","SS1619967801296","","","","","","","","","","","","","",""
"","survey-text","1","33741","0.0-1.0","SS1619967801296","31452.304999998887","{""Age"":""267"",""Gender"":""F""}","","","","","","","","","","","",""
"","audio-keyboard-response","2","53583","0.0-2.0","SS1619967801296","19838.470000002417","","stimuli/audio/music_intro.wav","40","","","","","","","","","",""
"","html-keyboard-response","3","56055","0.0-3.0","SS1619967801296","2470.965000000433","","<p><img src=stimuli/intro/intro2.jpeg width ='900' height = '500'></p>","40","","","","","","","","","",""
"","html-keyboard-response","4","144640","0.0-4.0","SS1619967801296","88584.65999999316","","<p><img src=stimuli/intro/intro3.jpeg width ='900' height = '500'></p>","40","","","","","","","","","",""
"","html-keyboard-response","5","178072","0.0-5.0","SS1619967801296","33430.64000000595","","<p><img src=stimuli/intro/intro4.jpeg width ='900' height = '500'></p>","40","","","","","","","","","",""
"","html-keyboard-response","6","190286","0.0-6.0","SS1619967801296","12214.04999999504","","<p><img src=stimuli/intro/intro5.jpeg width ='900' height = '500'></p>","40","","","","","","","","","",""
"","html-keyboard-response","7","205431","0.0-7.0","SS1619967801296","15144.269999989774","","<p><img src=stimuli/intro/intro6.jpeg width ='900' height = '500'></p>","40","","","","","","","","","",""
"","html-keyboard-response","8","224263","0.0-8.0","SS1619967801296","18830.48499999859","","<p><img src=stimuli/intro/intro7.jpeg width ='900' height = '500'></p>","40","","","","","","","","","",""
"","html-keyboard-response","9","240578","0.0-9.0","SS1619967801296","16314.729999998235","","<p><img src=stimuli/intro/intro8.jpeg width ='900' height = '500'></p>","40","","","","","","","","","",""
"","html-keyboard-response","10","241860","0.0-10.0","SS1619967801296","1280.1499999914085","","<p><img src=stimuli/intro/intro9.jpeg width ='900' height = '500'></p>","40","","","","","","","","","",""
"","instructions","11","353556","0.0-11.0","SS1619967801296","111696.38999999734","","","","[{""page_index"":0,""viewing_time"":111696.16000000678}]","","","","","","","","",""
"","video-keyboard-response","12","358217","0.0-12.0","SS1619967801296","null","","[""stimuli/images/attngetter_quiet.mp4""]","null","","attention_getter","","","","","","","",""
"","html-keyboard-response","13","360395","0.0-13.0-0.0","SS1619967801296","null","","<p><img src=stimuli/images/blank_fam.png width =""200"" height = ""200"" style=""position:absolute;left:85%""></p><p><img src= stimuli/images/blank.png width =""650"" height = ""650"" style=""border:5px solid black""></p>","null","","","","","","","","","",""
"","sequential-stimulus-presentation","14","366403","0.0-13.0-1.0","SS1619967801296","null","","","null","","trial","","1000","1000","4","0","Std","stimuli/images/spore_stims/simple_04_A.gif","right"
"","html-keyboard-response","15","368118","0.0-13.0-0.1","SS1619967801296","null","","<p><img src=stimuli/images/blank_fam.png width =""200"" height = ""200"" style=""position:absolute;left:85%""></p><p><img src= stimuli/images/blank.png width =""650"" height = ""650"" style=""border:5px solid black""></p>","null","","","","","","","","","",""
"","sequential-stimulus-presentation","16","374125","0.0-13.0-1.1","SS1619967801296","null","","","null","","trial","","1000","1000","4","0","Std","stimuli/images/spore_stims/simple_04_A.gif","right"
"","html-keyboard-response","17","375575","0.0-13.0-0.2","SS1619967801296","null","","<p><img src=stimuli/images/blank_fam.png width =""200"" height = ""200"" style=""position:absolute;left:85%""></p><p><img src= stimuli/images/blank.png width =""650"" height = ""650"" style=""border:5px solid black""></p>","null","","","","","","","","","",""
"","sequential-stimulus-presentation","18","381579","0.0-13.0-1.2","SS1619967801296","null","","","null","","trial","","1000","1000","4","0","Std","stimuli/images/spore_stims/simple_04_A.gif","right"
"","html-keyboard-response","19","383581","0.0-13.0-0.3","SS1619967801296","null","","<p><img src=stimuli/images/blank_fam.png width =""200"" height = ""200"" style=""position:absolute;left:85%""></p><p><img src= stimuli/images/blank.png width =""650"" height = ""650"" style=""border:5px solid black""></p>","null","","","","","","","","","",""
"","sequential-stimulus-presentation","20","389585","0.0-13.0-1.3","SS1619967801296","null","","","null","","trial","","1000","1000","4","0","Std","stimuli/images/spore_stims/simple_04_A.gif","right"
"","html-keyboard-response","21","391058","0.0-13.0-0.4","SS1619967801296","null","","<p><img src=stimuli/images/blank_fam.png width =""200"" height = ""200"" style=""position:absolute;left:85%""></p><p><img src= stimuli/images/blank.png width =""650"" height = ""650"" style=""border:5px solid black""></p>","null","","","","","","","","","",""
"","sequential-stimulus-presentation","22","397064","0.0-13.0-1.4","SS1619967801296","null","","","null","","trial","","1000","1000","4","0","Std","stimuli/images/spore_stims/simple_04_A.gif","right"
"","html-keyboard-response","23","397671","0.0-13.0-0.5","SS1619967801296","null","","<p><img src=stimuli/images/blank_fam.png width =""200"" height = ""200"" style=""position:absolute;left:85%""></p><p><img src= stimuli/images/blank.png width =""650"" height = ""650"" style=""border:5px solid black""></p>","null","","","","","","","","","",""
"","sequential-stimulus-presentation","24","403679","0.0-13.0-1.5","SS1619967801296","null","","","null","","trial","","1000","1000","4","0","Std","stimuli/images/spore_stims/simple_04_A.gif","right"
"","html-keyboard-response","25","404208","0.0-13.0-0.6","SS1619967801296","null","","<p><img src=stimuli/images/blank_fam.png width =""200"" height = ""200"" style=""position:absolute;left:85%""></p><p><img src= stimuli/images/blank.png width =""650"" height = ""650"" style=""border:5px solid black""></p>","null","","","","","","","","","",""
"","sequential-stimulus-presentation","26","410210","0.0-13.0-1.6","SS1619967801296","null","","","null","","trial","","1000","1000","4","0","Std","stimuli/images/spore_stims/simple_04_A.gif","right"
"","html-keyboard-response","27","411372","0.0-13.0-0.7","SS1619967801296","null","","<p><img src=stimuli/images/blank_test.png width =""200"" height = ""200"" style=""position:absolute;left:85%""></p><p><img src= stimuli/images/blank.png width =""650"" height = ""650"" style=""border:5px solid black""></p>","null","","","","","","","","","",""
"","sequential-stimulus-presentation","28","423835","0.0-13.0-1.7","SS1619967801296","62435.93000000692","","","40","","trial","","1000","63435.93000000692","4","0","Std","stimuli/images/spore_stims/simple_04_A.gif","right"
"","html-keyboard-response","29","424980","0.0-14.0","SS1619967801296","1143.725000001723","","<p><img src=""stimuli/images/attngetter_blank.png"" width =""640"" height = ""490"" ></p>","40","","between_block","","","","","","","",""
"","video-keyboard-response","30","429602","0.0-15.0","SS1619967801296","null","","[""stimuli/images/attngetter_quiet.mp4""]","null","","attention_getter","","","","","","","",""
"","html-keyboard-response","31","431153","0.0-16.0-0.0","SS1619967801296","null","","<p><img src=stimuli/images/blank_fam.png width =""200"" height = ""200"" style=""position:absolute;left:85%""></p><p><img src= stimuli/images/blank.png width =""650"" height = ""650"" style=""border:5px solid black""></p>","null","","","","","","","","","",""
"","sequential-stimulus-presentation","32","437158","0.0-16.0-1.0","SS1619967801296","null","","","null","","trial","","1000","1000","4","1","Dev","stimuli/images/spore_stims/simple_09_A.gif","left"
"","html-keyboard-response","33","437940","0.0-16.0-0.1","SS1619967801296","null","","<p><img src=stimuli/images/blank_fam.png width =""200"" height = ""200"" style=""position:absolute;left:85%""></p><p><img src= stimuli/images/blank.png width =""650"" height = ""650"" style=""border:5px solid black""></p>","null","","","","","","","","","",""
"","sequential-stimulus-presentation","34","443944","0.0-16.0-1.1","SS1619967801296","null","","","null","","trial","","1000","1000","4","1","Dev","stimuli/images/spore_stims/simple_09_A.gif","left"
"","html-keyboard-response","35","444838","0.0-16.0-0.2","SS1619967801296","null","","<p><img src=stimuli/images/blank_fam.png width =""200"" height = ""200"" style=""position:absolute;left:85%""></p><p><img src= stimuli/images/blank.png width =""650"" height = ""650"" style=""border:5px solid black""></p>","null","","","","","","","","","",""
"","sequential-stimulus-presentation","36","450845","0.0-16.0-1.2","SS1619967801296","null","","","null","","trial","","1000","1000","4","1","Dev","stimuli/images/spore_stims/simple_09_A.gif","left"
"","html-keyboard-response","37","451745","0.0-16.0-0.3","SS1619967801296","null","","<p><img src=stimuli/images/blank_test.png width =""200"" height = ""200"" style=""position:absolute;left:85%""></p><p><img src= stimuli/images/blank.png width =""650"" height = ""650"" style=""border:5px solid black""></p>","null","","","","","","","","","",""
"","sequential-stimulus-presentation","38","462759","0.0-16.0-1.3","SS1619967801296","30602.935000002617","","","40","","trial","","1000","31602.935000002617","4","1","Dev","stimuli/images/spore_stims/simple_10_A.gif","right"
"","html-keyboard-response","39","464513","0.0-17.0","SS1619967801296","1752.8449999954319","","<p><img src=""stimuli/images/attngetter_blank.png"" width =""640"" height = ""490"" ></p>","40","","between_block","","","","","","","",""
"","video-keyboard-response","40","469141","0.0-18.0","SS1619967801296","null","","[""stimuli/images/attngetter_quiet.mp4""]","null","","attention_getter","","","","","","","",""
"","html-keyboard-response","41","470761","0.0-19.0-0.0","SS1619967801296","null","","<p><img src=stimuli/images/blank_fam.png width =""200"" height = ""200"" style=""position:absolute;left:85%""></p><p><img src= stimuli/images/blank.png width =""650"" height = ""650"" style=""border:5px solid black""></p>","null","","","","","","","","","",""
"","sequential-stimulus-presentation","42","476769","0.0-19.0-1.0","SS1619967801296","null","","","null","","trial","","1000","1000","4","2","Std","stimuli/images/spore_stims/simple_08_A.gif","right"
"","html-keyboard-response","43","478075","0.0-19.0-0.1","SS1619967801296","null","","<p><img src=stimuli/images/blank_fam.png width =""200"" height = ""200"" style=""position:absolute;left:85%""></p><p><img src= stimuli/images/blank.png width =""650"" height = ""650"" style=""border:5px solid black""></p>","null","","","","","","","","","",""
"","sequential-stimulus-presentation","44","484080","0.0-19.0-1.1","SS1619967801296","null","","","null","","trial","","1000","1000","4","2","Std","stimuli/images/spore_stims/simple_08_A.gif","right"
"","html-keyboard-response","45","485277","0.0-19.0-0.2","SS1619967801296","null","","<p><img src=stimuli/images/blank_fam.png width =""200"" height = ""200"" style=""position:absolute;left:85%""></p><p><img src= stimuli/images/blank.png width =""650"" height = ""650"" style=""border:5px solid black""></p>","null","","","","","","","","","",""
"","sequential-stimulus-presentation","46","491283","0.0-19.0-1.2","SS1619967801296","null","","","null","","trial","","1000","1000","4","2","Std","stimuli/images/spore_stims/simple_08_A.gif","right"
"","html-keyboard-response","47","492869","0.0-19.0-0.3","SS1619967801296","null","","<p><img src=stimuli/images/blank_test.png width =""200"" height = ""200"" style=""position:absolute;left:85%""></p><p><img src= stimuli/images/blank.png width =""650"" height = ""650"" style=""border:5px solid black""></p>","null","","","","","","","","","",""
"","sequential-stimulus-presentation","48","505169","0.0-19.0-1.3","SS1619967801296","33402.79500000179","","","40","","trial","","1000","34402.79500000179","4","2","Std","stimuli/images/spore_stims/simple_08_A.gif","right"
"","html-keyboard-response","49","521188","0.0-20.0","SS1619967801296","16017.955000002985","","<p><img src=""stimuli/images/attngetter_blank.png"" width =""640"" height = ""490"" ></p>","40","","between_block","","","","","","","",""
"","video-keyboard-response","50","525849","0.0-21.0","SS1619967801296","null","","[""stimuli/images/attngetter_quiet.mp4""]","null","","attention_getter","","","","","","","",""
"","html-keyboard-response","51","528097","0.0-22.0-0.0","SS1619967801296","null","","<p><img src=stimuli/images/blank_fam.png width =""200"" height = ""200"" style=""position:absolute;left:85%""></p><p><img src= stimuli/images/blank.png width =""650"" height = ""650"" style=""border:5px solid black""></p>","null","","","","","","","","","",""
"","sequential-stimulus-presentation","52","534104","0.0-22.0-1.0","SS1619967801296","null","","","null","","trial","","1000","1000","4","3","Dev","stimuli/images/spore_stims/simple_06_A.gif","left"
"","html-keyboard-response","53","535081","0.0-22.0-0.1","SS1619967801296","null","","<p><img src=stimuli/images/blank_fam.png width =""200"" height = ""200"" style=""position:absolute;left:85%""></p><p><img src= stimuli/images/blank.png width =""650"" height = ""650"" style=""border:5px solid black""></p>","null","","","","","","","","","",""
"","sequential-stimulus-presentation","54","541088","0.0-22.0-1.1","SS1619967801296","null","","","null","","trial","","1000","1000","4","3","Dev","stimuli/images/spore_stims/simple_06_A.gif","left"
"","html-keyboard-response","55","542840","0.0-22.0-0.2","SS1619967801296","null","","<p><img src=stimuli/images/blank_fam.png width =""200"" height = ""200"" style=""position:absolute;left:85%""></p><p><img src= stimuli/images/blank.png width =""650"" height = ""650"" style=""border:5px solid black""></p>","null","","","","","","","","","",""
"","sequential-stimulus-presentation","56","548846","0.0-22.0-1.2","SS1619967801296","null","","","null","","trial","","1000","1000","4","3","Dev","stimuli/images/spore_stims/simple_06_A.gif","left"
"","html-keyboard-response","57","551130","0.0-22.0-0.3","SS1619967801296","null","","<p><img src=stimuli/images/blank_fam.png width =""200"" height = ""200"" style=""position:absolute;left:85%""></p><p><img src= stimuli/images/blank.png width =""650"" height = ""650"" style=""border:5px solid black""></p>","null","","","","","","","","","",""
"","sequential-stimulus-presentation","58","557136","0.0-22.0-1.3","SS1619967801296","null","","","null","","trial","","1000","1000","4","3","Dev","stimuli/images/spore_stims/simple_06_A.gif","left"
"","html-keyboard-response","59","558088","0.0-22.0-0.4","SS1619967801296","null","","<p><img src=stimuli/images/blank_fam.png width =""200"" height = ""200"" style=""position:absolute;left:85%""></p><p><img src= stimuli/images/blank.png width =""650"" height = ""650"" style=""border:5px solid black""></p>","null","","","","","","","","","",""
"","sequential-stimulus-presentation","60","564093","0.0-22.0-1.4","SS1619967801296","null","","","null","","trial","","1000","1000","4","3","Dev","stimuli/images/spore_stims/simple_06_A.gif","left"
"","html-keyboard-response","61","565088","0.0-22.0-0.5","SS1619967801296","null","","<p><img src=stimuli/images/blank_fam.png width =""200"" height = ""200"" style=""position:absolute;left:85%""></p><p><img src= stimuli/images/blank.png width =""650"" height = ""650"" style=""border:5px solid black""></p>","null","","","","","","","","","",""
"","sequential-stimulus-presentation","62","571095","0.0-22.0-1.5","SS1619967801296","null","","","null","","trial","","1000","1000","4","3","Dev","stimuli/images/spore_stims/simple_06_A.gif","left"
"","html-keyboard-response","63","572995","0.0-22.0-0.6","SS1619967801296","null","","<p><img src=stimuli/images/blank_fam.png width =""200"" height = ""200"" style=""position:absolute;left:85%""></p><p><img src= stimuli/images/blank.png width =""650"" height = ""650"" style=""border:5px solid black""></p>","null","","","","","","","","","",""
"","sequential-stimulus-presentation","64","579003","0.0-22.0-1.6","SS1619967801296","null","","","null","","trial","","1000","1000","4","3","Dev","stimuli/images/spore_stims/simple_06_A.gif","left"
"","html-keyboard-response","65","581073","0.0-22.0-0.7","SS1619967801296","null","","<p><img src=stimuli/images/blank_test.png width =""200"" height = ""200"" style=""position:absolute;left:85%""></p><p><img src= stimuli/images/blank.png width =""650"" height = ""650"" style=""border:5px solid black""></p>","null","","","","","","","","","",""
"","sequential-stimulus-presentation","66","592085","0.0-22.0-1.7","SS1619967801296","62984.0750000003","","","40","","trial","","1000","63984.0750000003","4","3","Dev","stimuli/images/spore_stims/simple_05_A.gif","right"
"","html-keyboard-response","67","593796","0.0-23.0","SS1619967801296","1709.3450000102166","","<p><img src=""stimuli/images/attngetter_blank.png"" width =""640"" height = ""490"" ></p>","40","","between_block","","","","","","","",""
"","video-keyboard-response","68","598439","0.0-24.0","SS1619967801296","null","","[""stimuli/images/attngetter_quiet.mp4""]","null","","attention_getter","","","","","","","",""
"","html-keyboard-response","69","599704","0.0-25.0-0.0","SS1619967801296","null","","<p><img src=stimuli/images/blank_fam.png width =""200"" height = ""200"" style=""position:absolute;left:85%""></p><p><img src= stimuli/images/blank.png width =""650"" height = ""650"" style=""border:5px solid black""></p>","null","","","","","","","","","",""
"","sequential-stimulus-presentation","70","605713","0.0-25.0-1.0","SS1619967801296","null","","","null","","trial","","1000","1000","4","4","Dev","stimuli/images/spore_stims/simple_12_A.gif","left"
"","html-keyboard-response","71","606325","0.0-25.0-0.1","SS1619967801296","null","","<p><img src=stimuli/images/blank_fam.png width =""200"" height = ""200"" style=""position:absolute;left:85%""></p><p><img src= stimuli/images/blank.png width =""650"" height = ""650"" style=""border:5px solid black""></p>","null","","","","","","","","","",""
"","sequential-stimulus-presentation","72","612328","0.0-25.0-1.1","SS1619967801296","null","","","null","","trial","","1000","1000","4","4","Dev","stimuli/images/spore_stims/simple_12_A.gif","left"
"","html-keyboard-response","73","614538","0.0-25.0-0.2","SS1619967801296","null","","<p><img src=stimuli/images/blank_fam.png width =""200"" height = ""200"" style=""position:absolute;left:85%""></p><p><img src= stimuli/images/blank.png width =""650"" height = ""650"" style=""border:5px solid black""></p>","null","","","","","","","","","",""
"","sequential-stimulus-presentation","74","620544","0.0-25.0-1.2","SS1619967801296","null","","","null","","trial","","1000","1000","4","4","Dev","stimuli/images/spore_stims/simple_12_A.gif","left"
"","html-keyboard-response","75","622754","0.0-25.0-0.3","SS1619967801296","null","","<p><img src=stimuli/images/blank_fam.png width =""200"" height = ""200"" style=""position:absolute;left:85%""></p><p><img src= stimuli/images/blank.png width =""650"" height = ""650"" style=""border:5px solid black""></p>","null","","","","","","","","","",""
"","sequential-stimulus-presentation","76","628758","0.0-25.0-1.3","SS1619967801296","null","","","null","","trial","","1000","1000","4","4","Dev","stimuli/images/spore_stims/simple_12_A.gif","left"
"","html-keyboard-response","77","630922","0.0-25.0-0.4","SS1619967801296","null","","<p><img src=stimuli/images/blank_fam.png width =""200"" height = ""200"" style=""position:absolute;left:85%""></p><p><img src= stimuli/images/blank.png width =""650"" height = ""650"" style=""border:5px solid black""></p>","null","","","","","","","","","",""
"","sequential-stimulus-presentation","78","636930","0.0-25.0-1.4","SS1619967801296","null","","","null","","trial","","1000","1000","4","4","Dev","stimuli/images/spore_stims/simple_12_A.gif","left"
"","html-keyboard-response","79","638329","0.0-25.0-0.5","SS1619967801296","null","","<p><img src=stimuli/images/blank_test.png width =""200"" height = ""200"" style=""position:absolute;left:85%""></p><p><img src= stimuli/images/blank.png width =""650"" height = ""650"" style=""border:5px solid black""></p>","null","","","","","","","","","",""
"","sequential-stimulus-presentation","80","661113","0.0-25.0-1.5","SS1619967801296","60404.649999996764","","","40","","trial","","1000","61404.649999996764","4","4","Dev","stimuli/images/spore_stims/simple_11_A.gif","right"
"","html-keyboard-response","81","664578","0.0-26.0","SS1619967801296","3463.5100000014063","","<p><img src=""stimuli/images/attngetter_blank.png"" width =""640"" height = ""490"" ></p>","40","","between_block","","","","","","","",""
"","video-keyboard-response","82","669203","0.0-27.0","SS1619967801296","null","","[""stimuli/images/attngetter_quiet.mp4""]","null","","attention_getter","","","","","","","",""
"","html-keyboard-response","83","670533","0.0-28.0-0.0","SS1619967801296","null","","<p><img src=stimuli/images/blank_fam.png width =""200"" height = ""200"" style=""position:absolute;left:85%""></p><p><img src= stimuli/images/blank.png width =""650"" height = ""650"" style=""border:5px solid black""></p>","null","","","","","","","","","",""
"","sequential-stimulus-presentation","84","676538","0.0-28.0-1.0","SS1619967801296","null","","","null","","trial","","1000","1000","4","5","Std","stimuli/images/spore_stims/simple_01_A.gif","left"
"","html-keyboard-response","85","678364","0.0-28.0-0.1","SS1619967801296","null","","<p><img src=stimuli/images/blank_fam.png width =""200"" height = ""200"" style=""position:absolute;left:85%""></p><p><img src= stimuli/images/blank.png width =""650"" height = ""650"" style=""border:5px solid black""></p>","null","","","","","","","","","",""
"","sequential-stimulus-presentation","86","684371","0.0-28.0-1.1","SS1619967801296","null","","","null","","trial","","1000","1000","4","5","Std","stimuli/images/spore_stims/simple_01_A.gif","left"
"","html-keyboard-response","87","685230","0.0-28.0-0.2","SS1619967801296","null","","<p><img src=stimuli/images/blank_fam.png width =""200"" height = ""200"" style=""position:absolute;left:85%""></p><p><img src= stimuli/images/blank.png width =""650"" height = ""650"" style=""border:5px solid black""></p>","null","","","","","","","","","",""
"","sequential-stimulus-presentation","88","691238","0.0-28.0-1.2","SS1619967801296","null","","","null","","trial","","1000","1000","4","5","Std","stimuli/images/spore_stims/simple_01_A.gif","left"
"","html-keyboard-response","89","693482","0.0-28.0-0.3","SS1619967801296","null","","<p><img src=stimuli/images/blank_fam.png width =""200"" height = ""200"" style=""position:absolute;left:85%""></p><p><img src= stimuli/images/blank.png width =""650"" height = ""650"" style=""border:5px solid black""></p>","null","","","","","","","","","",""
"","sequential-stimulus-presentation","90","699489","0.0-28.0-1.3","SS1619967801296","null","","","null","","trial","","1000","1000","4","5","Std","stimuli/images/spore_stims/simple_01_A.gif","left"
"","html-keyboard-response","91","700442","0.0-28.0-0.4","SS1619967801296","null","","<p><img src=stimuli/images/blank_fam.png width =""200"" height = ""200"" style=""position:absolute;left:85%""></p><p><img src= stimuli/images/blank.png width =""650"" height = ""650"" style=""border:5px solid black""></p>","null","","","","","","","","","",""
"","sequential-stimulus-presentation","92","706449","0.0-28.0-1.4","SS1619967801296","null","","","null","","trial","","1000","1000","4","5","Std","stimuli/images/spore_stims/simple_01_A.gif","left"
"","html-keyboard-response","93","708596","0.0-28.0-0.5","SS1619967801296","null","","<p><img src=stimuli/images/blank_test.png width =""200"" height = ""200"" style=""position:absolute;left:85%""></p><p><img src= stimuli/images/blank.png width =""650"" height = ""650"" style=""border:5px solid black""></p>","null","","","","","","","","","",""
"","sequential-stimulus-presentation","94","752760","0.0-28.0-1.5","SS1619967801296","81223.8900000084","","","40","","trial","","1000","82223.8900000084","4","5","Std","stimuli/images/spore_stims/simple_01_A.gif","left"
"","html-keyboard-response","95","950711","0.0-29.0","SS1619967801296","197951.04499999434","","<p><span style=""font-family: arial, helvetica, sans-serif; font-size: 48px; color: #993300;""> That's it! Thank you so much for your participation! </span></p>","40","","","","","","","","","",""
