"success","trial_type","trial_index","time_elapsed","internal_node_id","subject","rt","responses","stimulus","key_press","view_history","stimulus_type","trial_stimulus","minimum_viewing_duration","trial_looking_time","condition_num","block_number","block_type","stimulus_displayed","position_displayed"
"true","fullscreen","0","2093","0.0-0.0","SS1620154836932","","","","","","","","","","","","","",""
"","survey-text","1","10002","0.0-1.0","SS1620154836932","7905.495000013616","{""Age"":""231"",""Gender"":""F""}","","","","","","","","","","","",""
"","audio-keyboard-response","2","18146","0.0-2.0","SS1620154836932","8141.989999974612","","stimuli/audio/music_intro.wav","40","","","","","","","","","",""
"","html-keyboard-response","3","19853","0.0-3.0","SS1620154836932","1706.7800000077114","","<p><img src=stimuli/intro/intro2.jpeg width ='900' height = '500'></p>","40","","","","","","","","","",""
"","html-keyboard-response","4","86904","0.0-4.0","SS1620154836932","67050.34499999601","","<p><img src=stimuli/intro/intro3.jpeg width ='900' height = '500'></p>","40","","","","","","","","","",""
"","html-keyboard-response","5","183920","0.0-5.0","SS1620154836932","97016.41000001109","","<p><img src=stimuli/intro/intro4.jpeg width ='900' height = '500'></p>","40","","","","","","","","","",""
"","html-keyboard-response","6","194518","0.0-6.0","SS1620154836932","10597.580000001471","","<p><img src=stimuli/intro/intro5.jpeg width ='900' height = '500'></p>","40","","","","","","","","","",""
"","html-keyboard-response","7","206577","0.0-7.0","SS1620154836932","12058.329999999842","","<p><img src=stimuli/intro/intro6.jpeg width ='900' height = '500'></p>","40","","","","","","","","","",""
"","html-keyboard-response","8","274391","0.0-8.0","SS1620154836932","67813.90000000829","","<p><img src=stimuli/intro/intro7.jpeg width ='900' height = '500'></p>","40","","","","","","","","","",""
"","html-keyboard-response","9","288522","0.0-9.0","SS1620154836932","14129.784999997355","","<p><img src=stimuli/intro/intro8.jpeg width ='900' height = '500'></p>","40","","","","","","","","","",""
"","html-keyboard-response","10","289175","0.0-10.0","SS1620154836932","652.6650000014342","","<p><img src=stimuli/intro/intro9.jpeg width ='900' height = '500'></p>","40","","","","","","","","","",""
"","instructions","11","321972","0.0-11.0","SS1620154836932","32796.750000008615","","","","[{""page_index"":0,""viewing_time"":32796.52000000351}]","","","","","","","","",""
"","video-keyboard-response","12","326632","0.0-12.0","SS1620154836932","null","","[""stimuli/images/attngetter_quiet.mp4""]","null","","attention_getter","","","","","","","",""
"","html-keyboard-response","13","327485","0.0-13.0-0.0","SS1620154836932","null","","<p><img src=stimuli/images/blank_fam.png width =""200"" height = ""200"" style=""position:absolute;left:85%""></p><p><img src= stimuli/images/blank.png width =""650"" height = ""650"" style=""border:5px solid black""></p>","null","","","","","","","","","",""
"","sequential-stimulus-presentation","14","333492","0.0-13.0-1.0","SS1620154836932","null","","","null","","trial","","1000","1000","6","0","Std","stimuli/images/spore_stims/simple_01_A.gif","left"
"","html-keyboard-response","15","334456","0.0-13.0-0.1","SS1620154836932","null","","<p><img src=stimuli/images/blank_fam.png width =""200"" height = ""200"" style=""position:absolute;left:85%""></p><p><img src= stimuli/images/blank.png width =""650"" height = ""650"" style=""border:5px solid black""></p>","null","","","","","","","","","",""
"","sequential-stimulus-presentation","16","340458","0.0-13.0-1.1","SS1620154836932","null","","","null","","trial","","1000","1000","6","0","Std","stimuli/images/spore_stims/simple_01_A.gif","left"
"","html-keyboard-response","17","342187","0.0-13.0-0.2","SS1620154836932","null","","<p><img src=stimuli/images/blank_fam.png width =""200"" height = ""200"" style=""position:absolute;left:85%""></p><p><img src= stimuli/images/blank.png width =""650"" height = ""650"" style=""border:5px solid black""></p>","null","","","","","","","","","",""
"","sequential-stimulus-presentation","18","348195","0.0-13.0-1.2","SS1620154836932","null","","","null","","trial","","1000","1000","6","0","Std","stimuli/images/spore_stims/simple_01_A.gif","left"
"","html-keyboard-response","19","350663","0.0-13.0-0.3","SS1620154836932","null","","<p><img src=stimuli/images/blank_test.png width =""200"" height = ""200"" style=""position:absolute;left:85%""></p><p><img src= stimuli/images/blank.png width =""650"" height = ""650"" style=""border:5px solid black""></p>","null","","","","","","","","","",""
"","sequential-stimulus-presentation","20","373794","0.0-13.0-1.3","SS1620154836932","45305.72999999276","","","40","","trial","","1000","46305.72999999276","6","0","Std","stimuli/images/spore_stims/simple_01_A.gif","left"
"","html-keyboard-response","21","375441","0.0-14.0","SS1620154836932","1644.9650000140537","","<p><img src=""stimuli/images/attngetter_blank.png"" width =""640"" height = ""490"" ></p>","40","","between_block","","","","","","","",""
"","video-keyboard-response","22","380077","0.0-15.0","SS1620154836932","null","","[""stimuli/images/attngetter_quiet.mp4""]","null","","attention_getter","","","","","","","",""
"","html-keyboard-response","23","381271","0.0-16.0-0.0","SS1620154836932","null","","<p><img src=stimuli/images/blank_fam.png width =""200"" height = ""200"" style=""position:absolute;left:85%""></p><p><img src= stimuli/images/blank.png width =""650"" height = ""650"" style=""border:5px solid black""></p>","null","","","","","","","","","",""
"","sequential-stimulus-presentation","24","387278","0.0-16.0-1.0","SS1620154836932","null","","","null","","trial","","1000","1000","6","1","Dev","stimuli/images/spore_stims/simple_05_A.gif","right"
"","html-keyboard-response","25","387912","0.0-16.0-0.1","SS1620154836932","null","","<p><img src=stimuli/images/blank_fam.png width =""200"" height = ""200"" style=""position:absolute;left:85%""></p><p><img src= stimuli/images/blank.png width =""650"" height = ""650"" style=""border:5px solid black""></p>","null","","","","","","","","","",""
"","sequential-stimulus-presentation","26","393919","0.0-16.0-1.1","SS1620154836932","null","","","null","","trial","","1000","1000","6","1","Dev","stimuli/images/spore_stims/simple_05_A.gif","right"
"","html-keyboard-response","27","395830","0.0-16.0-0.2","SS1620154836932","null","","<p><img src=stimuli/images/blank_fam.png width =""200"" height = ""200"" style=""position:absolute;left:85%""></p><p><img src= stimuli/images/blank.png width =""650"" height = ""650"" style=""border:5px solid black""></p>","null","","","","","","","","","",""
"","sequential-stimulus-presentation","28","401836","0.0-16.0-1.2","SS1620154836932","null","","","null","","trial","","1000","1000","6","1","Dev","stimuli/images/spore_stims/simple_05_A.gif","right"
"","html-keyboard-response","29","402348","0.0-16.0-0.3","SS1620154836932","null","","<p><img src=stimuli/images/blank_fam.png width =""200"" height = ""200"" style=""position:absolute;left:85%""></p><p><img src= stimuli/images/blank.png width =""650"" height = ""650"" style=""border:5px solid black""></p>","null","","","","","","","","","",""
"","sequential-stimulus-presentation","30","408356","0.0-16.0-1.3","SS1620154836932","null","","","null","","trial","","1000","1000","6","1","Dev","stimuli/images/spore_stims/simple_05_A.gif","right"
"","html-keyboard-response","31","409712","0.0-16.0-0.4","SS1620154836932","null","","<p><img src=stimuli/images/blank_fam.png width =""200"" height = ""200"" style=""position:absolute;left:85%""></p><p><img src= stimuli/images/blank.png width =""650"" height = ""650"" style=""border:5px solid black""></p>","null","","","","","","","","","",""
"","sequential-stimulus-presentation","32","415716","0.0-16.0-1.4","SS1620154836932","null","","","null","","trial","","1000","1000","6","1","Dev","stimuli/images/spore_stims/simple_05_A.gif","right"
"","html-keyboard-response","33","416556","0.0-16.0-0.5","SS1620154836932","null","","<p><img src=stimuli/images/blank_fam.png width =""200"" height = ""200"" style=""position:absolute;left:85%""></p><p><img src= stimuli/images/blank.png width =""650"" height = ""650"" style=""border:5px solid black""></p>","null","","","","","","","","","",""
"","sequential-stimulus-presentation","34","422562","0.0-16.0-1.5","SS1620154836932","null","","","null","","trial","","1000","1000","6","1","Dev","stimuli/images/spore_stims/simple_05_A.gif","right"
"","html-keyboard-response","35","424278","0.0-16.0-0.6","SS1620154836932","null","","<p><img src=stimuli/images/blank_fam.png width =""200"" height = ""200"" style=""position:absolute;left:85%""></p><p><img src= stimuli/images/blank.png width =""650"" height = ""650"" style=""border:5px solid black""></p>","null","","","","","","","","","",""
"","sequential-stimulus-presentation","36","430282","0.0-16.0-1.6","SS1620154836932","null","","","null","","trial","","1000","1000","6","1","Dev","stimuli/images/spore_stims/simple_05_A.gif","right"
"","html-keyboard-response","37","432364","0.0-16.0-0.7","SS1620154836932","null","","<p><img src=stimuli/images/blank_test.png width =""200"" height = ""200"" style=""position:absolute;left:85%""></p><p><img src= stimuli/images/blank.png width =""650"" height = ""650"" style=""border:5px solid black""></p>","null","","","","","","","","","",""
"","sequential-stimulus-presentation","38","442149","0.0-16.0-1.7","SS1620154836932","59874.505000014324","","","40","","trial","","1000","60874.505000014324","6","1","Dev","stimuli/images/spore_stims/simple_06_A.gif","left"
"","html-keyboard-response","39","443567","0.0-17.0","SS1620154836932","1416.880000004312","","<p><img src=""stimuli/images/attngetter_blank.png"" width =""640"" height = ""490"" ></p>","40","","between_block","","","","","","","",""
"","video-keyboard-response","40","448206","0.0-18.0","SS1620154836932","null","","[""stimuli/images/attngetter_quiet.mp4""]","null","","attention_getter","","","","","","","",""
"","html-keyboard-response","41","450504","0.0-19.0-0.0","SS1620154836932","null","","<p><img src=stimuli/images/blank_fam.png width =""200"" height = ""200"" style=""position:absolute;left:85%""></p><p><img src= stimuli/images/blank.png width =""650"" height = ""650"" style=""border:5px solid black""></p>","null","","","","","","","","","",""
"","sequential-stimulus-presentation","42","456511","0.0-19.0-1.0","SS1620154836932","null","","","null","","trial","","1000","1000","6","2","Dev","stimuli/images/spore_stims/simple_11_A.gif","right"
"","html-keyboard-response","43","458662","0.0-19.0-0.1","SS1620154836932","null","","<p><img src=stimuli/images/blank_fam.png width =""200"" height = ""200"" style=""position:absolute;left:85%""></p><p><img src= stimuli/images/blank.png width =""650"" height = ""650"" style=""border:5px solid black""></p>","null","","","","","","","","","",""
"","sequential-stimulus-presentation","44","464670","0.0-19.0-1.1","SS1620154836932","null","","","null","","trial","","1000","1000","6","2","Dev","stimuli/images/spore_stims/simple_11_A.gif","right"
"","html-keyboard-response","45","465229","0.0-19.0-0.2","SS1620154836932","null","","<p><img src=stimuli/images/blank_fam.png width =""200"" height = ""200"" style=""position:absolute;left:85%""></p><p><img src= stimuli/images/blank.png width =""650"" height = ""650"" style=""border:5px solid black""></p>","null","","","","","","","","","",""
"","sequential-stimulus-presentation","46","471234","0.0-19.0-1.2","SS1620154836932","null","","","null","","trial","","1000","1000","6","2","Dev","stimuli/images/spore_stims/simple_11_A.gif","right"
"","html-keyboard-response","47","473692","0.0-19.0-0.3","SS1620154836932","null","","<p><img src=stimuli/images/blank_fam.png width =""200"" height = ""200"" style=""position:absolute;left:85%""></p><p><img src= stimuli/images/blank.png width =""650"" height = ""650"" style=""border:5px solid black""></p>","null","","","","","","","","","",""
"","sequential-stimulus-presentation","48","479697","0.0-19.0-1.3","SS1620154836932","null","","","null","","trial","","1000","1000","6","2","Dev","stimuli/images/spore_stims/simple_11_A.gif","right"
"","html-keyboard-response","49","481878","0.0-19.0-0.4","SS1620154836932","null","","<p><img src=stimuli/images/blank_fam.png width =""200"" height = ""200"" style=""position:absolute;left:85%""></p><p><img src= stimuli/images/blank.png width =""650"" height = ""650"" style=""border:5px solid black""></p>","null","","","","","","","","","",""
"","sequential-stimulus-presentation","50","487884","0.0-19.0-1.4","SS1620154836932","null","","","null","","trial","","1000","1000","6","2","Dev","stimuli/images/spore_stims/simple_11_A.gif","right"
"","html-keyboard-response","51","488961","0.0-19.0-0.5","SS1620154836932","null","","<p><img src=stimuli/images/blank_test.png width =""200"" height = ""200"" style=""position:absolute;left:85%""></p><p><img src= stimuli/images/blank.png width =""650"" height = ""650"" style=""border:5px solid black""></p>","null","","","","","","","","","",""
"","sequential-stimulus-presentation","52","496282","0.0-19.0-1.5","SS1620154836932","44776.714999985415","","","40","","trial","","1000","45776.714999985415","6","2","Dev","stimuli/images/spore_stims/simple_12_A.gif","left"
"","html-keyboard-response","53","502469","0.0-20.0","SS1620154836932","6185.1150000002235","","<p><img src=""stimuli/images/attngetter_blank.png"" width =""640"" height = ""490"" ></p>","40","","between_block","","","","","","","",""
"","video-keyboard-response","54","507095","0.0-21.0","SS1620154836932","null","","[""stimuli/images/attngetter_quiet.mp4""]","null","","attention_getter","","","","","","","",""
"","html-keyboard-response","55","508578","0.0-22.0-0.0","SS1620154836932","null","","<p><img src=stimuli/images/blank_fam.png width =""200"" height = ""200"" style=""position:absolute;left:85%""></p><p><img src= stimuli/images/blank.png width =""650"" height = ""650"" style=""border:5px solid black""></p>","null","","","","","","","","","",""
"","sequential-stimulus-presentation","56","514586","0.0-22.0-1.0","SS1620154836932","null","","","null","","trial","","1000","1000","6","3","Std","stimuli/images/spore_stims/simple_07_A.gif","left"
"","html-keyboard-response","57","515527","0.0-22.0-0.1","SS1620154836932","null","","<p><img src=stimuli/images/blank_fam.png width =""200"" height = ""200"" style=""position:absolute;left:85%""></p><p><img src= stimuli/images/blank.png width =""650"" height = ""650"" style=""border:5px solid black""></p>","null","","","","","","","","","",""
"","sequential-stimulus-presentation","58","521533","0.0-22.0-1.1","SS1620154836932","null","","","null","","trial","","1000","1000","6","3","Std","stimuli/images/spore_stims/simple_07_A.gif","left"
"","html-keyboard-response","59","522785","0.0-22.0-0.2","SS1620154836932","null","","<p><img src=stimuli/images/blank_fam.png width =""200"" height = ""200"" style=""position:absolute;left:85%""></p><p><img src= stimuli/images/blank.png width =""650"" height = ""650"" style=""border:5px solid black""></p>","null","","","","","","","","","",""
"","sequential-stimulus-presentation","60","528794","0.0-22.0-1.2","SS1620154836932","null","","","null","","trial","","1000","1000","6","3","Std","stimuli/images/spore_stims/simple_07_A.gif","left"
"","html-keyboard-response","61","530500","0.0-22.0-0.3","SS1620154836932","null","","<p><img src=stimuli/images/blank_fam.png width =""200"" height = ""200"" style=""position:absolute;left:85%""></p><p><img src= stimuli/images/blank.png width =""650"" height = ""650"" style=""border:5px solid black""></p>","null","","","","","","","","","",""
"","sequential-stimulus-presentation","62","536503","0.0-22.0-1.3","SS1620154836932","null","","","null","","trial","","1000","1000","6","3","Std","stimuli/images/spore_stims/simple_07_A.gif","left"
"","html-keyboard-response","63","537260","0.0-22.0-0.4","SS1620154836932","null","","<p><img src=stimuli/images/blank_fam.png width =""200"" height = ""200"" style=""position:absolute;left:85%""></p><p><img src= stimuli/images/blank.png width =""650"" height = ""650"" style=""border:5px solid black""></p>","null","","","","","","","","","",""
"","sequential-stimulus-presentation","64","543266","0.0-22.0-1.4","SS1620154836932","null","","","null","","trial","","1000","1000","6","3","Std","stimuli/images/spore_stims/simple_07_A.gif","left"
"","html-keyboard-response","65","544110","0.0-22.0-0.5","SS1620154836932","null","","<p><img src=stimuli/images/blank_test.png width =""200"" height = ""200"" style=""position:absolute;left:85%""></p><p><img src= stimuli/images/blank.png width =""650"" height = ""650"" style=""border:5px solid black""></p>","null","","","","","","","","","",""
"","sequential-stimulus-presentation","66","554332","0.0-22.0-1.5","SS1620154836932","44750.70499998401","","","40","","trial","","1000","45750.70499998401","6","3","Std","stimuli/images/spore_stims/simple_07_A.gif","left"
"","html-keyboard-response","67","556110","0.0-23.0","SS1620154836932","1776.7450000101235","","<p><img src=""stimuli/images/attngetter_blank.png"" width =""640"" height = ""490"" ></p>","40","","between_block","","","","","","","",""
"","video-keyboard-response","68","560750","0.0-24.0","SS1620154836932","null","","[""stimuli/images/attngetter_quiet.mp4""]","null","","attention_getter","","","","","","","",""
"","html-keyboard-response","69","561257","0.0-25.0-0.0","SS1620154836932","null","","<p><img src=stimuli/images/blank_fam.png width =""200"" height = ""200"" style=""position:absolute;left:85%""></p><p><img src= stimuli/images/blank.png width =""650"" height = ""650"" style=""border:5px solid black""></p>","null","","","","","","","","","",""
"","sequential-stimulus-presentation","70","567260","0.0-25.0-1.0","SS1620154836932","null","","","null","","trial","","1000","1000","6","4","Std","stimuli/images/spore_stims/simple_10_A.gif","left"
"","html-keyboard-response","71","569668","0.0-25.0-0.1","SS1620154836932","null","","<p><img src=stimuli/images/blank_fam.png width =""200"" height = ""200"" style=""position:absolute;left:85%""></p><p><img src= stimuli/images/blank.png width =""650"" height = ""650"" style=""border:5px solid black""></p>","null","","","","","","","","","",""
"","sequential-stimulus-presentation","72","575675","0.0-25.0-1.1","SS1620154836932","null","","","null","","trial","","1000","1000","6","4","Std","stimuli/images/spore_stims/simple_10_A.gif","left"
"","html-keyboard-response","73","576427","0.0-25.0-0.2","SS1620154836932","null","","<p><img src=stimuli/images/blank_fam.png width =""200"" height = ""200"" style=""position:absolute;left:85%""></p><p><img src= stimuli/images/blank.png width =""650"" height = ""650"" style=""border:5px solid black""></p>","null","","","","","","","","","",""
"","sequential-stimulus-presentation","74","582435","0.0-25.0-1.2","SS1620154836932","null","","","null","","trial","","1000","1000","6","4","Std","stimuli/images/spore_stims/simple_10_A.gif","left"
"","html-keyboard-response","75","584335","0.0-25.0-0.3","SS1620154836932","null","","<p><img src=stimuli/images/blank_fam.png width =""200"" height = ""200"" style=""position:absolute;left:85%""></p><p><img src= stimuli/images/blank.png width =""650"" height = ""650"" style=""border:5px solid black""></p>","null","","","","","","","","","",""
"","sequential-stimulus-presentation","76","590343","0.0-25.0-1.3","SS1620154836932","null","","","null","","trial","","1000","1000","6","4","Std","stimuli/images/spore_stims/simple_10_A.gif","left"
"","html-keyboard-response","77","592737","0.0-25.0-0.4","SS1620154836932","null","","<p><img src=stimuli/images/blank_fam.png width =""200"" height = ""200"" style=""position:absolute;left:85%""></p><p><img src= stimuli/images/blank.png width =""650"" height = ""650"" style=""border:5px solid black""></p>","null","","","","","","","","","",""
"","sequential-stimulus-presentation","78","598743","0.0-25.0-1.4","SS1620154836932","null","","","null","","trial","","1000","1000","6","4","Std","stimuli/images/spore_stims/simple_10_A.gif","left"
"","html-keyboard-response","79","599536","0.0-25.0-0.5","SS1620154836932","null","","<p><img src=stimuli/images/blank_fam.png width =""200"" height = ""200"" style=""position:absolute;left:85%""></p><p><img src= stimuli/images/blank.png width =""650"" height = ""650"" style=""border:5px solid black""></p>","null","","","","","","","","","",""
"","sequential-stimulus-presentation","80","605543","0.0-25.0-1.5","SS1620154836932","null","","","null","","trial","","1000","1000","6","4","Std","stimuli/images/spore_stims/simple_10_A.gif","left"
"","html-keyboard-response","81","607876","0.0-25.0-0.6","SS1620154836932","null","","<p><img src=stimuli/images/blank_fam.png width =""200"" height = ""200"" style=""position:absolute;left:85%""></p><p><img src= stimuli/images/blank.png width =""650"" height = ""650"" style=""border:5px solid black""></p>","null","","","","","","","","","",""
"","sequential-stimulus-presentation","82","613881","0.0-25.0-1.6","SS1620154836932","null","","","null","","trial","","1000","1000","6","4","Std","stimuli/images/spore_stims/simple_10_A.gif","left"
"","html-keyboard-response","83","614945","0.0-25.0-0.7","SS1620154836932","null","","<p><img src=stimuli/images/blank_test.png width =""200"" height = ""200"" style=""position:absolute;left:85%""></p><p><img src= stimuli/images/blank.png width =""650"" height = ""650"" style=""border:5px solid black""></p>","null","","","","","","","","","",""
"","sequential-stimulus-presentation","84","621977","0.0-25.0-1.7","SS1620154836932","59717.875000002095","","","40","","trial","","1000","60717.875000002095","6","4","Std","stimuli/images/spore_stims/simple_10_A.gif","left"
"","html-keyboard-response","85","626623","0.0-26.0","SS1620154836932","4644.650000002002","","<p><img src=""stimuli/images/attngetter_blank.png"" width =""640"" height = ""490"" ></p>","40","","between_block","","","","","","","",""
"","video-keyboard-response","86","631257","0.0-27.0","SS1620154836932","null","","[""stimuli/images/attngetter_quiet.mp4""]","null","","attention_getter","","","","","","","",""
"","html-keyboard-response","87","632392","0.0-28.0-0.0","SS1620154836932","null","","<p><img src=stimuli/images/blank_fam.png width =""200"" height = ""200"" style=""position:absolute;left:85%""></p><p><img src= stimuli/images/blank.png width =""650"" height = ""650"" style=""border:5px solid black""></p>","null","","","","","","","","","",""
"","sequential-stimulus-presentation","88","638396","0.0-28.0-1.0","SS1620154836932","null","","","null","","trial","","1000","1000","6","5","Dev","stimuli/images/spore_stims/simple_04_A.gif","right"
"","html-keyboard-response","89","640332","0.0-28.0-0.1","SS1620154836932","null","","<p><img src=stimuli/images/blank_fam.png width =""200"" height = ""200"" style=""position:absolute;left:85%""></p><p><img src= stimuli/images/blank.png width =""650"" height = ""650"" style=""border:5px solid black""></p>","null","","","","","","","","","",""
"","sequential-stimulus-presentation","90","646337","0.0-28.0-1.1","SS1620154836932","null","","","null","","trial","","1000","1000","6","5","Dev","stimuli/images/spore_stims/simple_04_A.gif","right"
"","html-keyboard-response","91","646872","0.0-28.0-0.2","SS1620154836932","null","","<p><img src=stimuli/images/blank_fam.png width =""200"" height = ""200"" style=""position:absolute;left:85%""></p><p><img src= stimuli/images/blank.png width =""650"" height = ""650"" style=""border:5px solid black""></p>","null","","","","","","","","","",""
"","sequential-stimulus-presentation","92","652880","0.0-28.0-1.2","SS1620154836932","null","","","null","","trial","","1000","1000","6","5","Dev","stimuli/images/spore_stims/simple_04_A.gif","right"
"","html-keyboard-response","93","653659","0.0-28.0-0.3","SS1620154836932","null","","<p><img src=stimuli/images/blank_test.png width =""200"" height = ""200"" style=""position:absolute;left:85%""></p><p><img src= stimuli/images/blank.png width =""650"" height = ""650"" style=""border:5px solid black""></p>","null","","","","","","","","","",""
"","sequential-stimulus-presentation","94","664999","0.0-28.0-1.3","SS1620154836932","31604.649999993853","","","40","","trial","","1000","32604.649999993853","6","5","Dev","stimuli/images/spore_stims/simple_03_A.gif","left"
"","html-keyboard-response","95","841813","0.0-29.0","SS1620154836932","176815.20000001183","","<p><span style=""font-family: arial, helvetica, sans-serif; font-size: 48px; color: #993300;""> That's it! Thank you so much for your participation! </span></p>","40","","","","","","","","","",""
