"success","trial_type","trial_index","time_elapsed","internal_node_id","subject","view_history","rt","stimulus_type","trial_stimulus","key_press","minimum_viewing_duration","trial_looking_time","block_deviant","block_background","exposure_type","forced_exposure_time","responses","question_order","memory_question_stimuli","memory_block_index","stimulus","block_number","block_type","stimulus_displayed","stimulus_left","stimulus_right"
"true","fullscreen","0","5451","0.0-0.0","SS1627326672191","","","","","","","","","","","","","","","","","","","","",""
"","instructions","1","56104","0.0-1.0","SS1627326672191","[{""page_index"":0,""viewing_time"":50644.70000000298}]","50645.90000000596","","","","","","","","","","","","","","","","","","",""
"","instructions","2","282912","0.0-2.0","SS1627326672191","[{""page_index"":0,""viewing_time"":212979.20000000298},{""page_index"":1,""viewing_time"":11825.09999999404}]","224804.70000000298","instructions","","","","","","","","","","","","","","","","","",""
"","stimuli-presentation","3","301097","0.0-3.0","SS1627326672191","","17671.39999999106","","","40","500","18171.39999999106","null","null","self_paced","0","","","","","","","","","",""
"","instructions","4","333137","0.0-4.0","SS1627326672191","[{""page_index"":0,""viewing_time"":32037.59999999404}]","32038.59999999404","instructions","","","","","","","","","","","","","","","","","",""
"","stimuli-presentation","5","337925","0.0-5.0","SS1627326672191","","4266.70000000298","","","40","500","4766.70000000298","null","null","forced_short","500","","","","","","","","","",""
"","stimuli-presentation","6","351137","0.0-6.0","SS1627326672191","","12699.89999999106","","","40","500","13199.89999999106","null","null","forced_short","500","","","","","","","","","",""
"","instructions","7","372003","0.0-7.0","SS1627326672191","[{""page_index"":0,""viewing_time"":20862.79999999702}]","20863.79999999702","instructions","","","","","","","","","","","","","","","","","",""
"","survey-multi-choice","8","379103","0.0-8.0","SS1627326672191","","7093.199999988079","memory_test_practice","","","","","","","","","{""Q0"":""Yes""}","[0]","images/practice/instructions_example_spore2.gif","0","","","","","",""
"","survey-multi-choice","9","384433","0.0-9.0","SS1627326672191","","5326.5999999940395","memory_test_practice","","","","","","","","","{""Q0"":""No""}","[0]","images/practice/instructions_example_spore0.gif","0","","","","","",""
"","instructions","10","403554","0.0-10.0","SS1627326672191","[{""page_index"":0,""viewing_time"":16743.60000000894},{""page_index"":1,""viewing_time"":2372.7000000029802}]","19116.70000000298","instructions","","","","","","","","","","","","","","","","","",""
"","html-keyboard-response","11","404849","0.0-11.0-0.0","SS1627326672191","","null","","","null","","","","","","","","","","","<p><img src= images/blank.png width =""600"" height = ""600"" style=""position:fixed;top:50%; left:50%; transform: translate(-50%, -50%); border:5px solid black"">","","","","",""
"","stimuli-presentation","12","410273","0.0-11.0-1.0","SS1627326672191","","4779.399999991059","trial","","40","500","5279.399999991059","images/stimuli/complex_19_A_a.gif","images/stimuli/complex_06_A_b.gif","forced_short","630","","","","","","0","complex_dissimilar","images/stimuli/complex_06_A_b.gif","",""
"","html-keyboard-response","13","411461","0.0-11.0-0.1","SS1627326672191","","null","","","null","","","","","","","","","","","<p><img src= images/blank.png width =""600"" height = ""600"" style=""position:fixed;top:50%; left:50%; transform: translate(-50%, -50%); border:5px solid black"">","","","","",""
"","stimuli-presentation","14","453288","0.0-11.0-1.1","SS1627326672191","","41316.69999998808","trial","","40","500","41816.69999998808","images/stimuli/complex_19_A_a.gif","images/stimuli/complex_06_A_b.gif","forced_short","630","","","","","","0","complex_dissimilar","images/stimuli/complex_19_A_a.gif","",""
"","html-keyboard-response","15","454395","0.0-11.0-0.2","SS1627326672191","","null","","","null","","","","","","","","","","","<p><img src= images/blank.png width =""600"" height = ""600"" style=""position:fixed;top:50%; left:50%; transform: translate(-50%, -50%); border:5px solid black"">","","","","",""
"","stimuli-presentation","16","537305","0.0-11.0-1.2","SS1627326672191","","82398.39999999106","trial","","40","500","82898.39999999106","images/stimuli/complex_19_A_a.gif","images/stimuli/complex_06_A_b.gif","forced_short","630","","","","","","0","complex_dissimilar","images/stimuli/complex_06_A_b.gif","",""
"","html-keyboard-response","17","538257","0.0-11.0-0.3","SS1627326672191","","null","","","null","","","","","","","","","","","<p><img src= images/blank.png width =""600"" height = ""600"" style=""position:fixed;top:50%; left:50%; transform: translate(-50%, -50%); border:5px solid black"">","","","","",""
"","stimuli-presentation","18","565464","0.0-11.0-1.3","SS1627326672191","","26694.60000000894","trial","","40","500","27194.60000000894","images/stimuli/complex_19_A_a.gif","images/stimuli/complex_06_A_b.gif","forced_short","630","","","","","","0","complex_dissimilar","images/stimuli/complex_06_A_b.gif","",""
"","html-keyboard-response","19","566641","0.0-11.0-0.4","SS1627326672191","","null","","","null","","","","","","","","","","","<p><img src= images/blank.png width =""600"" height = ""600"" style=""position:fixed;top:50%; left:50%; transform: translate(-50%, -50%); border:5px solid black"">","","","","",""
"","stimuli-presentation","20","571946","0.0-11.0-1.4","SS1627326672191","","4785","trial","","40","500","5285","images/stimuli/complex_19_A_a.gif","images/stimuli/complex_06_A_b.gif","forced_short","630","","","","","","0","complex_dissimilar","images/stimuli/complex_06_A_b.gif","",""
"","html-keyboard-response","21","572972","0.0-11.0-0.5","SS1627326672191","","null","","","null","","","","","","","","","","","<p><img src= images/blank.png width =""600"" height = ""600"" style=""position:fixed;top:50%; left:50%; transform: translate(-50%, -50%); border:5px solid black"">","","","","",""
"","stimuli-presentation","22","577430","0.0-11.0-1.5","SS1627326672191","","3946.0999999940395","trial","","40","500","4446.0999999940395","images/stimuli/complex_19_A_a.gif","images/stimuli/complex_06_A_b.gif","forced_short","630","","","","","","0","complex_dissimilar","images/stimuli/complex_06_A_b.gif","",""
"","html-keyboard-response","23","578421","0.0-11.0-0.6","SS1627326672191","","null","","","null","","","","","","","","","","","<p><img src= images/blank.png width =""600"" height = ""600"" style=""position:fixed;top:50%; left:50%; transform: translate(-50%, -50%); border:5px solid black"">","","","","",""
"","stimuli-presentation","24","583681","0.0-11.0-1.6","SS1627326672191","","4744.4000000059605","trial","","40","500","5244.4000000059605","images/stimuli/complex_19_A_a.gif","images/stimuli/complex_06_A_b.gif","forced_short","630","","","","","","0","complex_dissimilar","images/stimuli/complex_06_A_b.gif","",""
"","survey-multi-choice","25","588718","0.0-12.0","SS1627326672191","","5030.5999999940395","memory_test","","","","","","","","","{""Q0"":""No""}","[0]","images/stimuli/complex_09_A_b.gif","0","","","","","",""
"","survey-multi-choice","26","591570","0.0-13.0","SS1627326672191","","2847.8999999910593","memory_test","","","","","","","","","{""Q0"":""Yes""}","[0]","images/stimuli/complex_19_A_a.gif","0","","","","","",""
"","html-keyboard-response","27","592571","0.0-14.0-0.0","SS1627326672191","","null","","","null","","","","","","","","","","","<p><img src= images/blank.png width =""600"" height = ""600"" style=""position:fixed;top:50%; left:50%; transform: translate(-50%, -50%); border:5px solid black"">","","","","",""
"","stimuli-presentation","28","607045","0.0-14.0-1.0","SS1627326672191","","13542.70000000298","trial","","40","500","14042.70000000298","images/stimuli/complex_13_A_b.gif","images/stimuli/complex_01_A_a.gif","forced_short","920","","","","","","1","complex_dissimilar","images/stimuli/complex_01_A_a.gif","",""
"","html-keyboard-response","29","608200","0.0-14.0-0.1","SS1627326672191","","null","","","null","","","","","","","","","","","<p><img src= images/blank.png width =""600"" height = ""600"" style=""position:fixed;top:50%; left:50%; transform: translate(-50%, -50%); border:5px solid black"">","","","","",""
"","stimuli-presentation","30","623850","0.0-14.0-1.1","SS1627326672191","","15135.29999999702","trial","","40","500","15635.29999999702","images/stimuli/complex_13_A_b.gif","images/stimuli/complex_01_A_a.gif","forced_short","920","","","","","","1","complex_dissimilar","images/stimuli/complex_01_A_a.gif","",""
"","html-keyboard-response","31","624829","0.0-14.0-0.2","SS1627326672191","","null","","","null","","","","","","","","","","","<p><img src= images/blank.png width =""600"" height = ""600"" style=""position:fixed;top:50%; left:50%; transform: translate(-50%, -50%); border:5px solid black"">","","","","",""
"","stimuli-presentation","32","627395","0.0-14.0-1.2","SS1627326672191","","2056.2000000029802","trial","","40","500","2556.2000000029802","images/stimuli/complex_13_A_b.gif","images/stimuli/complex_01_A_a.gif","forced_short","920","","","","","","1","complex_dissimilar","images/stimuli/complex_01_A_a.gif","",""
"","html-keyboard-response","33","628526","0.0-14.0-0.3","SS1627326672191","","null","","","null","","","","","","","","","","","<p><img src= images/blank.png width =""600"" height = ""600"" style=""position:fixed;top:50%; left:50%; transform: translate(-50%, -50%); border:5px solid black"">","","","","",""
"","stimuli-presentation","34","630183","0.0-14.0-1.3","SS1627326672191","","1145.0999999940395","trial","","40","500","1645.0999999940395","images/stimuli/complex_13_A_b.gif","images/stimuli/complex_01_A_a.gif","forced_short","920","","","","","","1","complex_dissimilar","images/stimuli/complex_01_A_a.gif","",""
"","html-keyboard-response","35","631261","0.0-14.0-0.4","SS1627326672191","","null","","","null","","","","","","","","","","","<p><img src= images/blank.png width =""600"" height = ""600"" style=""position:fixed;top:50%; left:50%; transform: translate(-50%, -50%); border:5px solid black"">","","","","",""
"","stimuli-presentation","36","633792","0.0-14.0-1.4","SS1627326672191","","2021.2999999970198","trial","","40","500","2521.2999999970198","images/stimuli/complex_13_A_b.gif","images/stimuli/complex_01_A_a.gif","forced_short","920","","","","","","1","complex_dissimilar","images/stimuli/complex_01_A_a.gif","",""
"","html-keyboard-response","37","634976","0.0-14.0-0.5","SS1627326672191","","null","","","null","","","","","","","","","","","<p><img src= images/blank.png width =""600"" height = ""600"" style=""position:fixed;top:50%; left:50%; transform: translate(-50%, -50%); border:5px solid black"">","","","","",""
"","stimuli-presentation","38","637060","0.0-14.0-1.5","SS1627326672191","","1578.1000000089407","trial","","40","500","2078.1000000089407","images/stimuli/complex_13_A_b.gif","images/stimuli/complex_01_A_a.gif","forced_short","920","","","","","","1","complex_dissimilar","images/stimuli/complex_01_A_a.gif","",""
"","survey-multi-choice","39","641854","0.0-15.0","SS1627326672191","","4790.79999999702","memory_test","","","","","","","","","{""Q0"":""Yes""}","[0]","images/stimuli/complex_01_A_a.gif","1","","","","","",""
"","survey-multi-choice","40","646447","0.0-16.0","SS1627326672191","","4584","memory_test","","","","","","","","","{""Q0"":""No""}","[0]","images/stimuli/complex_20_A_a.gif","1","","","","","",""
"","html-keyboard-response","41","647689","0.0-17.0-0.0","SS1627326672191","","null","","","null","","","","","","","","","","","<p><img src= images/blank.png width =""600"" height = ""600"" style=""position:fixed;top:50%; left:50%; transform: translate(-50%, -50%); border:5px solid black"">","","","","",""
"","stimuli-presentation","42","650496","0.0-17.0-1.0","SS1627326672191","","2015","trial","","40","500","2515","images/stimuli/complex_23_A_a.gif","images/stimuli/complex_16_A_a.gif","forced_short","770","","","","","","2","complex_dissimilar","images/stimuli/complex_16_A_a.gif","",""
"","html-keyboard-response","43","651437","0.0-17.0-0.1","SS1627326672191","","null","","","null","","","","","","","","","","","<p><img src= images/blank.png width =""600"" height = ""600"" style=""position:fixed;top:50%; left:50%; transform: translate(-50%, -50%); border:5px solid black"">","","","","",""
"","stimuli-presentation","44","657315","0.0-17.0-1.1","SS1627326672191","","5365.100000008941","trial","","40","500","5865.100000008941","images/stimuli/complex_23_A_a.gif","images/stimuli/complex_16_A_a.gif","forced_short","770","","","","","","2","complex_dissimilar","images/stimuli/complex_16_A_a.gif","",""
"","html-keyboard-response","45","658468","0.0-17.0-0.2","SS1627326672191","","null","","","null","","","","","","","","","","","<p><img src= images/blank.png width =""600"" height = ""600"" style=""position:fixed;top:50%; left:50%; transform: translate(-50%, -50%); border:5px solid black"">","","","","",""
"","stimuli-presentation","46","660244","0.0-17.0-1.2","SS1627326672191","","1257.7999999970198","trial","","40","500","1757.7999999970198","images/stimuli/complex_23_A_a.gif","images/stimuli/complex_16_A_a.gif","forced_short","770","","","","","","2","complex_dissimilar","images/stimuli/complex_16_A_a.gif","",""
"","html-keyboard-response","47","661166","0.0-17.0-0.3","SS1627326672191","","null","","","null","","","","","","","","","","","<p><img src= images/blank.png width =""600"" height = ""600"" style=""position:fixed;top:50%; left:50%; transform: translate(-50%, -50%); border:5px solid black"">","","","","",""
"","stimuli-presentation","48","662746","0.0-17.0-1.3","SS1627326672191","","1065","trial","","40","500","1565","images/stimuli/complex_23_A_a.gif","images/stimuli/complex_16_A_a.gif","forced_short","770","","","","","","2","complex_dissimilar","images/stimuli/complex_16_A_a.gif","",""
"","html-keyboard-response","49","663593","0.0-17.0-0.4","SS1627326672191","","null","","","null","","","","","","","","","","","<p><img src= images/blank.png width =""600"" height = ""600"" style=""position:fixed;top:50%; left:50%; transform: translate(-50%, -50%); border:5px solid black"">","","","","",""
"","stimuli-presentation","50","664888","0.0-17.0-1.4","SS1627326672191","","783.5999999940395","trial","","40","500","1283.5999999940395","images/stimuli/complex_23_A_a.gif","images/stimuli/complex_16_A_a.gif","forced_short","770","","","","","","2","complex_dissimilar","images/stimuli/complex_16_A_a.gif","",""
"","html-keyboard-response","51","665908","0.0-17.0-0.5","SS1627326672191","","null","","","null","","","","","","","","","","","<p><img src= images/blank.png width =""600"" height = ""600"" style=""position:fixed;top:50%; left:50%; transform: translate(-50%, -50%); border:5px solid black"">","","","","",""
"","stimuli-presentation","52","667441","0.0-17.0-1.5","SS1627326672191","","1019.5999999940395","trial","","40","500","1519.5999999940395","images/stimuli/complex_23_A_a.gif","images/stimuli/complex_16_A_a.gif","forced_short","770","","","","","","2","complex_dissimilar","images/stimuli/complex_16_A_a.gif","",""
"","survey-multi-choice","53","673355","0.0-18.0","SS1627326672191","","5909.29999999702","memory_test","","","","","","","","","{""Q0"":""Yes""}","[0]","images/stimuli/complex_16_A_a.gif","2","","","","","",""
"","survey-multi-choice","54","677430","0.0-19.0","SS1627326672191","","4068.9000000059605","memory_test","","","","","","","","","{""Q0"":""No""}","[0]","images/stimuli/complex_02_A_a.gif","2","","","","","",""
"","html-keyboard-response","55","678437","0.0-20.0-0.0","SS1627326672191","","null","","","null","","","","","","","","","","","<p><img src= images/blank.png width =""600"" height = ""600"" style=""position:fixed;top:50%; left:50%; transform: translate(-50%, -50%); border:5px solid black"">","","","","",""
"","stimuli-presentation","56","680903","0.0-20.0-1.0","SS1627326672191","","2392.4000000059605","trial","","40","500","2892.4000000059605","images/stimuli/complex_04_A_a.gif","images/stimuli/complex_24_A_a.gif","forced_short","60","","","","","","3","complex_dissimilar","images/stimuli/complex_24_A_a.gif","",""
"","html-keyboard-response","57","682102","0.0-20.0-0.1","SS1627326672191","","null","","","null","","","","","","","","","","","<p><img src= images/blank.png width =""600"" height = ""600"" style=""position:fixed;top:50%; left:50%; transform: translate(-50%, -50%); border:5px solid black"">","","","","",""
"","stimuli-presentation","58","696527","0.0-20.0-1.1","SS1627326672191","","13916.60000000894","trial","","40","500","14416.60000000894","images/stimuli/complex_04_A_a.gif","images/stimuli/complex_24_A_a.gif","forced_short","60","","","","","","3","complex_dissimilar","images/stimuli/complex_04_A_a.gif","",""
"","html-keyboard-response","59","697557","0.0-20.0-0.2","SS1627326672191","","null","","","null","","","","","","","","","","","<p><img src= images/blank.png width =""600"" height = ""600"" style=""position:fixed;top:50%; left:50%; transform: translate(-50%, -50%); border:5px solid black"">","","","","",""
"","stimuli-presentation","60","700984","0.0-20.0-1.2","SS1627326672191","","2917.7999999970198","trial","","40","500","3417.7999999970198","images/stimuli/complex_04_A_a.gif","images/stimuli/complex_24_A_a.gif","forced_short","60","","","","","","3","complex_dissimilar","images/stimuli/complex_24_A_a.gif","",""
"","html-keyboard-response","61","702160","0.0-20.0-0.3","SS1627326672191","","null","","","null","","","","","","","","","","","<p><img src= images/blank.png width =""600"" height = ""600"" style=""position:fixed;top:50%; left:50%; transform: translate(-50%, -50%); border:5px solid black"">","","","","",""
"","stimuli-presentation","62","702844","0.0-20.0-1.3","SS1627326672191","","169.09999999403954","trial","","40","500","669.0999999940395","images/stimuli/complex_04_A_a.gif","images/stimuli/complex_24_A_a.gif","forced_short","60","","","","","","3","complex_dissimilar","images/stimuli/complex_24_A_a.gif","",""
"","html-keyboard-response","63","703782","0.0-20.0-0.4","SS1627326672191","","null","","","null","","","","","","","","","","","<p><img src= images/blank.png width =""600"" height = ""600"" style=""position:fixed;top:50%; left:50%; transform: translate(-50%, -50%); border:5px solid black"">","","","","",""
"","stimuli-presentation","64","704889","0.0-20.0-1.4","SS1627326672191","","594.5","trial","","40","500","1094.5","images/stimuli/complex_04_A_a.gif","images/stimuli/complex_24_A_a.gif","forced_short","60","","","","","","3","complex_dissimilar","images/stimuli/complex_24_A_a.gif","",""
"","html-keyboard-response","65","706003","0.0-20.0-0.5","SS1627326672191","","null","","","null","","","","","","","","","","","<p><img src= images/blank.png width =""600"" height = ""600"" style=""position:fixed;top:50%; left:50%; transform: translate(-50%, -50%); border:5px solid black"">","","","","",""
"","stimuli-presentation","66","706955","0.0-20.0-1.5","SS1627326672191","","441.09999999403954","trial","","40","500","941.0999999940395","images/stimuli/complex_04_A_a.gif","images/stimuli/complex_24_A_a.gif","forced_short","60","","","","","","3","complex_dissimilar","images/stimuli/complex_24_A_a.gif","",""
"","survey-multi-choice","67","711888","0.0-21.0","SS1627326672191","","4923.9000000059605","memory_test","","","","","","","","","{""Q0"":""Yes""}","[0]","images/stimuli/complex_24_A_a.gif","3","","","","","",""
"","survey-multi-choice","68","717433","0.0-22.0","SS1627326672191","","5538.29999999702","memory_test","","","","","","","","","{""Q0"":""No""}","[0]","images/stimuli/complex_07_A_a.gif","3","","","","","",""
"","html-keyboard-response","69","718638","0.0-23.0-0.0","SS1627326672191","","null","","","null","","","","","","","","","","","<p><img src= images/blank.png width =""600"" height = ""600"" style=""position:fixed;top:50%; left:50%; transform: translate(-50%, -50%); border:5px solid black"">","","","","",""
"","stimuli-presentation","70","720626","0.0-23.0-1.0","SS1627326672191","","1429.199999988079","trial","","40","500","1929.199999988079","images/stimuli/complex_12_A_b.gif","images/stimuli/complex_03_A_b.gif","forced_short","540","","","","","","4","complex_dissimilar","images/stimuli/complex_03_A_b.gif","",""
"","html-keyboard-response","71","721905","0.0-23.0-0.1","SS1627326672191","","null","","","null","","","","","","","","","","","<p><img src= images/blank.png width =""600"" height = ""600"" style=""position:fixed;top:50%; left:50%; transform: translate(-50%, -50%); border:5px solid black"">","","","","",""
"","stimuli-presentation","72","723492","0.0-23.0-1.1","SS1627326672191","","1074.7999999970198","trial","","40","500","1574.7999999970198","images/stimuli/complex_12_A_b.gif","images/stimuli/complex_03_A_b.gif","forced_short","540","","","","","","4","complex_dissimilar","images/stimuli/complex_03_A_b.gif","",""
"","html-keyboard-response","73","724430","0.0-23.0-0.2","SS1627326672191","","null","","","null","","","","","","","","","","","<p><img src= images/blank.png width =""600"" height = ""600"" style=""position:fixed;top:50%; left:50%; transform: translate(-50%, -50%); border:5px solid black"">","","","","",""
"","stimuli-presentation","74","748184","0.0-23.0-1.2","SS1627326672191","","23249.90000000596","trial","","40","500","23749.90000000596","images/stimuli/complex_12_A_b.gif","images/stimuli/complex_03_A_b.gif","forced_short","540","","","","","","4","complex_dissimilar","images/stimuli/complex_12_A_b.gif","",""
"","html-keyboard-response","75","749473","0.0-23.0-0.3","SS1627326672191","","null","","","null","","","","","","","","","","","<p><img src= images/blank.png width =""600"" height = ""600"" style=""position:fixed;top:50%; left:50%; transform: translate(-50%, -50%); border:5px solid black"">","","","","",""
"","stimuli-presentation","76","750768","0.0-23.0-1.3","SS1627326672191","","781.1000000089407","trial","","40","500","1281.1000000089407","images/stimuli/complex_12_A_b.gif","images/stimuli/complex_03_A_b.gif","forced_short","540","","","","","","4","complex_dissimilar","images/stimuli/complex_03_A_b.gif","",""
"","html-keyboard-response","77","751604","0.0-23.0-0.4","SS1627326672191","","null","","","null","","","","","","","","","","","<p><img src= images/blank.png width =""600"" height = ""600"" style=""position:fixed;top:50%; left:50%; transform: translate(-50%, -50%); border:5px solid black"">","","","","",""
"","stimuli-presentation","78","752877","0.0-23.0-1.4","SS1627326672191","","759.5","trial","","40","500","1259.5","images/stimuli/complex_12_A_b.gif","images/stimuli/complex_03_A_b.gif","forced_short","540","","","","","","4","complex_dissimilar","images/stimuli/complex_03_A_b.gif","",""
"","html-keyboard-response","79","753841","0.0-23.0-0.5","SS1627326672191","","null","","","null","","","","","","","","","","","<p><img src= images/blank.png width =""600"" height = ""600"" style=""position:fixed;top:50%; left:50%; transform: translate(-50%, -50%); border:5px solid black"">","","","","",""
"","stimuli-presentation","80","754526","0.0-23.0-1.5","SS1627326672191","","159.5","trial","","40","500","659.5","images/stimuli/complex_12_A_b.gif","images/stimuli/complex_03_A_b.gif","forced_short","540","","","","","","4","complex_dissimilar","images/stimuli/complex_03_A_b.gif","",""
"","survey-multi-choice","81","759773","0.0-24.0","SS1627326672191","","5240","memory_test","","","","","","","","","{""Q0"":""No""}","[0]","images/stimuli/complex_10_A_a.gif","4","","","","","",""
"","survey-multi-choice","82","762739","0.0-25.0","SS1627326672191","","2959.2000000029802","memory_test","","","","","","","","","{""Q0"":""Yes""}","[0]","images/stimuli/complex_03_A_b.gif","4","","","","","",""
"","html-keyboard-response","83","763802","0.0-26.0-0.0","SS1627326672191","","null","","","null","","","","","","","","","","","<p><img src= images/blank.png width =""600"" height = ""600"" style=""position:fixed;top:50%; left:50%; transform: translate(-50%, -50%); border:5px solid black"">","","","","",""
"","stimuli-presentation","84","766310","0.0-26.0-1.0","SS1627326672191","","1610.300000011921","trial","","40","500","2110.300000011921","images/stimuli/complex_11_A_a.gif","images/stimuli/complex_15_A_b.gif","forced_short","870","","","","","","5","complex_dissimilar","images/stimuli/complex_15_A_b.gif","",""
"","html-keyboard-response","85","767504","0.0-26.0-0.1","SS1627326672191","","null","","","null","","","","","","","","","","","<p><img src= images/blank.png width =""600"" height = ""600"" style=""position:fixed;top:50%; left:50%; transform: translate(-50%, -50%); border:5px solid black"">","","","","",""
"","stimuli-presentation","86","770767","0.0-26.0-1.1","SS1627326672191","","2747.7999999970198","trial","","40","500","3247.7999999970198","images/stimuli/complex_11_A_a.gif","images/stimuli/complex_15_A_b.gif","forced_short","870","","","","","","5","complex_dissimilar","images/stimuli/complex_15_A_b.gif","",""
"","html-keyboard-response","87","771648","0.0-26.0-0.2","SS1627326672191","","null","","","null","","","","","","","","","","","<p><img src= images/blank.png width =""600"" height = ""600"" style=""position:fixed;top:50%; left:50%; transform: translate(-50%, -50%); border:5px solid black"">","","","","",""
"","stimuli-presentation","88","772573","0.0-26.0-1.2","SS1627326672191","","410.40000000596046","trial","","40","500","910.4000000059605","images/stimuli/complex_11_A_a.gif","images/stimuli/complex_15_A_b.gif","forced_short","870","","","","","","5","complex_dissimilar","images/stimuli/complex_15_A_b.gif","",""
"","html-keyboard-response","89","773735","0.0-26.0-0.3","SS1627326672191","","null","","","null","","","","","","","","","","","<p><img src= images/blank.png width =""600"" height = ""600"" style=""position:fixed;top:50%; left:50%; transform: translate(-50%, -50%); border:5px solid black"">","","","","",""
"","stimuli-presentation","90","776500","0.0-26.0-1.3","SS1627326672191","","2247.9000000059605","trial","","40","500","2747.9000000059605","images/stimuli/complex_11_A_a.gif","images/stimuli/complex_15_A_b.gif","forced_short","870","","","","","","5","complex_dissimilar","images/stimuli/complex_15_A_b.gif","",""
"","html-keyboard-response","91","777701","0.0-26.0-0.4","SS1627326672191","","null","","","null","","","","","","","","","","","<p><img src= images/blank.png width =""600"" height = ""600"" style=""position:fixed;top:50%; left:50%; transform: translate(-50%, -50%); border:5px solid black"">","","","","",""
"","stimuli-presentation","92","778789","0.0-26.0-1.4","SS1627326672191","","573.0999999940395","trial","","40","500","1073.0999999940395","images/stimuli/complex_11_A_a.gif","images/stimuli/complex_15_A_b.gif","forced_short","870","","","","","","5","complex_dissimilar","images/stimuli/complex_15_A_b.gif","",""
"","html-keyboard-response","93","779865","0.0-26.0-0.5","SS1627326672191","","null","","","null","","","","","","","","","","","<p><img src= images/blank.png width =""600"" height = ""600"" style=""position:fixed;top:50%; left:50%; transform: translate(-50%, -50%); border:5px solid black"">","","","","",""
"","stimuli-presentation","94","781126","0.0-26.0-1.5","SS1627326672191","","754.6000000089407","trial","","40","500","1254.6000000089407","images/stimuli/complex_11_A_a.gif","images/stimuli/complex_15_A_b.gif","forced_short","870","","","","","","5","complex_dissimilar","images/stimuli/complex_15_A_b.gif","",""
"","html-keyboard-response","95","782295","0.0-26.0-0.6","SS1627326672191","","null","","","null","","","","","","","","","","","<p><img src= images/blank.png width =""600"" height = ""600"" style=""position:fixed;top:50%; left:50%; transform: translate(-50%, -50%); border:5px solid black"">","","","","",""
"","stimuli-presentation","96","785826","0.0-26.0-1.6","SS1627326672191","","3018.6000000089407","trial","","40","500","3518.6000000089407","images/stimuli/complex_11_A_a.gif","images/stimuli/complex_15_A_b.gif","forced_short","870","","","","","","5","complex_dissimilar","images/stimuli/complex_11_A_a.gif","",""
"","survey-multi-choice","97","791121","0.0-27.0","SS1627326672191","","5290.4000000059605","memory_test","","","","","","","","","{""Q0"":""No""}","[0]","images/stimuli/complex_18_A_a.gif","5","","","","","",""
"","survey-multi-choice","98","795219","0.0-28.0","SS1627326672191","","4087.9000000059605","memory_test","","","","","","","","","{""Q0"":""Yes""}","[0]","images/stimuli/complex_11_A_a.gif","5","","","","","",""
"","html-keyboard-response","99","796229","0.0-29.0-0.0","SS1627326672191","","null","","","null","","","","","","","","","","","<p><img src= images/blank.png width =""600"" height = ""600"" style=""position:fixed;top:50%; left:50%; transform: translate(-50%, -50%); border:5px solid black"">","","","","",""
"","stimuli-presentation","100","797962","0.0-29.0-1.0","SS1627326672191","","1595.2000000029802","trial","","40","500","2095.2000000029802","images/stimuli/complex_21_A_b.gif","images/stimuli/complex_08_A_a.gif","forced_short","120","","","","","","6","complex_dissimilar","images/stimuli/complex_08_A_a.gif","",""
"","html-keyboard-response","101","798903","0.0-29.0-0.1","SS1627326672191","","null","","","null","","","","","","","","","","","<p><img src= images/blank.png width =""600"" height = ""600"" style=""position:fixed;top:50%; left:50%; transform: translate(-50%, -50%); border:5px solid black"">","","","","",""
"","stimuli-presentation","102","802053","0.0-29.0-1.1","SS1627326672191","","2636.5999999940395","trial","","40","500","3136.5999999940395","images/stimuli/complex_21_A_b.gif","images/stimuli/complex_08_A_a.gif","forced_short","120","","","","","","6","complex_dissimilar","images/stimuli/complex_21_A_b.gif","",""
"","html-keyboard-response","103","803294","0.0-29.0-0.2","SS1627326672191","","null","","","null","","","","","","","","","","","<p><img src= images/blank.png width =""600"" height = ""600"" style=""position:fixed;top:50%; left:50%; transform: translate(-50%, -50%); border:5px solid black"">","","","","",""
"","stimuli-presentation","104","805755","0.0-29.0-1.2","SS1627326672191","","1947.5","trial","","40","500","2447.5","images/stimuli/complex_21_A_b.gif","images/stimuli/complex_08_A_a.gif","forced_short","120","","","","","","6","complex_dissimilar","images/stimuli/complex_08_A_a.gif","",""
"","html-keyboard-response","105","806951","0.0-29.0-0.3","SS1627326672191","","null","","","null","","","","","","","","","","","<p><img src= images/blank.png width =""600"" height = ""600"" style=""position:fixed;top:50%; left:50%; transform: translate(-50%, -50%); border:5px solid black"">","","","","",""
"","stimuli-presentation","106","808382","0.0-29.0-1.3","SS1627326672191","","916.5999999940395","trial","","40","500","1416.5999999940395","images/stimuli/complex_21_A_b.gif","images/stimuli/complex_08_A_a.gif","forced_short","120","","","","","","6","complex_dissimilar","images/stimuli/complex_08_A_a.gif","",""
"","html-keyboard-response","107","809665","0.0-29.0-0.4","SS1627326672191","","null","","","null","","","","","","","","","","","<p><img src= images/blank.png width =""600"" height = ""600"" style=""position:fixed;top:50%; left:50%; transform: translate(-50%, -50%); border:5px solid black"">","","","","",""
"","stimuli-presentation","108","811184","0.0-29.0-1.4","SS1627326672191","","1006.7999999970198","trial","","40","500","1506.7999999970198","images/stimuli/complex_21_A_b.gif","images/stimuli/complex_08_A_a.gif","forced_short","120","","","","","","6","complex_dissimilar","images/stimuli/complex_08_A_a.gif","",""
"","html-keyboard-response","109","812468","0.0-29.0-0.5","SS1627326672191","","null","","","null","","","","","","","","","","","<p><img src= images/blank.png width =""600"" height = ""600"" style=""position:fixed;top:50%; left:50%; transform: translate(-50%, -50%); border:5px solid black"">","","","","",""
"","stimuli-presentation","110","814093","0.0-29.0-1.5","SS1627326672191","","1112.1000000089407","trial","","40","500","1612.1000000089407","images/stimuli/complex_21_A_b.gif","images/stimuli/complex_08_A_a.gif","forced_short","120","","","","","","6","complex_dissimilar","images/stimuli/complex_08_A_a.gif","",""
"","html-keyboard-response","111","815334","0.0-29.0-0.6","SS1627326672191","","null","","","null","","","","","","","","","","","<p><img src= images/blank.png width =""600"" height = ""600"" style=""position:fixed;top:50%; left:50%; transform: translate(-50%, -50%); border:5px solid black"">","","","","",""
"","stimuli-presentation","112","816262","0.0-29.0-1.6","SS1627326672191","","415.19999998807907","trial","","40","500","915.1999999880791","images/stimuli/complex_21_A_b.gif","images/stimuli/complex_08_A_a.gif","forced_short","120","","","","","","6","complex_dissimilar","images/stimuli/complex_08_A_a.gif","",""
"","survey-multi-choice","113","820073","0.0-30.0","SS1627326672191","","3805.0999999940395","memory_test","","","","","","","","","{""Q0"":""No""}","[0]","images/stimuli/complex_22_A_b.gif","6","","","","","",""
"","survey-multi-choice","114","823308","0.0-31.0","SS1627326672191","","3227.2999999970198","memory_test","","","","","","","","","{""Q0"":""Yes""}","[0]","images/stimuli/complex_21_A_b.gif","6","","","","","",""
"","html-keyboard-response","115","824461","0.0-32.0-0.0","SS1627326672191","","null","","","null","","","","","","","","","","","<p><img src= images/blank.png width =""600"" height = ""600"" style=""position:fixed;top:50%; left:50%; transform: translate(-50%, -50%); border:5px solid black"">","","","","",""
"","stimuli-presentation","116","826498","0.0-32.0-1.0","SS1627326672191","","1896.2999999970198","trial","","40","500","2396.2999999970198","images/stimuli/complex_17_A_a.gif","images/stimuli/complex_05_A_b.gif","forced_short","120","","","","","","7","complex_dissimilar","images/stimuli/complex_05_A_b.gif","",""
"","html-keyboard-response","117","827616","0.0-32.0-0.1","SS1627326672191","","null","","","null","","","","","","","","","","","<p><img src= images/blank.png width =""600"" height = ""600"" style=""position:fixed;top:50%; left:50%; transform: translate(-50%, -50%); border:5px solid black"">","","","","",""
"","stimuli-presentation","118","829855","0.0-32.0-1.1","SS1627326672191","","1713.5","trial","","40","500","2213.5","images/stimuli/complex_17_A_a.gif","images/stimuli/complex_05_A_b.gif","forced_short","120","","","","","","7","complex_dissimilar","images/stimuli/complex_05_A_b.gif","",""
"","html-keyboard-response","119","830863","0.0-32.0-0.2","SS1627326672191","","null","","","null","","","","","","","","","","","<p><img src= images/blank.png width =""600"" height = ""600"" style=""position:fixed;top:50%; left:50%; transform: translate(-50%, -50%); border:5px solid black"">","","","","",""
"","stimuli-presentation","120","831936","0.0-32.0-1.2","SS1627326672191","","562.4000000059605","trial","","40","500","1062.4000000059605","images/stimuli/complex_17_A_a.gif","images/stimuli/complex_05_A_b.gif","forced_short","120","","","","","","7","complex_dissimilar","images/stimuli/complex_05_A_b.gif","",""
"","html-keyboard-response","121","832928","0.0-32.0-0.3","SS1627326672191","","null","","","null","","","","","","","","","","","<p><img src= images/blank.png width =""600"" height = ""600"" style=""position:fixed;top:50%; left:50%; transform: translate(-50%, -50%); border:5px solid black"">","","","","",""
"","stimuli-presentation","122","834175","0.0-32.0-1.3","SS1627326672191","","740.5999999940395","trial","","40","500","1240.5999999940395","images/stimuli/complex_17_A_a.gif","images/stimuli/complex_05_A_b.gif","forced_short","120","","","","","","7","complex_dissimilar","images/stimuli/complex_05_A_b.gif","",""
"","html-keyboard-response","123","835342","0.0-32.0-0.4","SS1627326672191","","null","","","null","","","","","","","","","","","<p><img src= images/blank.png width =""600"" height = ""600"" style=""position:fixed;top:50%; left:50%; transform: translate(-50%, -50%); border:5px solid black"">","","","","",""
"","stimuli-presentation","124","837642","0.0-32.0-1.4","SS1627326672191","","1786.2000000029802","trial","","40","500","2286.2000000029802","images/stimuli/complex_17_A_a.gif","images/stimuli/complex_05_A_b.gif","forced_short","120","","","","","","7","complex_dissimilar","images/stimuli/complex_05_A_b.gif","",""
"","html-keyboard-response","125","838503","0.0-32.0-0.5","SS1627326672191","","null","","","null","","","","","","","","","","","<p><img src= images/blank.png width =""600"" height = ""600"" style=""position:fixed;top:50%; left:50%; transform: translate(-50%, -50%); border:5px solid black"">","","","","",""
"","stimuli-presentation","126","840419","0.0-32.0-1.5","SS1627326672191","","1388.1000000089407","trial","","40","500","1888.1000000089407","images/stimuli/complex_17_A_a.gif","images/stimuli/complex_05_A_b.gif","forced_short","120","","","","","","7","complex_dissimilar","images/stimuli/complex_05_A_b.gif","",""
"","survey-multi-choice","127","843789","0.0-33.0","SS1627326672191","","3361.9000000059605","memory_test","","","","","","","","","{""Q0"":""No""}","[0]","images/stimuli/complex_14_A_a.gif","7","","","","","",""
"","survey-multi-choice","128","846994","0.0-34.0","SS1627326672191","","3195.8999999910593","memory_test","","","","","","","","","{""Q0"":""Yes""}","[0]","images/stimuli/complex_05_A_b.gif","7","","","","","",""
"","instructions","129","855420","0.0-35.0","SS1627326672191","[{""page_index"":0,""viewing_time"":8418.90000000596}]","8419.79999999702","instructions","","","","","","","","","","","","","","","","","",""
"","survey-likert","130","876011","0.0-36.0","SS1627326672191","","20580.39999999106","similarity_question","","","","","","","","","{""Q0"":1}","[0]","","","","","","","images/stimuli/complex_06_A_b.gif","images/stimuli/complex_19_A_a.gif"
"","survey-likert","131","886039","0.0-37.0","SS1627326672191","","10016.90000000596","similarity_question","","","","","","","","","{""Q0"":0}","[0]","","","","","","","images/stimuli/complex_13_A_b.gif","images/stimuli/complex_01_A_a.gif"
"","survey-likert","132","892449","0.0-38.0","SS1627326672191","","6399.29999999702","similarity_question","","","","","","","","","{""Q0"":1}","[0]","","","","","","","images/stimuli/complex_08_A_a.gif","images/stimuli/complex_21_A_b.gif"
"","survey-likert","133","900658","0.0-39.0","SS1627326672191","","8201.09999999404","similarity_question","","","","","","","","","{""Q0"":0}","[0]","","","","","","","images/stimuli/complex_16_A_a.gif","images/stimuli/complex_23_A_a.gif"
"","survey-likert","134","908006","0.0-40.0","SS1627326672191","","7337.29999999702","similarity_question","","","","","","","","","{""Q0"":0}","[0]","","","","","","","images/stimuli/complex_15_A_b.gif","images/stimuli/complex_11_A_a.gif"
"","survey-likert","135","920043","0.0-41.0","SS1627326672191","","12026.90000000596","similarity_question","","","","","","","","","{""Q0"":0}","[0]","","","","","","","images/stimuli/complex_03_A_b.gif","images/stimuli/complex_12_A_b.gif"
"","survey-likert","136","926227","0.0-42.0","SS1627326672191","","6173.79999999702","similarity_question","","","","","","","","","{""Q0"":1}","[0]","","","","","","","images/stimuli/complex_05_A_b.gif","images/stimuli/complex_17_A_a.gif"
"","survey-likert","137","944824","0.0-43.0","SS1627326672191","","18588.60000000894","similarity_question","","","","","","","","","{""Q0"":4}","[0]","","","","","","","images/stimuli/complex_04_A_a.gif","images/stimuli/complex_24_A_a.gif"
"","instructions","138","956144","0.0-44.0","SS1627326672191","[{""page_index"":0,""viewing_time"":11312.59999999404}]","11313.39999999106","instructions","","","","","","","","","","","","","","","","","",""
"","survey-likert","139","971160","0.0-45.0","SS1627326672191","","15008.70000000298","","","","","","","","","","{""Q0"":5}","[0]","","","images/stimuli/complex_12_A_b.gif","","","","",""
"","survey-likert","140","981561","0.0-46.0","SS1627326672191","","10393.59999999404","","","","","","","","","","{""Q0"":6}","[0]","","","images/stimuli/complex_04_A_a.gif","","","","",""
"","survey-likert","141","991756","0.0-47.0","SS1627326672191","","10186.800000011921","","","","","","","","","","{""Q0"":6}","[0]","","","images/stimuli/complex_13_A_b.gif","","","","",""
"","survey-likert","142","996737","0.0-48.0","SS1627326672191","","4973","","","","","","","","","","{""Q0"":1}","[0]","","","images/stimuli/complex_15_A_b.gif","","","","",""
"","survey-likert","143","1003736","0.0-49.0","SS1627326672191","","6990","","","","","","","","","","{""Q0"":3}","[0]","","","images/stimuli/complex_19_A_a.gif","","","","",""
"","survey-likert","144","1008402","0.0-50.0","SS1627326672191","","4656.29999999702","","","","","","","","","","{""Q0"":0}","[0]","","","images/stimuli/complex_23_A_a.gif","","","","",""
"","survey-likert","145","1014153","0.0-51.0","SS1627326672191","","5741.79999999702","","","","","","","","","","{""Q0"":0}","[0]","","","images/stimuli/complex_17_A_a.gif","","","","",""
"","survey-likert","146","1021777","0.0-52.0","SS1627326672191","","7613","","","","","","","","","","{""Q0"":3}","[0]","","","images/stimuli/complex_08_A_a.gif","","","","",""
"true","fullscreen","147","1022820","0.0-53.0","SS1627326672191","","","","","","","","","","","","","","","","","","","","",""
"","instructions","148","1028336","0.0-54.0","SS1627326672191","[{""page_index"":0,""viewing_time"":5505.5999999940395}]","5506.399999991059","instructions","","","","","","","","","","","","","","","","","",""
"","demog-age","149","1031633","0.0-55.0","SS1627326672191","","3266.699999988079","","","","","","","","","","{""age"":""19""}","","","","","","","","",""
"","demog-ethnic-US","150","1046095","0.0-56.0","SS1627326672191","","14429.20000000298","","","","","","","","","","{""ethnicity"":[""Black or African American""]}","[0]","","","","","","","",""
"","demog-gender-and-education","151","1073403","0.0-57.0","SS1627326672191","","27295.5","","","","","","","","","","{""gender"":""Male"",""education"":""Bachelor's Degree""}","[0,1]","","","","","","","",""
"","survey-text","152","1103421","0.0-58.0","SS1627326672191","","29998.40000000596","feedback","","","","","","","","","{""Q0"":""No the was no laggy towards the experiment""}","","","","","","","","",""
"","instructions","153","1107288","0.0-59.0","SS1627326672191","[{""page_index"":0,""viewing_time"":3855.3999999910593}]","3856.2999999970198","instructions","","","","","","","","","","","","","","","","","",""
