"success","trial_type","trial_index","time_elapsed","internal_node_id","subject","view_history","rt","stimulus_type","trial_stimulus","key_press","minimum_viewing_duration","trial_looking_time","block_deviant","block_background","exposure_type","forced_exposure_time","responses","question_order","memory_question_stimuli","memory_block_index","stimulus","block_number","block_type","stimulus_displayed","stimulus_left","stimulus_right"
"true","fullscreen","0","3452","0.0-0.0","SS1627326866941","","","","","","","","","","","","","","","","","","","","",""
"","instructions","1","8390","0.0-1.0","SS1627326866941","[{""page_index"":0,""viewing_time"":4934.399999976158}]","4935","","","","","","","","","","","","","","","","","","",""
"","instructions","2","20095","0.0-2.0","SS1627326866941","[{""page_index"":0,""viewing_time"":6403.5},{""page_index"":1,""viewing_time"":3297.7999999523163}]","9701.600000023842","instructions","","","","","","","","","","","","","","","","","",""
"","stimuli-presentation","3","25835","0.0-3.0","SS1627326866941","","5235.900000095367","","","40","500","5735.900000095367","null","null","self_paced","0","","","","","","","","","",""
"","instructions","4","31360","0.0-4.0","SS1627326866941","[{""page_index"":0,""viewing_time"":5523.599999904633}]","5523.899999976158","instructions","","","","","","","","","","","","","","","","","",""
"","stimuli-presentation","5","34799","0.0-5.0","SS1627326866941","","2933.100000023842","","","40","500","3433.100000023842","null","null","forced_short","500","","","","","","","","","",""
"","stimuli-presentation","6","36358","0.0-6.0","SS1627326866941","","1055.2999999523163","","","40","500","1555.2999999523163","null","null","forced_short","500","","","","","","","","","",""
"","instructions","7","41108","0.0-7.0","SS1627326866941","[{""page_index"":0,""viewing_time"":4748.200000047684}]","4748.5","instructions","","","","","","","","","","","","","","","","","",""
"","survey-multi-choice","8","44175","0.0-8.0","SS1627326866941","","3061.5","memory_test_practice","","","","","","","","","{""Q0"":""Yes""}","[0]","images/practice/instructions_example_spore2.gif","0","","","","","",""
"","survey-multi-choice","9","46442","0.0-9.0","SS1627326866941","","2264.5","memory_test_practice","","","","","","","","","{""Q0"":""No""}","[0]","images/practice/instructions_example_spore0.gif","0","","","","","",""
"","instructions","10","52161","0.0-10.0","SS1627326866941","[{""page_index"":0,""viewing_time"":4838.399999976158},{""page_index"":1,""viewing_time"":877.7000000476837}]","5716.5","instructions","","","","","","","","","","","","","","","","","",""
"","html-keyboard-response","11","53129","0.0-11.0-0.0","SS1627326866941","","null","","","null","","","","","","","","","","","<p><img src= images/blank.png width =""600"" height = ""600"" style=""position:fixed;top:50%; left:50%; transform: translate(-50%, -50%); border:5px solid black"">","","","","",""
"","stimuli-presentation","12","55386","0.0-11.0-1.0","SS1627326866941","","1867.6999999284744","trial","","40","500","2367.6999999284744","images/stimuli/complex_19_A_a.gif","images/stimuli/complex_22_A_b.gif","forced_short","380","","","","","","0","complex_dissimilar","images/stimuli/complex_22_A_b.gif","",""
"","html-keyboard-response","13","56287","0.0-11.0-0.1","SS1627326866941","","null","","","null","","","","","","","","","","","<p><img src= images/blank.png width =""600"" height = ""600"" style=""position:fixed;top:50%; left:50%; transform: translate(-50%, -50%); border:5px solid black"">","","","","",""
"","stimuli-presentation","14","58834","0.0-11.0-1.1","SS1627326866941","","2043","trial","","40","500","2543","images/stimuli/complex_19_A_a.gif","images/stimuli/complex_22_A_b.gif","forced_short","380","","","","","","0","complex_dissimilar","images/stimuli/complex_22_A_b.gif","",""
"","html-keyboard-response","15","59675","0.0-11.0-0.2","SS1627326866941","","null","","","null","","","","","","","","","","","<p><img src= images/blank.png width =""600"" height = ""600"" style=""position:fixed;top:50%; left:50%; transform: translate(-50%, -50%); border:5px solid black"">","","","","",""
"","stimuli-presentation","16","61034","0.0-11.0-1.2","SS1627326866941","","852.1000000238419","trial","","40","500","1352.1000000238419","images/stimuli/complex_19_A_a.gif","images/stimuli/complex_22_A_b.gif","forced_short","380","","","","","","0","complex_dissimilar","images/stimuli/complex_22_A_b.gif","",""
"","html-keyboard-response","17","62026","0.0-11.0-0.3","SS1627326866941","","null","","","null","","","","","","","","","","","<p><img src= images/blank.png width =""600"" height = ""600"" style=""position:fixed;top:50%; left:50%; transform: translate(-50%, -50%); border:5px solid black"">","","","","",""
"","stimuli-presentation","18","63248","0.0-11.0-1.3","SS1627326866941","","716.7000000476837","trial","","40","500","1216.7000000476837","images/stimuli/complex_19_A_a.gif","images/stimuli/complex_22_A_b.gif","forced_short","380","","","","","","0","complex_dissimilar","images/stimuli/complex_22_A_b.gif","",""
"","html-keyboard-response","19","64441","0.0-11.0-0.4","SS1627326866941","","null","","","null","","","","","","","","","","","<p><img src= images/blank.png width =""600"" height = ""600"" style=""position:fixed;top:50%; left:50%; transform: translate(-50%, -50%); border:5px solid black"">","","","","",""
"","stimuli-presentation","20","67314","0.0-11.0-1.4","SS1627326866941","","2361.9000000953674","trial","","40","500","2861.9000000953674","images/stimuli/complex_19_A_a.gif","images/stimuli/complex_22_A_b.gif","forced_short","380","","","","","","0","complex_dissimilar","images/stimuli/complex_22_A_b.gif","",""
"","html-keyboard-response","21","68325","0.0-11.0-0.5","SS1627326866941","","null","","","null","","","","","","","","","","","<p><img src= images/blank.png width =""600"" height = ""600"" style=""position:fixed;top:50%; left:50%; transform: translate(-50%, -50%); border:5px solid black"">","","","","",""
"","stimuli-presentation","22","69355","0.0-11.0-1.5","SS1627326866941","","526.2000000476837","trial","","40","500","1026.2000000476837","images/stimuli/complex_19_A_a.gif","images/stimuli/complex_22_A_b.gif","forced_short","380","","","","","","0","complex_dissimilar","images/stimuli/complex_22_A_b.gif","",""
"","html-keyboard-response","23","70461","0.0-11.0-0.6","SS1627326866941","","null","","","null","","","","","","","","","","","<p><img src= images/blank.png width =""600"" height = ""600"" style=""position:fixed;top:50%; left:50%; transform: translate(-50%, -50%); border:5px solid black"">","","","","",""
"","stimuli-presentation","24","72799","0.0-11.0-1.6","SS1627326866941","","1834.8999999761581","trial","","40","500","2334.899999976158","images/stimuli/complex_19_A_a.gif","images/stimuli/complex_22_A_b.gif","forced_short","380","","","","","","0","complex_dissimilar","images/stimuli/complex_22_A_b.gif","",""
"","survey-multi-choice","25","75139","0.0-12.0","SS1627326866941","","2335.7999999523163","memory_test","","","","","","","","","{""Q0"":""Yes""}","[0]","images/stimuli/complex_22_A_b.gif","0","","","","","",""
"","survey-multi-choice","26","77246","0.0-13.0","SS1627326866941","","2103","memory_test","","","","","","","","","{""Q0"":""No""}","[0]","images/stimuli/complex_13_A_a.gif","0","","","","","",""
"","html-keyboard-response","27","78063","0.0-14.0-0.0","SS1627326866941","","null","","","null","","","","","","","","","","","<p><img src= images/blank.png width =""600"" height = ""600"" style=""position:fixed;top:50%; left:50%; transform: translate(-50%, -50%); border:5px solid black"">","","","","",""
"","stimuli-presentation","28","79329","0.0-14.0-1.0","SS1627326866941","","708.3999999761581","trial","","40","500","1208.3999999761581","images/stimuli/complex_11_A_b.gif","images/stimuli/complex_14_A_b.gif","forced_short","550","","","","","","1","complex_dissimilar","images/stimuli/complex_14_A_b.gif","",""
"","html-keyboard-response","29","80375","0.0-14.0-0.1","SS1627326866941","","null","","","null","","","","","","","","","","","<p><img src= images/blank.png width =""600"" height = ""600"" style=""position:fixed;top:50%; left:50%; transform: translate(-50%, -50%); border:5px solid black"">","","","","",""
"","stimuli-presentation","30","82381","0.0-14.0-1.1","SS1627326866941","","1495.7999999523163","trial","","40","500","1995.7999999523163","images/stimuli/complex_11_A_b.gif","images/stimuli/complex_14_A_b.gif","forced_short","550","","","","","","1","complex_dissimilar","images/stimuli/complex_14_A_b.gif","",""
"","html-keyboard-response","31","83485","0.0-14.0-0.2","SS1627326866941","","null","","","null","","","","","","","","","","","<p><img src= images/blank.png width =""600"" height = ""600"" style=""position:fixed;top:50%; left:50%; transform: translate(-50%, -50%); border:5px solid black"">","","","","",""
"","stimuli-presentation","32","84081","0.0-14.0-1.2","SS1627326866941","","91.79999995231628","trial","","40","500","591.7999999523163","images/stimuli/complex_11_A_b.gif","images/stimuli/complex_14_A_b.gif","forced_short","550","","","","","","1","complex_dissimilar","images/stimuli/complex_14_A_b.gif","",""
"","html-keyboard-response","33","85091","0.0-14.0-0.3","SS1627326866941","","null","","","null","","","","","","","","","","","<p><img src= images/blank.png width =""600"" height = ""600"" style=""position:fixed;top:50%; left:50%; transform: translate(-50%, -50%); border:5px solid black"">","","","","",""
"","stimuli-presentation","34","86431","0.0-14.0-1.3","SS1627326866941","","836","trial","","40","500","1336","images/stimuli/complex_11_A_b.gif","images/stimuli/complex_14_A_b.gif","forced_short","550","","","","","","1","complex_dissimilar","images/stimuli/complex_14_A_b.gif","",""
"","html-keyboard-response","35","87725","0.0-14.0-0.4","SS1627326866941","","null","","","null","","","","","","","","","","","<p><img src= images/blank.png width =""600"" height = ""600"" style=""position:fixed;top:50%; left:50%; transform: translate(-50%, -50%); border:5px solid black"">","","","","",""
"","stimuli-presentation","36","88841","0.0-14.0-1.4","SS1627326866941","","607.6000000238419","trial","","40","500","1107.6000000238419","images/stimuli/complex_11_A_b.gif","images/stimuli/complex_14_A_b.gif","forced_short","550","","","","","","1","complex_dissimilar","images/stimuli/complex_14_A_b.gif","",""
"","html-keyboard-response","37","89683","0.0-14.0-0.5","SS1627326866941","","null","","","null","","","","","","","","","","","<p><img src= images/blank.png width =""600"" height = ""600"" style=""position:fixed;top:50%; left:50%; transform: translate(-50%, -50%); border:5px solid black"">","","","","",""
"","stimuli-presentation","38","90684","0.0-14.0-1.5","SS1627326866941","","495.7999999523163","trial","","40","500","995.7999999523163","images/stimuli/complex_11_A_b.gif","images/stimuli/complex_14_A_b.gif","forced_short","550","","","","","","1","complex_dissimilar","images/stimuli/complex_14_A_b.gif","",""
"","html-keyboard-response","39","91825","0.0-14.0-0.6","SS1627326866941","","null","","","null","","","","","","","","","","","<p><img src= images/blank.png width =""600"" height = ""600"" style=""position:fixed;top:50%; left:50%; transform: translate(-50%, -50%); border:5px solid black"">","","","","",""
"","stimuli-presentation","40","93803","0.0-14.0-1.6","SS1627326866941","","1473.1000000238419","trial","","40","500","1973.1000000238419","images/stimuli/complex_11_A_b.gif","images/stimuli/complex_14_A_b.gif","forced_short","550","","","","","","1","complex_dissimilar","images/stimuli/complex_11_A_b.gif","",""
"","html-keyboard-response","41","94687","0.0-14.0-0.7","SS1627326866941","","null","","","null","","","","","","","","","","","<p><img src= images/blank.png width =""600"" height = ""600"" style=""position:fixed;top:50%; left:50%; transform: translate(-50%, -50%); border:5px solid black"">","","","","",""
"","stimuli-presentation","42","95272","0.0-14.0-1.7","SS1627326866941","","78.59999990463257","trial","","40","500","578.5999999046326","images/stimuli/complex_11_A_b.gif","images/stimuli/complex_14_A_b.gif","forced_short","550","","","","","","1","complex_dissimilar","images/stimuli/complex_14_A_b.gif","",""
"","survey-multi-choice","43","98051","0.0-15.0","SS1627326866941","","2776.899999976158","memory_test","","","","","","","","","{""Q0"":""No""}","[0]","images/stimuli/complex_16_A_a.gif","1","","","","","",""
"","survey-multi-choice","44","99597","0.0-16.0","SS1627326866941","","1542.2000000476837","memory_test","","","","","","","","","{""Q0"":""Yes""}","[0]","images/stimuli/complex_14_A_b.gif","1","","","","","",""
"","html-keyboard-response","45","100793","0.0-17.0-0.0","SS1627326866941","","null","","","null","","","","","","","","","","","<p><img src= images/blank.png width =""600"" height = ""600"" style=""position:fixed;top:50%; left:50%; transform: translate(-50%, -50%); border:5px solid black"">","","","","",""
"","stimuli-presentation","46","101592","0.0-17.0-1.0","SS1627326866941","","479.2999999523163","trial","","40","500","979.2999999523163","images/stimuli/complex_12_A_b.gif","images/stimuli/complex_08_A_a.gif","forced_short","310","","","","","","2","complex_dissimilar","images/stimuli/complex_08_A_a.gif","",""
"","html-keyboard-response","47","102841","0.0-17.0-0.1","SS1627326866941","","null","","","null","","","","","","","","","","","<p><img src= images/blank.png width =""600"" height = ""600"" style=""position:fixed;top:50%; left:50%; transform: translate(-50%, -50%); border:5px solid black"">","","","","",""
"","stimuli-presentation","48","103836","0.0-17.0-1.1","SS1627326866941","","487.09999990463257","trial","","40","500","987.0999999046326","images/stimuli/complex_12_A_b.gif","images/stimuli/complex_08_A_a.gif","forced_short","310","","","","","","2","complex_dissimilar","images/stimuli/complex_08_A_a.gif","",""
"","html-keyboard-response","49","104932","0.0-17.0-0.2","SS1627326866941","","null","","","null","","","","","","","","","","","<p><img src= images/blank.png width =""600"" height = ""600"" style=""position:fixed;top:50%; left:50%; transform: translate(-50%, -50%); border:5px solid black"">","","","","",""
"","stimuli-presentation","50","106484","0.0-17.0-1.2","SS1627326866941","","1044.7999999523163","trial","","40","500","1544.7999999523163","images/stimuli/complex_12_A_b.gif","images/stimuli/complex_08_A_a.gif","forced_short","310","","","","","","2","complex_dissimilar","images/stimuli/complex_08_A_a.gif","",""
"","html-keyboard-response","51","107596","0.0-17.0-0.3","SS1627326866941","","null","","","null","","","","","","","","","","","<p><img src= images/blank.png width =""600"" height = ""600"" style=""position:fixed;top:50%; left:50%; transform: translate(-50%, -50%); border:5px solid black"">","","","","",""
"","stimuli-presentation","52","108383","0.0-17.0-1.3","SS1627326866941","","281.39999997615814","trial","","40","500","781.3999999761581","images/stimuli/complex_12_A_b.gif","images/stimuli/complex_08_A_a.gif","forced_short","310","","","","","","2","complex_dissimilar","images/stimuli/complex_08_A_a.gif","",""
"","html-keyboard-response","53","109626","0.0-17.0-0.4","SS1627326866941","","null","","","null","","","","","","","","","","","<p><img src= images/blank.png width =""600"" height = ""600"" style=""position:fixed;top:50%; left:50%; transform: translate(-50%, -50%); border:5px solid black"">","","","","",""
"","stimuli-presentation","54","111219","0.0-17.0-1.4","SS1627326866941","","1085.3999999761581","trial","","40","500","1585.3999999761581","images/stimuli/complex_12_A_b.gif","images/stimuli/complex_08_A_a.gif","forced_short","310","","","","","","2","complex_dissimilar","images/stimuli/complex_08_A_a.gif","",""
"","html-keyboard-response","55","112089","0.0-17.0-0.5","SS1627326866941","","null","","","null","","","","","","","","","","","<p><img src= images/blank.png width =""600"" height = ""600"" style=""position:fixed;top:50%; left:50%; transform: translate(-50%, -50%); border:5px solid black"">","","","","",""
"","stimuli-presentation","56","112753","0.0-17.0-1.5","SS1627326866941","","158.20000004768372","trial","","40","500","658.2000000476837","images/stimuli/complex_12_A_b.gif","images/stimuli/complex_08_A_a.gif","forced_short","310","","","","","","2","complex_dissimilar","images/stimuli/complex_08_A_a.gif","",""
"","html-keyboard-response","57","113569","0.0-17.0-0.6","SS1627326866941","","null","","","null","","","","","","","","","","","<p><img src= images/blank.png width =""600"" height = ""600"" style=""position:fixed;top:50%; left:50%; transform: translate(-50%, -50%); border:5px solid black"">","","","","",""
"","stimuli-presentation","58","114285","0.0-17.0-1.6","SS1627326866941","","210.90000009536743","trial","","40","500","710.9000000953674","images/stimuli/complex_12_A_b.gif","images/stimuli/complex_08_A_a.gif","forced_short","310","","","","","","2","complex_dissimilar","images/stimuli/complex_08_A_a.gif","",""
"","survey-multi-choice","59","116367","0.0-18.0","SS1627326866941","","2077.7999999523163","memory_test","","","","","","","","","{""Q0"":""Yes""}","[0]","images/stimuli/complex_08_A_a.gif","2","","","","","",""
"","survey-multi-choice","60","118142","0.0-19.0","SS1627326866941","","1769.7000000476837","memory_test","","","","","","","","","{""Q0"":""No""}","[0]","images/stimuli/complex_21_A_b.gif","2","","","","","",""
"","html-keyboard-response","61","119141","0.0-20.0-0.0","SS1627326866941","","null","","","null","","","","","","","","","","","<p><img src= images/blank.png width =""600"" height = ""600"" style=""position:fixed;top:50%; left:50%; transform: translate(-50%, -50%); border:5px solid black"">","","","","",""
"","stimuli-presentation","62","120418","0.0-20.0-1.0","SS1627326866941","","859.7999999523163","trial","","40","500","1359.7999999523163","images/stimuli/complex_06_A_a.gif","images/stimuli/complex_18_A_a.gif","forced_short","410","","","","","","3","complex_dissimilar","images/stimuli/complex_18_A_a.gif","",""
"","html-keyboard-response","63","121263","0.0-20.0-0.1","SS1627326866941","","null","","","null","","","","","","","","","","","<p><img src= images/blank.png width =""600"" height = ""600"" style=""position:fixed;top:50%; left:50%; transform: translate(-50%, -50%); border:5px solid black"">","","","","",""
"","stimuli-presentation","64","123691","0.0-20.0-1.1","SS1627326866941","","1922.7000000476837","trial","","40","500","2422.7000000476837","images/stimuli/complex_06_A_a.gif","images/stimuli/complex_18_A_a.gif","forced_short","410","","","","","","3","complex_dissimilar","images/stimuli/complex_18_A_a.gif","",""
"","html-keyboard-response","65","124892","0.0-20.0-0.2","SS1627326866941","","null","","","null","","","","","","","","","","","<p><img src= images/blank.png width =""600"" height = ""600"" style=""position:fixed;top:50%; left:50%; transform: translate(-50%, -50%); border:5px solid black"">","","","","",""
"","stimuli-presentation","66","125469","0.0-20.0-1.2","SS1627326866941","","67.29999995231628","trial","","40","500","567.2999999523163","images/stimuli/complex_06_A_a.gif","images/stimuli/complex_18_A_a.gif","forced_short","410","","","","","","3","complex_dissimilar","images/stimuli/complex_18_A_a.gif","",""
"","html-keyboard-response","67","126541","0.0-20.0-0.3","SS1627326866941","","null","","","null","","","","","","","","","","","<p><img src= images/blank.png width =""600"" height = ""600"" style=""position:fixed;top:50%; left:50%; transform: translate(-50%, -50%); border:5px solid black"">","","","","",""
"","stimuli-presentation","68","127056","0.0-20.0-1.3","SS1627326866941","","8","trial","","40","500","508","images/stimuli/complex_06_A_a.gif","images/stimuli/complex_18_A_a.gif","forced_short","410","","","","","","3","complex_dissimilar","images/stimuli/complex_18_A_a.gif","",""
"","html-keyboard-response","69","128310","0.0-20.0-0.4","SS1627326866941","","null","","","null","","","","","","","","","","","<p><img src= images/blank.png width =""600"" height = ""600"" style=""position:fixed;top:50%; left:50%; transform: translate(-50%, -50%); border:5px solid black"">","","","","",""
"","stimuli-presentation","70","129775","0.0-20.0-1.4","SS1627326866941","","956.6000000238419","trial","","40","500","1456.6000000238419","images/stimuli/complex_06_A_a.gif","images/stimuli/complex_18_A_a.gif","forced_short","410","","","","","","3","complex_dissimilar","images/stimuli/complex_18_A_a.gif","",""
"","html-keyboard-response","71","130868","0.0-20.0-0.5","SS1627326866941","","null","","","null","","","","","","","","","","","<p><img src= images/blank.png width =""600"" height = ""600"" style=""position:fixed;top:50%; left:50%; transform: translate(-50%, -50%); border:5px solid black"">","","","","",""
"","stimuli-presentation","72","131594","0.0-20.0-1.5","SS1627326866941","","217.30000007152557","trial","","40","500","717.3000000715256","images/stimuli/complex_06_A_a.gif","images/stimuli/complex_18_A_a.gif","forced_short","410","","","","","","3","complex_dissimilar","images/stimuli/complex_18_A_a.gif","",""
"","survey-multi-choice","73","134734","0.0-21.0","SS1627326866941","","3136.0999999046326","memory_test","","","","","","","","","{""Q0"":""No""}","[0]","images/stimuli/complex_15_A_a.gif","3","","","","","",""
"","survey-multi-choice","74","136313","0.0-22.0","SS1627326866941","","1573.5","memory_test","","","","","","","","","{""Q0"":""Yes""}","[0]","images/stimuli/complex_18_A_a.gif","3","","","","","",""
"","html-keyboard-response","75","137209","0.0-23.0-0.0","SS1627326866941","","null","","","null","","","","","","","","","","","<p><img src= images/blank.png width =""600"" height = ""600"" style=""position:fixed;top:50%; left:50%; transform: translate(-50%, -50%); border:5px solid black"">","","","","",""
"","stimuli-presentation","76","138719","0.0-23.0-1.0","SS1627326866941","","542.7000000476837","trial","","40","500","1042.7000000476837","images/stimuli/complex_05_A_a.gif","images/stimuli/complex_01_A_b.gif","forced_short","960","","","","","","4","complex_dissimilar","images/stimuli/complex_01_A_b.gif","",""
"","html-keyboard-response","77","139810","0.0-23.0-0.1","SS1627326866941","","null","","","null","","","","","","","","","","","<p><img src= images/blank.png width =""600"" height = ""600"" style=""position:fixed;top:50%; left:50%; transform: translate(-50%, -50%); border:5px solid black"">","","","","",""
"","stimuli-presentation","78","141120","0.0-23.0-1.1","SS1627326866941","","803.7000000476837","trial","","40","500","1303.7000000476837","images/stimuli/complex_05_A_a.gif","images/stimuli/complex_01_A_b.gif","forced_short","960","","","","","","4","complex_dissimilar","images/stimuli/complex_01_A_b.gif","",""
"","html-keyboard-response","79","142119","0.0-23.0-0.2","SS1627326866941","","null","","","null","","","","","","","","","","","<p><img src= images/blank.png width =""600"" height = ""600"" style=""position:fixed;top:50%; left:50%; transform: translate(-50%, -50%); border:5px solid black"">","","","","",""
"","stimuli-presentation","80","143119","0.0-23.0-1.2","SS1627326866941","","494.60000002384186","trial","","40","500","994.6000000238419","images/stimuli/complex_05_A_a.gif","images/stimuli/complex_01_A_b.gif","forced_short","960","","","","","","4","complex_dissimilar","images/stimuli/complex_01_A_b.gif","",""
"","html-keyboard-response","81","144232","0.0-23.0-0.3","SS1627326866941","","null","","","null","","","","","","","","","","","<p><img src= images/blank.png width =""600"" height = ""600"" style=""position:fixed;top:50%; left:50%; transform: translate(-50%, -50%); border:5px solid black"">","","","","",""
"","stimuli-presentation","82","145206","0.0-23.0-1.3","SS1627326866941","","466.2999999523163","trial","","40","500","966.2999999523163","images/stimuli/complex_05_A_a.gif","images/stimuli/complex_01_A_b.gif","forced_short","960","","","","","","4","complex_dissimilar","images/stimuli/complex_05_A_a.gif","",""
"","html-keyboard-response","83","146134","0.0-23.0-0.4","SS1627326866941","","null","","","null","","","","","","","","","","","<p><img src= images/blank.png width =""600"" height = ""600"" style=""position:fixed;top:50%; left:50%; transform: translate(-50%, -50%); border:5px solid black"">","","","","",""
"","stimuli-presentation","84","146808","0.0-23.0-1.4","SS1627326866941","","167.79999995231628","trial","","40","500","667.7999999523163","images/stimuli/complex_05_A_a.gif","images/stimuli/complex_01_A_b.gif","forced_short","960","","","","","","4","complex_dissimilar","images/stimuli/complex_01_A_b.gif","",""
"","html-keyboard-response","85","147799","0.0-23.0-0.5","SS1627326866941","","null","","","null","","","","","","","","","","","<p><img src= images/blank.png width =""600"" height = ""600"" style=""position:fixed;top:50%; left:50%; transform: translate(-50%, -50%); border:5px solid black"">","","","","",""
"","stimuli-presentation","86","148452","0.0-23.0-1.5","SS1627326866941","","148.30000007152557","trial","","40","500","648.3000000715256","images/stimuli/complex_05_A_a.gif","images/stimuli/complex_01_A_b.gif","forced_short","960","","","","","","4","complex_dissimilar","images/stimuli/complex_05_A_a.gif","",""
"","html-keyboard-response","87","149681","0.0-23.0-0.6","SS1627326866941","","null","","","null","","","","","","","","","","","<p><img src= images/blank.png width =""600"" height = ""600"" style=""position:fixed;top:50%; left:50%; transform: translate(-50%, -50%); border:5px solid black"">","","","","",""
"","stimuli-presentation","88","150730","0.0-23.0-1.6","SS1627326866941","","543.0999999046326","trial","","40","500","1043.0999999046326","images/stimuli/complex_05_A_a.gif","images/stimuli/complex_01_A_b.gif","forced_short","960","","","","","","4","complex_dissimilar","images/stimuli/complex_01_A_b.gif","",""
"","survey-multi-choice","89","152752","0.0-24.0","SS1627326866941","","2017.3999999761581","memory_test","","","","","","","","","{""Q0"":""Yes""}","[0]","images/stimuli/complex_05_A_a.gif","4","","","","","",""
"","survey-multi-choice","90","154706","0.0-25.0","SS1627326866941","","1948.7999999523163","memory_test","","","","","","","","","{""Q0"":""No""}","[0]","images/stimuli/complex_03_A_a.gif","4","","","","","",""
"","html-keyboard-response","91","155607","0.0-26.0-0.0","SS1627326866941","","null","","","null","","","","","","","","","","","<p><img src= images/blank.png width =""600"" height = ""600"" style=""position:fixed;top:50%; left:50%; transform: translate(-50%, -50%); border:5px solid black"">","","","","",""
"","stimuli-presentation","92","156983","0.0-26.0-1.0","SS1627326866941","","678.3999999761581","trial","","40","500","1178.3999999761581","images/stimuli/complex_09_A_b.gif","images/stimuli/complex_10_A_b.gif","forced_short","690","","","","","","5","complex_dissimilar","images/stimuli/complex_10_A_b.gif","",""
"","html-keyboard-response","93","157899","0.0-26.0-0.1","SS1627326866941","","null","","","null","","","","","","","","","","","<p><img src= images/blank.png width =""600"" height = ""600"" style=""position:fixed;top:50%; left:50%; transform: translate(-50%, -50%); border:5px solid black"">","","","","",""
"","stimuli-presentation","94","158485","0.0-26.0-1.1","SS1627326866941","","82.70000004768372","trial","","40","500","582.7000000476837","images/stimuli/complex_09_A_b.gif","images/stimuli/complex_10_A_b.gif","forced_short","690","","","","","","5","complex_dissimilar","images/stimuli/complex_10_A_b.gif","",""
"","html-keyboard-response","95","159593","0.0-26.0-0.2","SS1627326866941","","null","","","null","","","","","","","","","","","<p><img src= images/blank.png width =""600"" height = ""600"" style=""position:fixed;top:50%; left:50%; transform: translate(-50%, -50%); border:5px solid black"">","","","","",""
"","stimuli-presentation","96","161168","0.0-26.0-1.2","SS1627326866941","","1069.8000000715256","trial","","40","500","1569.8000000715256","images/stimuli/complex_09_A_b.gif","images/stimuli/complex_10_A_b.gif","forced_short","690","","","","","","5","complex_dissimilar","images/stimuli/complex_10_A_b.gif","",""
"","html-keyboard-response","97","162231","0.0-26.0-0.3","SS1627326866941","","null","","","null","","","","","","","","","","","<p><img src= images/blank.png width =""600"" height = ""600"" style=""position:fixed;top:50%; left:50%; transform: translate(-50%, -50%); border:5px solid black"">","","","","",""
"","stimuli-presentation","98","162930","0.0-26.0-1.3","SS1627326866941","","189","trial","","40","500","689","images/stimuli/complex_09_A_b.gif","images/stimuli/complex_10_A_b.gif","forced_short","690","","","","","","5","complex_dissimilar","images/stimuli/complex_10_A_b.gif","",""
"","html-keyboard-response","99","164159","0.0-26.0-0.4","SS1627326866941","","null","","","null","","","","","","","","","","","<p><img src= images/blank.png width =""600"" height = ""600"" style=""position:fixed;top:50%; left:50%; transform: translate(-50%, -50%); border:5px solid black"">","","","","",""
"","stimuli-presentation","100","164805","0.0-26.0-1.4","SS1627326866941","","137.79999995231628","trial","","40","500","637.7999999523163","images/stimuli/complex_09_A_b.gif","images/stimuli/complex_10_A_b.gif","forced_short","690","","","","","","5","complex_dissimilar","images/stimuli/complex_10_A_b.gif","",""
"","html-keyboard-response","101","165676","0.0-26.0-0.5","SS1627326866941","","null","","","null","","","","","","","","","","","<p><img src= images/blank.png width =""600"" height = ""600"" style=""position:fixed;top:50%; left:50%; transform: translate(-50%, -50%); border:5px solid black"">","","","","",""
"","stimuli-presentation","102","166350","0.0-26.0-1.5","SS1627326866941","","169.5","trial","","40","500","669.5","images/stimuli/complex_09_A_b.gif","images/stimuli/complex_10_A_b.gif","forced_short","690","","","","","","5","complex_dissimilar","images/stimuli/complex_10_A_b.gif","",""
"","html-keyboard-response","103","167469","0.0-26.0-0.6","SS1627326866941","","null","","","null","","","","","","","","","","","<p><img src= images/blank.png width =""600"" height = ""600"" style=""position:fixed;top:50%; left:50%; transform: translate(-50%, -50%); border:5px solid black"">","","","","",""
"","stimuli-presentation","104","168691","0.0-26.0-1.6","SS1627326866941","","715.2999999523163","trial","","40","500","1215.2999999523163","images/stimuli/complex_09_A_b.gif","images/stimuli/complex_10_A_b.gif","forced_short","690","","","","","","5","complex_dissimilar","images/stimuli/complex_10_A_b.gif","",""
"","survey-multi-choice","105","172594","0.0-27.0","SS1627326866941","","3897.8000000715256","memory_test","","","","","","","","","{""Q0"":""No""}","[0]","images/stimuli/complex_20_A_b.gif","5","","","","","",""
"","survey-multi-choice","106","174209","0.0-28.0","SS1627326866941","","1609","memory_test","","","","","","","","","{""Q0"":""Yes""}","[0]","images/stimuli/complex_10_A_b.gif","5","","","","","",""
"","html-keyboard-response","107","175202","0.0-29.0-0.0","SS1627326866941","","null","","","null","","","","","","","","","","","<p><img src= images/blank.png width =""600"" height = ""600"" style=""position:fixed;top:50%; left:50%; transform: translate(-50%, -50%); border:5px solid black"">","","","","",""
"","stimuli-presentation","108","176318","0.0-29.0-1.0","SS1627326866941","","702","trial","","40","500","1202","images/stimuli/complex_04_A_b.gif","images/stimuli/complex_17_A_b.gif","forced_short","410","","","","","","6","complex_dissimilar","images/stimuli/complex_17_A_b.gif","",""
"","html-keyboard-response","109","177580","0.0-29.0-0.1","SS1627326866941","","null","","","null","","","","","","","","","","","<p><img src= images/blank.png width =""600"" height = ""600"" style=""position:fixed;top:50%; left:50%; transform: translate(-50%, -50%); border:5px solid black"">","","","","",""
"","stimuli-presentation","110","178229","0.0-29.0-1.1","SS1627326866941","","143","trial","","40","500","643","images/stimuli/complex_04_A_b.gif","images/stimuli/complex_17_A_b.gif","forced_short","410","","","","","","6","complex_dissimilar","images/stimuli/complex_17_A_b.gif","",""
"","html-keyboard-response","111","179473","0.0-29.0-0.2","SS1627326866941","","null","","","null","","","","","","","","","","","<p><img src= images/blank.png width =""600"" height = ""600"" style=""position:fixed;top:50%; left:50%; transform: translate(-50%, -50%); border:5px solid black"">","","","","",""
"","stimuli-presentation","112","180536","0.0-29.0-1.2","SS1627326866941","","556.3999999761581","trial","","40","500","1056.3999999761581","images/stimuli/complex_04_A_b.gif","images/stimuli/complex_17_A_b.gif","forced_short","410","","","","","","6","complex_dissimilar","images/stimuli/complex_17_A_b.gif","",""
"","html-keyboard-response","113","181477","0.0-29.0-0.3","SS1627326866941","","null","","","null","","","","","","","","","","","<p><img src= images/blank.png width =""600"" height = ""600"" style=""position:fixed;top:50%; left:50%; transform: translate(-50%, -50%); border:5px solid black"">","","","","",""
"","stimuli-presentation","114","182095","0.0-29.0-1.3","SS1627326866941","","108.79999995231628","trial","","40","500","608.7999999523163","images/stimuli/complex_04_A_b.gif","images/stimuli/complex_17_A_b.gif","forced_short","410","","","","","","6","complex_dissimilar","images/stimuli/complex_17_A_b.gif","",""
"","html-keyboard-response","115","183155","0.0-29.0-0.4","SS1627326866941","","null","","","null","","","","","","","","","","","<p><img src= images/blank.png width =""600"" height = ""600"" style=""position:fixed;top:50%; left:50%; transform: translate(-50%, -50%); border:5px solid black"">","","","","",""
"","stimuli-presentation","116","183725","0.0-29.0-1.4","SS1627326866941","","62.5","trial","","40","500","562.5","images/stimuli/complex_04_A_b.gif","images/stimuli/complex_17_A_b.gif","forced_short","410","","","","","","6","complex_dissimilar","images/stimuli/complex_17_A_b.gif","",""
"","html-keyboard-response","117","184762","0.0-29.0-0.5","SS1627326866941","","null","","","null","","","","","","","","","","","<p><img src= images/blank.png width =""600"" height = ""600"" style=""position:fixed;top:50%; left:50%; transform: translate(-50%, -50%); border:5px solid black"">","","","","",""
"","stimuli-presentation","118","185808","0.0-29.0-1.5","SS1627326866941","","540.1999999284744","trial","","40","500","1040.1999999284744","images/stimuli/complex_04_A_b.gif","images/stimuli/complex_17_A_b.gif","forced_short","410","","","","","","6","complex_dissimilar","images/stimuli/complex_04_A_b.gif","",""
"","survey-multi-choice","119","188117","0.0-30.0","SS1627326866941","","2302.600000023842","memory_test","","","","","","","","","{""Q0"":""No""}","[0]","images/stimuli/complex_24_A_b.gif","6","","","","","",""
"","survey-multi-choice","120","189909","0.0-31.0","SS1627326866941","","1786.5","memory_test","","","","","","","","","{""Q0"":""Yes""}","[0]","images/stimuli/complex_04_A_b.gif","6","","","","","",""
"","html-keyboard-response","121","191148","0.0-32.0-0.0","SS1627326866941","","null","","","null","","","","","","","","","","","<p><img src= images/blank.png width =""600"" height = ""600"" style=""position:fixed;top:50%; left:50%; transform: translate(-50%, -50%); border:5px solid black"">","","","","",""
"","stimuli-presentation","122","192246","0.0-32.0-1.0","SS1627326866941","","530.6000000238419","trial","","40","500","1030.6000000238419","images/stimuli/complex_23_A_a.gif","images/stimuli/complex_02_A_a.gif","forced_short","560","","","","","","7","complex_dissimilar","images/stimuli/complex_02_A_a.gif","",""
"","html-keyboard-response","123","193478","0.0-32.0-0.1","SS1627326866941","","null","","","null","","","","","","","","","","","<p><img src= images/blank.png width =""600"" height = ""600"" style=""position:fixed;top:50%; left:50%; transform: translate(-50%, -50%); border:5px solid black"">","","","","",""
"","stimuli-presentation","124","194581","0.0-32.0-1.1","SS1627326866941","","596.6000000238419","trial","","40","500","1096.6000000238419","images/stimuli/complex_23_A_a.gif","images/stimuli/complex_02_A_a.gif","forced_short","560","","","","","","7","complex_dissimilar","images/stimuli/complex_02_A_a.gif","",""
"","html-keyboard-response","125","195702","0.0-32.0-0.2","SS1627326866941","","null","","","null","","","","","","","","","","","<p><img src= images/blank.png width =""600"" height = ""600"" style=""position:fixed;top:50%; left:50%; transform: translate(-50%, -50%); border:5px solid black"">","","","","",""
"","stimuli-presentation","126","196224","0.0-32.0-1.2","SS1627326866941","","16.700000047683716","trial","","40","500","516.7000000476837","images/stimuli/complex_23_A_a.gif","images/stimuli/complex_02_A_a.gif","forced_short","560","","","","","","7","complex_dissimilar","images/stimuli/complex_02_A_a.gif","",""
"","html-keyboard-response","127","197093","0.0-32.0-0.3","SS1627326866941","","null","","","null","","","","","","","","","","","<p><img src= images/blank.png width =""600"" height = ""600"" style=""position:fixed;top:50%; left:50%; transform: translate(-50%, -50%); border:5px solid black"">","","","","",""
"","stimuli-presentation","128","198351","0.0-32.0-1.3","SS1627326866941","","751.8999999761581","trial","","40","500","1251.8999999761581","images/stimuli/complex_23_A_a.gif","images/stimuli/complex_02_A_a.gif","forced_short","560","","","","","","7","complex_dissimilar","images/stimuli/complex_23_A_a.gif","",""
"","html-keyboard-response","129","199207","0.0-32.0-0.4","SS1627326866941","","null","","","null","","","","","","","","","","","<p><img src= images/blank.png width =""600"" height = ""600"" style=""position:fixed;top:50%; left:50%; transform: translate(-50%, -50%); border:5px solid black"">","","","","",""
"","stimuli-presentation","130","199985","0.0-32.0-1.4","SS1627326866941","","270.6999999284744","trial","","40","500","770.6999999284744","images/stimuli/complex_23_A_a.gif","images/stimuli/complex_02_A_a.gif","forced_short","560","","","","","","7","complex_dissimilar","images/stimuli/complex_02_A_a.gif","",""
"","html-keyboard-response","131","201265","0.0-32.0-0.5","SS1627326866941","","null","","","null","","","","","","","","","","","<p><img src= images/blank.png width =""600"" height = ""600"" style=""position:fixed;top:50%; left:50%; transform: translate(-50%, -50%); border:5px solid black"">","","","","",""
"","stimuli-presentation","132","202027","0.0-32.0-1.5","SS1627326866941","","255.5","trial","","40","500","755.5","images/stimuli/complex_23_A_a.gif","images/stimuli/complex_02_A_a.gif","forced_short","560","","","","","","7","complex_dissimilar","images/stimuli/complex_23_A_a.gif","",""
"","html-keyboard-response","133","203231","0.0-32.0-0.6","SS1627326866941","","null","","","null","","","","","","","","","","","<p><img src= images/blank.png width =""600"" height = ""600"" style=""position:fixed;top:50%; left:50%; transform: translate(-50%, -50%); border:5px solid black"">","","","","",""
"","stimuli-presentation","134","203780","0.0-32.0-1.6","SS1627326866941","","43.200000047683716","trial","","40","500","543.2000000476837","images/stimuli/complex_23_A_a.gif","images/stimuli/complex_02_A_a.gif","forced_short","560","","","","","","7","complex_dissimilar","images/stimuli/complex_02_A_a.gif","",""
"","html-keyboard-response","135","204924","0.0-32.0-0.7","SS1627326866941","","null","","","null","","","","","","","","","","","<p><img src= images/blank.png width =""600"" height = ""600"" style=""position:fixed;top:50%; left:50%; transform: translate(-50%, -50%); border:5px solid black"">","","","","",""
"","stimuli-presentation","136","205480","0.0-32.0-1.7","SS1627326866941","","47.10000002384186","trial","","40","500","547.1000000238419","images/stimuli/complex_23_A_a.gif","images/stimuli/complex_02_A_a.gif","forced_short","560","","","","","","7","complex_dissimilar","images/stimuli/complex_02_A_a.gif","",""
"","survey-multi-choice","137","207730","0.0-33.0","SS1627326866941","","2245.399999976158","memory_test","","","","","","","","","{""Q0"":""No""}","[0]","images/stimuli/complex_07_A_b.gif","7","","","","","",""
"","survey-multi-choice","138","209409","0.0-34.0","SS1627326866941","","1670.7999999523163","memory_test","","","","","","","","","{""Q0"":""Yes""}","[0]","images/stimuli/complex_02_A_a.gif","7","","","","","",""
"","instructions","139","212502","0.0-35.0","SS1627326866941","[{""page_index"":0,""viewing_time"":3086.3000000715256}]","3086.7000000476837","instructions","","","","","","","","","","","","","","","","","",""
"","survey-likert","140","219406","0.0-36.0","SS1627326866941","","6899","similarity_question","","","","","","","","","{""Q0"":4}","[0]","","","","","","","images/stimuli/complex_19_A_a.gif","images/stimuli/complex_22_A_b.gif"
"","survey-likert","141","225257","0.0-37.0","SS1627326866941","","5843.600000023842","similarity_question","","","","","","","","","{""Q0"":2}","[0]","","","","","","","images/stimuli/complex_23_A_a.gif","images/stimuli/complex_02_A_a.gif"
"","survey-likert","142","231447","0.0-38.0","SS1627326866941","","6183.200000047684","similarity_question","","","","","","","","","{""Q0"":1}","[0]","","","","","","","images/stimuli/complex_08_A_a.gif","images/stimuli/complex_12_A_b.gif"
"","survey-likert","143","235009","0.0-39.0","SS1627326866941","","3553.8000000715256","similarity_question","","","","","","","","","{""Q0"":1}","[0]","","","","","","","images/stimuli/complex_14_A_b.gif","images/stimuli/complex_11_A_b.gif"
"","survey-likert","144","240711","0.0-40.0","SS1627326866941","","5694.899999976158","similarity_question","","","","","","","","","{""Q0"":1}","[0]","","","","","","","images/stimuli/complex_10_A_b.gif","images/stimuli/complex_09_A_b.gif"
"","survey-likert","145","245001","0.0-41.0","SS1627326866941","","4282.299999952316","similarity_question","","","","","","","","","{""Q0"":1}","[0]","","","","","","","images/stimuli/complex_18_A_a.gif","images/stimuli/complex_06_A_a.gif"
"","survey-likert","146","250346","0.0-42.0","SS1627326866941","","5338.899999976158","similarity_question","","","","","","","","","{""Q0"":4}","[0]","","","","","","","images/stimuli/complex_05_A_a.gif","images/stimuli/complex_01_A_b.gif"
"","survey-likert","147","254284","0.0-43.0","SS1627326866941","","3930.7999999523163","similarity_question","","","","","","","","","{""Q0"":1}","[0]","","","","","","","images/stimuli/complex_17_A_b.gif","images/stimuli/complex_04_A_b.gif"
"","instructions","148","256411","0.0-44.0","SS1627326866941","[{""page_index"":0,""viewing_time"":2120.399999976158}]","2121.1999999284744","instructions","","","","","","","","","","","","","","","","","",""
"","survey-likert","149","261617","0.0-45.0","SS1627326866941","","5198.799999952316","","","","","","","","","","{""Q0"":4}","[0]","","","images/stimuli/complex_06_A_a.gif","","","","",""
"","survey-likert","150","264701","0.0-46.0","SS1627326866941","","3077.2999999523163","","","","","","","","","","{""Q0"":2}","[0]","","","images/stimuli/complex_05_A_a.gif","","","","",""
"","survey-likert","151","269354","0.0-47.0","SS1627326866941","","4647.799999952316","","","","","","","","","","{""Q0"":4}","[0]","","","images/stimuli/complex_12_A_b.gif","","","","",""
"","survey-likert","152","272306","0.0-48.0","SS1627326866941","","2942.399999976158","","","","","","","","","","{""Q0"":2}","[0]","","","images/stimuli/complex_22_A_b.gif","","","","",""
"","survey-likert","153","276253","0.0-49.0","SS1627326866941","","3939.3000000715256","","","","","","","","","","{""Q0"":1}","[0]","","","images/stimuli/complex_09_A_b.gif","","","","",""
"","survey-likert","154","279290","0.0-50.0","SS1627326866941","","3028.7999999523163","","","","","","","","","","{""Q0"":2}","[0]","","","images/stimuli/complex_23_A_a.gif","","","","",""
"","survey-likert","155","283525","0.0-51.0","SS1627326866941","","4230.5","","","","","","","","","","{""Q0"":3}","[0]","","","images/stimuli/complex_04_A_b.gif","","","","",""
"","survey-likert","156","288594","0.0-52.0","SS1627326866941","","5061","","","","","","","","","","{""Q0"":2}","[0]","","","images/stimuli/complex_14_A_b.gif","","","","",""
"true","fullscreen","157","289600","0.0-53.0","SS1627326866941","","","","","","","","","","","","","","","","","","","","",""
"","instructions","158","291530","0.0-54.0","SS1627326866941","[{""page_index"":0,""viewing_time"":1920.6999999284744}]","1921.1999999284744","instructions","","","","","","","","","","","","","","","","","",""
"","demog-age","159","294380","0.0-55.0","SS1627326866941","","2842","","","","","","","","","","{""age"":""20""}","","","","","","","","",""
"","demog-ethnic-US","160","296545","0.0-56.0","SS1627326866941","","2153.1999999284744","","","","","","","","","","{""ethnicity"":[""White""]}","[0]","","","","","","","",""
"","demog-gender-and-education","161","301826","0.0-57.0","SS1627326866941","","5273.900000095367","","","","","","","","","","{""gender"":""Female"",""education"":""High school diploma""}","[0,1]","","","","","","","",""
"","survey-text","162","305544","0.0-58.0","SS1627326866941","","3709.2999999523163","feedback","","","","","","","","","{""Q0"":""no""}","","","","","","","","",""
"","instructions","163","307039","0.0-59.0","SS1627326866941","[{""page_index"":0,""viewing_time"":1488.1000000238419}]","1488.6000000238419","instructions","","","","","","","","","","","","","","","","","",""
