"success","trial_type","trial_index","time_elapsed","internal_node_id","subject","view_history","rt","stimulus_type","trial_stimulus","key_press","minimum_viewing_duration","trial_looking_time","block_deviant","block_background","exposure_type","forced_exposure_time","responses","question_order","memory_question_stimuli","memory_block_index","stimulus","block_number","block_type","stimulus_displayed","stimulus_left","stimulus_right"
"true","fullscreen","0","2753","0.0-0.0","SS1627331426389","","","","","","","","","","","","","","","","","","","","",""
"","instructions","1","27033","0.0-1.0","SS1627331426389","[{""page_index"":0,""viewing_time"":24278.299999952316}]","24278.699999928474","","","","","","","","","","","","","","","","","","",""
"","instructions","2","44162","0.0-2.0","SS1627331426389","[{""page_index"":0,""viewing_time"":10864.899999976158},{""page_index"":1,""viewing_time"":4261.900000095367}]","15127","instructions","","","","","","","","","","","","","","","","","",""
"","stimuli-presentation","3","51761","0.0-3.0","SS1627331426389","","7097.200000047684","","","40","500","7597.200000047684","null","null","self_paced","0","","","","","","","","","",""
"","instructions","4","63437","0.0-4.0","SS1627331426389","[{""page_index"":0,""viewing_time"":11675.5}]","11675.5","instructions","","","","","","","","","","","","","","","","","",""
"","stimuli-presentation","5","65699","0.0-5.0","SS1627331426389","","1759.8999999761581","","","40","500","2259.899999976158","null","null","forced_short","500","","","","","","","","","",""
"","stimuli-presentation","6","68756","0.0-6.0","SS1627331426389","","2554.899999976158","","","40","500","3054.899999976158","null","null","forced_short","500","","","","","","","","","",""
"","instructions","7","76879","0.0-7.0","SS1627331426389","[{""page_index"":0,""viewing_time"":8121.200000047684}]","8121.399999976158","instructions","","","","","","","","","","","","","","","","","",""
"","survey-multi-choice","8","79560","0.0-8.0","SS1627331426389","","2679.5","memory_test_practice","","","","","","","","","{""Q0"":""Yes""}","[0]","images/practice/instructions_example_spore2.gif","0","","","","","",""
"","survey-multi-choice","9","81883","0.0-9.0","SS1627331426389","","2321","memory_test_practice","","","","","","","","","{""Q0"":""No""}","[0]","images/practice/instructions_example_spore0.gif","0","","","","","",""
"","instructions","10","95957","0.0-10.0","SS1627331426389","[{""page_index"":0,""viewing_time"":12987.099999904633},{""page_index"":1,""viewing_time"":1086.1000000238419}]","14073.399999976158","instructions","","","","","","","","","","","","","","","","","",""
"","html-keyboard-response","11","96893","0.0-11.0-0.0","SS1627331426389","","null","","","null","","","","","","","","","","","<p><img src= images/blank.png width =""600"" height = ""600"" style=""position:fixed;top:50%; left:50%; transform: translate(-50%, -50%); border:5px solid black"">","","","","",""
"","stimuli-presentation","12","99729","0.0-11.0-1.0","SS1627331426389","","2572.5999999046326","trial","","40","500","3072.5999999046326","images/stimuli/complex_01_A_a.gif","images/stimuli/complex_10_A_b.gif","forced_short","260","","","","","","0","complex_dissimilar","images/stimuli/complex_10_A_b.gif","",""
"","html-keyboard-response","13","100705","0.0-11.0-0.1","SS1627331426389","","null","","","null","","","","","","","","","","","<p><img src= images/blank.png width =""600"" height = ""600"" style=""position:fixed;top:50%; left:50%; transform: translate(-50%, -50%); border:5px solid black"">","","","","",""
"","stimuli-presentation","14","105148","0.0-11.0-1.1","SS1627331426389","","3939.2999999523163","trial","","40","500","4439.299999952316","images/stimuli/complex_01_A_a.gif","images/stimuli/complex_10_A_b.gif","forced_short","260","","","","","","0","complex_dissimilar","images/stimuli/complex_10_A_b.gif","",""
"","html-keyboard-response","15","106107","0.0-11.0-0.2","SS1627331426389","","null","","","null","","","","","","","","","","","<p><img src= images/blank.png width =""600"" height = ""600"" style=""position:fixed;top:50%; left:50%; transform: translate(-50%, -50%); border:5px solid black"">","","","","",""
"","stimuli-presentation","16","110463","0.0-11.0-1.2","SS1627331426389","","3852.8000000715256","trial","","40","500","4352.800000071526","images/stimuli/complex_01_A_a.gif","images/stimuli/complex_10_A_b.gif","forced_short","260","","","","","","0","complex_dissimilar","images/stimuli/complex_10_A_b.gif","",""
"","html-keyboard-response","17","111604","0.0-11.0-0.3","SS1627331426389","","null","","","null","","","","","","","","","","","<p><img src= images/blank.png width =""600"" height = ""600"" style=""position:fixed;top:50%; left:50%; transform: translate(-50%, -50%); border:5px solid black"">","","","","",""
"","stimuli-presentation","18","116634","0.0-11.0-1.3","SS1627331426389","","4526.600000023842","trial","","40","500","5026.600000023842","images/stimuli/complex_01_A_a.gif","images/stimuli/complex_10_A_b.gif","forced_short","260","","","","","","0","complex_dissimilar","images/stimuli/complex_10_A_b.gif","",""
"","html-keyboard-response","19","117815","0.0-11.0-0.4","SS1627331426389","","null","","","null","","","","","","","","","","","<p><img src= images/blank.png width =""600"" height = ""600"" style=""position:fixed;top:50%; left:50%; transform: translate(-50%, -50%); border:5px solid black"">","","","","",""
"","stimuli-presentation","20","124597","0.0-11.0-1.4","SS1627331426389","","6278.799999952316","trial","","40","500","6778.799999952316","images/stimuli/complex_01_A_a.gif","images/stimuli/complex_10_A_b.gif","forced_short","260","","","","","","0","complex_dissimilar","images/stimuli/complex_01_A_a.gif","",""
"","html-keyboard-response","21","125829","0.0-11.0-0.5","SS1627331426389","","null","","","null","","","","","","","","","","","<p><img src= images/blank.png width =""600"" height = ""600"" style=""position:fixed;top:50%; left:50%; transform: translate(-50%, -50%); border:5px solid black"">","","","","",""
"","stimuli-presentation","22","129999","0.0-11.0-1.5","SS1627331426389","","3666.600000023842","trial","","40","500","4166.600000023842","images/stimuli/complex_01_A_a.gif","images/stimuli/complex_10_A_b.gif","forced_short","260","","","","","","0","complex_dissimilar","images/stimuli/complex_10_A_b.gif","",""
"","html-keyboard-response","23","131079","0.0-11.0-0.6","SS1627331426389","","null","","","null","","","","","","","","","","","<p><img src= images/blank.png width =""600"" height = ""600"" style=""position:fixed;top:50%; left:50%; transform: translate(-50%, -50%); border:5px solid black"">","","","","",""
"","stimuli-presentation","24","133466","0.0-11.0-1.6","SS1627331426389","","1884.1000000238419","trial","","40","500","2384.100000023842","images/stimuli/complex_01_A_a.gif","images/stimuli/complex_10_A_b.gif","forced_short","260","","","","","","0","complex_dissimilar","images/stimuli/complex_10_A_b.gif","",""
"","html-keyboard-response","25","134283","0.0-11.0-0.7","SS1627331426389","","null","","","null","","","","","","","","","","","<p><img src= images/blank.png width =""600"" height = ""600"" style=""position:fixed;top:50%; left:50%; transform: translate(-50%, -50%); border:5px solid black"">","","","","",""
"","stimuli-presentation","26","138616","0.0-11.0-1.7","SS1627331426389","","3830.100000023842","trial","","40","500","4330.100000023842","images/stimuli/complex_01_A_a.gif","images/stimuli/complex_10_A_b.gif","forced_short","260","","","","","","0","complex_dissimilar","images/stimuli/complex_01_A_a.gif","",""
"","survey-multi-choice","27","142221","0.0-12.0","SS1627331426389","","3603.2000000476837","memory_test","","","","","","","","","{""Q0"":""Yes""}","[0]","images/stimuli/complex_01_A_a.gif","0","","","","","",""
"","survey-multi-choice","28","144771","0.0-13.0","SS1627331426389","","2548.399999976158","memory_test","","","","","","","","","{""Q0"":""No""}","[0]","images/stimuli/complex_17_A_a.gif","0","","","","","",""
"","html-keyboard-response","29","145883","0.0-14.0-0.0","SS1627331426389","","null","","","null","","","","","","","","","","","<p><img src= images/blank.png width =""600"" height = ""600"" style=""position:fixed;top:50%; left:50%; transform: translate(-50%, -50%); border:5px solid black"">","","","","",""
"","stimuli-presentation","30","149092","0.0-14.0-1.0","SS1627331426389","","3136.100000023842","trial","","40","500","3636.100000023842","images/stimuli/complex_04_A_a.gif","images/stimuli/complex_20_A_a.gif","forced_short","70","","","","","","1","complex_dissimilar","images/stimuli/complex_20_A_a.gif","",""
"","html-keyboard-response","31","150342","0.0-14.0-0.1","SS1627331426389","","null","","","null","","","","","","","","","","","<p><img src= images/blank.png width =""600"" height = ""600"" style=""position:fixed;top:50%; left:50%; transform: translate(-50%, -50%); border:5px solid black"">","","","","",""
"","stimuli-presentation","32","154077","0.0-14.0-1.1","SS1627331426389","","3232.600000023842","trial","","40","500","3732.600000023842","images/stimuli/complex_04_A_a.gif","images/stimuli/complex_20_A_a.gif","forced_short","70","","","","","","1","complex_dissimilar","images/stimuli/complex_20_A_a.gif","",""
"","html-keyboard-response","33","155321","0.0-14.0-0.2","SS1627331426389","","null","","","null","","","","","","","","","","","<p><img src= images/blank.png width =""600"" height = ""600"" style=""position:fixed;top:50%; left:50%; transform: translate(-50%, -50%); border:5px solid black"">","","","","",""
"","stimuli-presentation","34","158066","0.0-14.0-1.2","SS1627331426389","","2242","trial","","40","500","2742","images/stimuli/complex_04_A_a.gif","images/stimuli/complex_20_A_a.gif","forced_short","70","","","","","","1","complex_dissimilar","images/stimuli/complex_20_A_a.gif","",""
"","html-keyboard-response","35","159261","0.0-14.0-0.3","SS1627331426389","","null","","","null","","","","","","","","","","","<p><img src= images/blank.png width =""600"" height = ""600"" style=""position:fixed;top:50%; left:50%; transform: translate(-50%, -50%); border:5px solid black"">","","","","",""
"","stimuli-presentation","36","160453","0.0-14.0-1.3","SS1627331426389","","689.7000000476837","trial","","40","500","1189.7000000476837","images/stimuli/complex_04_A_a.gif","images/stimuli/complex_20_A_a.gif","forced_short","70","","","","","","1","complex_dissimilar","images/stimuli/complex_20_A_a.gif","",""
"","html-keyboard-response","37","161353","0.0-14.0-0.4","SS1627331426389","","null","","","null","","","","","","","","","","","<p><img src= images/blank.png width =""600"" height = ""600"" style=""position:fixed;top:50%; left:50%; transform: translate(-50%, -50%); border:5px solid black"">","","","","",""
"","stimuli-presentation","38","162787","0.0-14.0-1.4","SS1627331426389","","930.3000000715256","trial","","40","500","1430.3000000715256","images/stimuli/complex_04_A_a.gif","images/stimuli/complex_20_A_a.gif","forced_short","70","","","","","","1","complex_dissimilar","images/stimuli/complex_20_A_a.gif","",""
"","html-keyboard-response","39","163762","0.0-14.0-0.5","SS1627331426389","","null","","","null","","","","","","","","","","","<p><img src= images/blank.png width =""600"" height = ""600"" style=""position:fixed;top:50%; left:50%; transform: translate(-50%, -50%); border:5px solid black"">","","","","",""
"","stimuli-presentation","40","166204","0.0-14.0-1.5","SS1627331426389","","1939.1000000238419","trial","","40","500","2439.100000023842","images/stimuli/complex_04_A_a.gif","images/stimuli/complex_20_A_a.gif","forced_short","70","","","","","","1","complex_dissimilar","images/stimuli/complex_20_A_a.gif","",""
"","html-keyboard-response","41","167327","0.0-14.0-0.6","SS1627331426389","","null","","","null","","","","","","","","","","","<p><img src= images/blank.png width =""600"" height = ""600"" style=""position:fixed;top:50%; left:50%; transform: translate(-50%, -50%); border:5px solid black"">","","","","",""
"","stimuli-presentation","42","169937","0.0-14.0-1.6","SS1627331426389","","2107.3000000715256","trial","","40","500","2607.3000000715256","images/stimuli/complex_04_A_a.gif","images/stimuli/complex_20_A_a.gif","forced_short","70","","","","","","1","complex_dissimilar","images/stimuli/complex_20_A_a.gif","",""
"","html-keyboard-response","43","171083","0.0-14.0-0.7","SS1627331426389","","null","","","null","","","","","","","","","","","<p><img src= images/blank.png width =""600"" height = ""600"" style=""position:fixed;top:50%; left:50%; transform: translate(-50%, -50%); border:5px solid black"">","","","","",""
"","stimuli-presentation","44","172560","0.0-14.0-1.7","SS1627331426389","","973.6000000238419","trial","","40","500","1473.6000000238419","images/stimuli/complex_04_A_a.gif","images/stimuli/complex_20_A_a.gif","forced_short","70","","","","","","1","complex_dissimilar","images/stimuli/complex_20_A_a.gif","",""
"","survey-multi-choice","45","175252","0.0-15.0","SS1627331426389","","2690.2999999523163","memory_test","","","","","","","","","{""Q0"":""Yes""}","[0]","images/stimuli/complex_20_A_a.gif","1","","","","","",""
"","survey-multi-choice","46","186418","0.0-16.0","SS1627331426389","","11163.399999976158","memory_test","","","","","","","","","{""Q0"":""No""}","[0]","images/stimuli/complex_19_A_b.gif","1","","","","","",""
"","html-keyboard-response","47","187583","0.0-17.0-0.0","SS1627331426389","","null","","","null","","","","","","","","","","","<p><img src= images/blank.png width =""600"" height = ""600"" style=""position:fixed;top:50%; left:50%; transform: translate(-50%, -50%); border:5px solid black"">","","","","",""
"","stimuli-presentation","48","189218","0.0-17.0-1.0","SS1627331426389","","1340.8999999761581","trial","","40","500","1840.8999999761581","images/stimuli/complex_23_A_b.gif","images/stimuli/complex_03_A_b.gif","forced_short","290","","","","","","2","complex_dissimilar","images/stimuli/complex_03_A_b.gif","",""
"","html-keyboard-response","49","190186","0.0-17.0-0.1","SS1627331426389","","null","","","null","","","","","","","","","","","<p><img src= images/blank.png width =""600"" height = ""600"" style=""position:fixed;top:50%; left:50%; transform: translate(-50%, -50%); border:5px solid black"">","","","","",""
"","stimuli-presentation","50","192180","0.0-17.0-1.1","SS1627331426389","","1492.2000000476837","trial","","40","500","1992.2000000476837","images/stimuli/complex_23_A_b.gif","images/stimuli/complex_03_A_b.gif","forced_short","290","","","","","","2","complex_dissimilar","images/stimuli/complex_23_A_b.gif","",""
"","html-keyboard-response","51","193230","0.0-17.0-0.2","SS1627331426389","","null","","","null","","","","","","","","","","","<p><img src= images/blank.png width =""600"" height = ""600"" style=""position:fixed;top:50%; left:50%; transform: translate(-50%, -50%); border:5px solid black"">","","","","",""
"","stimuli-presentation","52","194201","0.0-17.0-1.2","SS1627331426389","","469","trial","","40","500","969","images/stimuli/complex_23_A_b.gif","images/stimuli/complex_03_A_b.gif","forced_short","290","","","","","","2","complex_dissimilar","images/stimuli/complex_23_A_b.gif","",""
"","html-keyboard-response","53","195165","0.0-17.0-0.3","SS1627331426389","","null","","","null","","","","","","","","","","","<p><img src= images/blank.png width =""600"" height = ""600"" style=""position:fixed;top:50%; left:50%; transform: translate(-50%, -50%); border:5px solid black"">","","","","",""
"","stimuli-presentation","54","196664","0.0-17.0-1.3","SS1627331426389","","995.2999999523163","trial","","40","500","1495.2999999523163","images/stimuli/complex_23_A_b.gif","images/stimuli/complex_03_A_b.gif","forced_short","290","","","","","","2","complex_dissimilar","images/stimuli/complex_03_A_b.gif","",""
"","html-keyboard-response","55","197931","0.0-17.0-0.4","SS1627331426389","","null","","","null","","","","","","","","","","","<p><img src= images/blank.png width =""600"" height = ""600"" style=""position:fixed;top:50%; left:50%; transform: translate(-50%, -50%); border:5px solid black"">","","","","",""
"","stimuli-presentation","56","199947","0.0-17.0-1.4","SS1627331426389","","1512.9000000953674","trial","","40","500","2012.9000000953674","images/stimuli/complex_23_A_b.gif","images/stimuli/complex_03_A_b.gif","forced_short","290","","","","","","2","complex_dissimilar","images/stimuli/complex_03_A_b.gif","",""
"","html-keyboard-response","57","201196","0.0-17.0-0.5","SS1627331426389","","null","","","null","","","","","","","","","","","<p><img src= images/blank.png width =""600"" height = ""600"" style=""position:fixed;top:50%; left:50%; transform: translate(-50%, -50%); border:5px solid black"">","","","","",""
"","stimuli-presentation","58","201919","0.0-17.0-1.5","SS1627331426389","","219.80000007152557","trial","","40","500","719.8000000715256","images/stimuli/complex_23_A_b.gif","images/stimuli/complex_03_A_b.gif","forced_short","290","","","","","","2","complex_dissimilar","images/stimuli/complex_03_A_b.gif","",""
"","survey-multi-choice","59","210533","0.0-18.0","SS1627331426389","","8611.700000047684","memory_test","","","","","","","","","{""Q0"":""Yes""}","[0]","images/stimuli/complex_08_A_b.gif","2","","","","","",""
"","survey-multi-choice","60","212072","0.0-19.0","SS1627331426389","","1537.7000000476837","memory_test","","","","","","","","","{""Q0"":""Yes""}","[0]","images/stimuli/complex_03_A_b.gif","2","","","","","",""
"","html-keyboard-response","61","213367","0.0-20.0-0.0","SS1627331426389","","null","","","null","","","","","","","","","","","<p><img src= images/blank.png width =""600"" height = ""600"" style=""position:fixed;top:50%; left:50%; transform: translate(-50%, -50%); border:5px solid black"">","","","","",""
"","stimuli-presentation","62","215013","0.0-20.0-1.0","SS1627331426389","","1412.4000000953674","trial","","40","500","1912.4000000953674","images/stimuli/complex_24_A_b.gif","images/stimuli/complex_02_A_b.gif","forced_short","230","","","","","","3","complex_dissimilar","images/stimuli/complex_02_A_b.gif","",""
"","html-keyboard-response","63","216279","0.0-20.0-0.1","SS1627331426389","","null","","","null","","","","","","","","","","","<p><img src= images/blank.png width =""600"" height = ""600"" style=""position:fixed;top:50%; left:50%; transform: translate(-50%, -50%); border:5px solid black"">","","","","",""
"","stimuli-presentation","64","218406","0.0-20.0-1.1","SS1627331426389","","1625.1000000238419","trial","","40","500","2125.100000023842","images/stimuli/complex_24_A_b.gif","images/stimuli/complex_02_A_b.gif","forced_short","230","","","","","","3","complex_dissimilar","images/stimuli/complex_02_A_b.gif","",""
"","html-keyboard-response","65","219558","0.0-20.0-0.2","SS1627331426389","","null","","","null","","","","","","","","","","","<p><img src= images/blank.png width =""600"" height = ""600"" style=""position:fixed;top:50%; left:50%; transform: translate(-50%, -50%); border:5px solid black"">","","","","",""
"","stimuli-presentation","66","222008","0.0-20.0-1.2","SS1627331426389","","1946.8999999761581","trial","","40","500","2446.899999976158","images/stimuli/complex_24_A_b.gif","images/stimuli/complex_02_A_b.gif","forced_short","230","","","","","","3","complex_dissimilar","images/stimuli/complex_24_A_b.gif","",""
"","html-keyboard-response","67","222828","0.0-20.0-0.3","SS1627331426389","","null","","","null","","","","","","","","","","","<p><img src= images/blank.png width =""600"" height = ""600"" style=""position:fixed;top:50%; left:50%; transform: translate(-50%, -50%); border:5px solid black"">","","","","",""
"","stimuli-presentation","68","223561","0.0-20.0-1.3","SS1627331426389","","229.89999997615814","trial","","40","500","729.8999999761581","images/stimuli/complex_24_A_b.gif","images/stimuli/complex_02_A_b.gif","forced_short","230","","","","","","3","complex_dissimilar","images/stimuli/complex_02_A_b.gif","",""
"","html-keyboard-response","69","224431","0.0-20.0-0.4","SS1627331426389","","null","","","null","","","","","","","","","","","<p><img src= images/blank.png width =""600"" height = ""600"" style=""position:fixed;top:50%; left:50%; transform: translate(-50%, -50%); border:5px solid black"">","","","","",""
"","stimuli-presentation","70","225638","0.0-20.0-1.4","SS1627331426389","","704.3000000715256","trial","","40","500","1204.3000000715256","images/stimuli/complex_24_A_b.gif","images/stimuli/complex_02_A_b.gif","forced_short","230","","","","","","3","complex_dissimilar","images/stimuli/complex_02_A_b.gif","",""
"","html-keyboard-response","71","226669","0.0-20.0-0.5","SS1627331426389","","null","","","null","","","","","","","","","","","<p><img src= images/blank.png width =""600"" height = ""600"" style=""position:fixed;top:50%; left:50%; transform: translate(-50%, -50%); border:5px solid black"">","","","","",""
"","stimuli-presentation","72","227780","0.0-20.0-1.5","SS1627331426389","","608.6000000238419","trial","","40","500","1108.6000000238419","images/stimuli/complex_24_A_b.gif","images/stimuli/complex_02_A_b.gif","forced_short","230","","","","","","3","complex_dissimilar","images/stimuli/complex_02_A_b.gif","",""
"","html-keyboard-response","73","229022","0.0-20.0-0.6","SS1627331426389","","null","","","null","","","","","","","","","","","<p><img src= images/blank.png width =""600"" height = ""600"" style=""position:fixed;top:50%; left:50%; transform: translate(-50%, -50%); border:5px solid black"">","","","","",""
"","stimuli-presentation","74","230027","0.0-20.0-1.6","SS1627331426389","","501.7999999523163","trial","","40","500","1001.7999999523163","images/stimuli/complex_24_A_b.gif","images/stimuli/complex_02_A_b.gif","forced_short","230","","","","","","3","complex_dissimilar","images/stimuli/complex_02_A_b.gif","",""
"","html-keyboard-response","75","230932","0.0-20.0-0.7","SS1627331426389","","null","","","null","","","","","","","","","","","<p><img src= images/blank.png width =""600"" height = ""600"" style=""position:fixed;top:50%; left:50%; transform: translate(-50%, -50%); border:5px solid black"">","","","","",""
"","stimuli-presentation","76","231999","0.0-20.0-1.7","SS1627331426389","","563.8999999761581","trial","","40","500","1063.8999999761581","images/stimuli/complex_24_A_b.gif","images/stimuli/complex_02_A_b.gif","forced_short","230","","","","","","3","complex_dissimilar","images/stimuli/complex_02_A_b.gif","",""
"","survey-multi-choice","77","234485","0.0-21.0","SS1627331426389","","2484.3000000715256","memory_test","","","","","","","","","{""Q0"":""Yes""}","[0]","images/stimuli/complex_24_A_b.gif","3","","","","","",""
"","survey-multi-choice","78","238872","0.0-22.0","SS1627331426389","","4384.899999976158","memory_test","","","","","","","","","{""Q0"":""No""}","[0]","images/stimuli/complex_21_A_b.gif","3","","","","","",""
"","html-keyboard-response","79","240025","0.0-23.0-0.0","SS1627331426389","","null","","","null","","","","","","","","","","","<p><img src= images/blank.png width =""600"" height = ""600"" style=""position:fixed;top:50%; left:50%; transform: translate(-50%, -50%); border:5px solid black"">","","","","",""
"","stimuli-presentation","80","242790","0.0-23.0-1.0","SS1627331426389","","2252.7000000476837","trial","","40","500","2752.7000000476837","images/stimuli/complex_14_A_a.gif","images/stimuli/complex_13_A_b.gif","forced_short","510","","","","","","4","complex_dissimilar","images/stimuli/complex_13_A_b.gif","",""
"","html-keyboard-response","81","244028","0.0-23.0-0.1","SS1627331426389","","null","","","null","","","","","","","","","","","<p><img src= images/blank.png width =""600"" height = ""600"" style=""position:fixed;top:50%; left:50%; transform: translate(-50%, -50%); border:5px solid black"">","","","","",""
"","stimuli-presentation","82","246815","0.0-23.0-1.1","SS1627331426389","","2282.3000000715256","trial","","40","500","2782.3000000715256","images/stimuli/complex_14_A_a.gif","images/stimuli/complex_13_A_b.gif","forced_short","510","","","","","","4","complex_dissimilar","images/stimuli/complex_13_A_b.gif","",""
"","html-keyboard-response","83","247973","0.0-23.0-0.2","SS1627331426389","","null","","","null","","","","","","","","","","","<p><img src= images/blank.png width =""600"" height = ""600"" style=""position:fixed;top:50%; left:50%; transform: translate(-50%, -50%); border:5px solid black"">","","","","",""
"","stimuli-presentation","84","250257","0.0-23.0-1.2","SS1627331426389","","1781.5","trial","","40","500","2281.5","images/stimuli/complex_14_A_a.gif","images/stimuli/complex_13_A_b.gif","forced_short","510","","","","","","4","complex_dissimilar","images/stimuli/complex_14_A_a.gif","",""
"","html-keyboard-response","85","251140","0.0-23.0-0.3","SS1627331426389","","null","","","null","","","","","","","","","","","<p><img src= images/blank.png width =""600"" height = ""600"" style=""position:fixed;top:50%; left:50%; transform: translate(-50%, -50%); border:5px solid black"">","","","","",""
"","stimuli-presentation","86","252279","0.0-23.0-1.3","SS1627331426389","","636.6000000238419","trial","","40","500","1136.6000000238419","images/stimuli/complex_14_A_a.gif","images/stimuli/complex_13_A_b.gif","forced_short","510","","","","","","4","complex_dissimilar","images/stimuli/complex_13_A_b.gif","",""
"","html-keyboard-response","87","253150","0.0-23.0-0.4","SS1627331426389","","null","","","null","","","","","","","","","","","<p><img src= images/blank.png width =""600"" height = ""600"" style=""position:fixed;top:50%; left:50%; transform: translate(-50%, -50%); border:5px solid black"">","","","","",""
"","stimuli-presentation","88","254270","0.0-23.0-1.4","SS1627331426389","","617.8999999761581","trial","","40","500","1117.8999999761581","images/stimuli/complex_14_A_a.gif","images/stimuli/complex_13_A_b.gif","forced_short","510","","","","","","4","complex_dissimilar","images/stimuli/complex_14_A_a.gif","",""
"","html-keyboard-response","89","255433","0.0-23.0-0.5","SS1627331426389","","null","","","null","","","","","","","","","","","<p><img src= images/blank.png width =""600"" height = ""600"" style=""position:fixed;top:50%; left:50%; transform: translate(-50%, -50%); border:5px solid black"">","","","","",""
"","stimuli-presentation","90","256233","0.0-23.0-1.5","SS1627331426389","","298.2999999523163","trial","","40","500","798.2999999523163","images/stimuli/complex_14_A_a.gif","images/stimuli/complex_13_A_b.gif","forced_short","510","","","","","","4","complex_dissimilar","images/stimuli/complex_13_A_b.gif","",""
"","html-keyboard-response","91","257497","0.0-23.0-0.6","SS1627331426389","","null","","","null","","","","","","","","","","","<p><img src= images/blank.png width =""600"" height = ""600"" style=""position:fixed;top:50%; left:50%; transform: translate(-50%, -50%); border:5px solid black"">","","","","",""
"","stimuli-presentation","92","258045","0.0-23.0-1.6","SS1627331426389","","45.40000009536743","trial","","40","500","545.4000000953674","images/stimuli/complex_14_A_a.gif","images/stimuli/complex_13_A_b.gif","forced_short","510","","","","","","4","complex_dissimilar","images/stimuli/complex_13_A_b.gif","",""
"","html-keyboard-response","93","259075","0.0-23.0-0.7","SS1627331426389","","null","","","null","","","","","","","","","","","<p><img src= images/blank.png width =""600"" height = ""600"" style=""position:fixed;top:50%; left:50%; transform: translate(-50%, -50%); border:5px solid black"">","","","","",""
"","stimuli-presentation","94","261744","0.0-23.0-1.7","SS1627331426389","","2165.899999976158","trial","","40","500","2665.899999976158","images/stimuli/complex_14_A_a.gif","images/stimuli/complex_13_A_b.gif","forced_short","510","","","","","","4","complex_dissimilar","images/stimuli/complex_13_A_b.gif","",""
"","survey-multi-choice","95","264683","0.0-24.0","SS1627331426389","","2937.7000000476837","memory_test","","","","","","","","","{""Q0"":""No""}","[0]","images/stimuli/complex_16_A_a.gif","4","","","","","",""
"","survey-multi-choice","96","266496","0.0-25.0","SS1627331426389","","1811","memory_test","","","","","","","","","{""Q0"":""Yes""}","[0]","images/stimuli/complex_14_A_a.gif","4","","","","","",""
"","html-keyboard-response","97","267649","0.0-26.0-0.0","SS1627331426389","","null","","","null","","","","","","","","","","","<p><img src= images/blank.png width =""600"" height = ""600"" style=""position:fixed;top:50%; left:50%; transform: translate(-50%, -50%); border:5px solid black"">","","","","",""
"","stimuli-presentation","98","269627","0.0-26.0-1.0","SS1627331426389","","1214.5","trial","","40","500","1714.5","images/stimuli/complex_12_A_b.gif","images/stimuli/complex_06_A_a.gif","forced_short","760","","","","","","5","complex_dissimilar","images/stimuli/complex_06_A_a.gif","",""
"","html-keyboard-response","99","270607","0.0-26.0-0.1","SS1627331426389","","null","","","null","","","","","","","","","","","<p><img src= images/blank.png width =""600"" height = ""600"" style=""position:fixed;top:50%; left:50%; transform: translate(-50%, -50%); border:5px solid black"">","","","","",""
"","stimuli-presentation","100","272604","0.0-26.0-1.1","SS1627331426389","","1493.8999999761581","trial","","40","500","1993.8999999761581","images/stimuli/complex_12_A_b.gif","images/stimuli/complex_06_A_a.gif","forced_short","760","","","","","","5","complex_dissimilar","images/stimuli/complex_06_A_a.gif","",""
"","html-keyboard-response","101","273660","0.0-26.0-0.2","SS1627331426389","","null","","","null","","","","","","","","","","","<p><img src= images/blank.png width =""600"" height = ""600"" style=""position:fixed;top:50%; left:50%; transform: translate(-50%, -50%); border:5px solid black"">","","","","",""
"","stimuli-presentation","102","275081","0.0-26.0-1.2","SS1627331426389","","918.3999999761581","trial","","40","500","1418.3999999761581","images/stimuli/complex_12_A_b.gif","images/stimuli/complex_06_A_a.gif","forced_short","760","","","","","","5","complex_dissimilar","images/stimuli/complex_06_A_a.gif","",""
"","html-keyboard-response","103","276031","0.0-26.0-0.3","SS1627331426389","","null","","","null","","","","","","","","","","","<p><img src= images/blank.png width =""600"" height = ""600"" style=""position:fixed;top:50%; left:50%; transform: translate(-50%, -50%); border:5px solid black"">","","","","",""
"","stimuli-presentation","104","277054","0.0-26.0-1.3","SS1627331426389","","519.7999999523163","trial","","40","500","1019.7999999523163","images/stimuli/complex_12_A_b.gif","images/stimuli/complex_06_A_a.gif","forced_short","760","","","","","","5","complex_dissimilar","images/stimuli/complex_06_A_a.gif","",""
"","html-keyboard-response","105","277900","0.0-26.0-0.4","SS1627331426389","","null","","","null","","","","","","","","","","","<p><img src= images/blank.png width =""600"" height = ""600"" style=""position:fixed;top:50%; left:50%; transform: translate(-50%, -50%); border:5px solid black"">","","","","",""
"","stimuli-presentation","106","278840","0.0-26.0-1.4","SS1627331426389","","437.8000000715256","trial","","40","500","937.8000000715256","images/stimuli/complex_12_A_b.gif","images/stimuli/complex_06_A_a.gif","forced_short","760","","","","","","5","complex_dissimilar","images/stimuli/complex_06_A_a.gif","",""
"","html-keyboard-response","107","280051","0.0-26.0-0.5","SS1627331426389","","null","","","null","","","","","","","","","","","<p><img src= images/blank.png width =""600"" height = ""600"" style=""position:fixed;top:50%; left:50%; transform: translate(-50%, -50%); border:5px solid black"">","","","","",""
"","stimuli-presentation","108","281654","0.0-26.0-1.5","SS1627331426389","","1100","trial","","40","500","1600","images/stimuli/complex_12_A_b.gif","images/stimuli/complex_06_A_a.gif","forced_short","760","","","","","","5","complex_dissimilar","images/stimuli/complex_12_A_b.gif","",""
"","html-keyboard-response","109","282814","0.0-26.0-0.6","SS1627331426389","","null","","","null","","","","","","","","","","","<p><img src= images/blank.png width =""600"" height = ""600"" style=""position:fixed;top:50%; left:50%; transform: translate(-50%, -50%); border:5px solid black"">","","","","",""
"","stimuli-presentation","110","285167","0.0-26.0-1.6","SS1627331426389","","1850.3000000715256","trial","","40","500","2350.3000000715256","images/stimuli/complex_12_A_b.gif","images/stimuli/complex_06_A_a.gif","forced_short","760","","","","","","5","complex_dissimilar","images/stimuli/complex_12_A_b.gif","",""
"","survey-multi-choice","111","287600","0.0-27.0","SS1627331426389","","2430","memory_test","","","","","","","","","{""Q0"":""No""}","[0]","images/stimuli/complex_22_A_a.gif","5","","","","","",""
"","survey-multi-choice","112","289043","0.0-28.0","SS1627331426389","","1441.3000000715256","memory_test","","","","","","","","","{""Q0"":""Yes""}","[0]","images/stimuli/complex_06_A_a.gif","5","","","","","",""
"","html-keyboard-response","113","289873","0.0-29.0-0.0","SS1627331426389","","null","","","null","","","","","","","","","","","<p><img src= images/blank.png width =""600"" height = ""600"" style=""position:fixed;top:50%; left:50%; transform: translate(-50%, -50%); border:5px solid black"">","","","","",""
"","stimuli-presentation","114","293034","0.0-29.0-1.0","SS1627331426389","","2607.2999999523163","trial","","40","500","3107.2999999523163","images/stimuli/complex_15_A_b.gif","images/stimuli/complex_11_A_b.gif","forced_short","550","","","","","","6","complex_dissimilar","images/stimuli/complex_11_A_b.gif","",""
"","html-keyboard-response","115","294142","0.0-29.0-0.1","SS1627331426389","","null","","","null","","","","","","","","","","","<p><img src= images/blank.png width =""600"" height = ""600"" style=""position:fixed;top:50%; left:50%; transform: translate(-50%, -50%); border:5px solid black"">","","","","",""
"","stimuli-presentation","116","295316","0.0-29.0-1.1","SS1627331426389","","671.2000000476837","trial","","40","500","1171.2000000476837","images/stimuli/complex_15_A_b.gif","images/stimuli/complex_11_A_b.gif","forced_short","550","","","","","","6","complex_dissimilar","images/stimuli/complex_11_A_b.gif","",""
"","html-keyboard-response","117","296255","0.0-29.0-0.2","SS1627331426389","","null","","","null","","","","","","","","","","","<p><img src= images/blank.png width =""600"" height = ""600"" style=""position:fixed;top:50%; left:50%; transform: translate(-50%, -50%); border:5px solid black"">","","","","",""
"","stimuli-presentation","118","297634","0.0-29.0-1.2","SS1627331426389","","875.9000000953674","trial","","40","500","1375.9000000953674","images/stimuli/complex_15_A_b.gif","images/stimuli/complex_11_A_b.gif","forced_short","550","","","","","","6","complex_dissimilar","images/stimuli/complex_11_A_b.gif","",""
"","html-keyboard-response","119","298625","0.0-29.0-0.3","SS1627331426389","","null","","","null","","","","","","","","","","","<p><img src= images/blank.png width =""600"" height = ""600"" style=""position:fixed;top:50%; left:50%; transform: translate(-50%, -50%); border:5px solid black"">","","","","",""
"","stimuli-presentation","120","299650","0.0-29.0-1.3","SS1627331426389","","521.9000000953674","trial","","40","500","1021.9000000953674","images/stimuli/complex_15_A_b.gif","images/stimuli/complex_11_A_b.gif","forced_short","550","","","","","","6","complex_dissimilar","images/stimuli/complex_11_A_b.gif","",""
"","html-keyboard-response","121","300809","0.0-29.0-0.4","SS1627331426389","","null","","","null","","","","","","","","","","","<p><img src= images/blank.png width =""600"" height = ""600"" style=""position:fixed;top:50%; left:50%; transform: translate(-50%, -50%); border:5px solid black"">","","","","",""
"","stimuli-presentation","122","301513","0.0-29.0-1.4","SS1627331426389","","200.5","trial","","40","500","700.5","images/stimuli/complex_15_A_b.gif","images/stimuli/complex_11_A_b.gif","forced_short","550","","","","","","6","complex_dissimilar","images/stimuli/complex_11_A_b.gif","",""
"","html-keyboard-response","123","302808","0.0-29.0-0.5","SS1627331426389","","null","","","null","","","","","","","","","","","<p><img src= images/blank.png width =""600"" height = ""600"" style=""position:fixed;top:50%; left:50%; transform: translate(-50%, -50%); border:5px solid black"">","","","","",""
"","stimuli-presentation","124","303615","0.0-29.0-1.5","SS1627331426389","","304.1999999284744","trial","","40","500","804.1999999284744","images/stimuli/complex_15_A_b.gif","images/stimuli/complex_11_A_b.gif","forced_short","550","","","","","","6","complex_dissimilar","images/stimuli/complex_11_A_b.gif","",""
"","survey-multi-choice","125","306572","0.0-30.0","SS1627331426389","","2955","memory_test","","","","","","","","","{""Q0"":""No""}","[0]","images/stimuli/complex_07_A_b.gif","6","","","","","",""
"","survey-multi-choice","126","307938","0.0-31.0","SS1627331426389","","1363.2999999523163","memory_test","","","","","","","","","{""Q0"":""Yes""}","[0]","images/stimuli/complex_11_A_b.gif","6","","","","","",""
"","html-keyboard-response","127","308841","0.0-32.0-0.0","SS1627331426389","","null","","","null","","","","","","","","","","","<p><img src= images/blank.png width =""600"" height = ""600"" style=""position:fixed;top:50%; left:50%; transform: translate(-50%, -50%); border:5px solid black"">","","","","",""
"","stimuli-presentation","128","311002","0.0-32.0-1.0","SS1627331426389","","2108.1999999284744","trial","","40","500","2608.1999999284744","images/stimuli/complex_09_A_a.gif","images/stimuli/complex_05_A_a.gif","forced_short","50","","","","","","7","complex_dissimilar","images/stimuli/complex_05_A_a.gif","",""
"","html-keyboard-response","129","312179","0.0-32.0-0.1","SS1627331426389","","null","","","null","","","","","","","","","","","<p><img src= images/blank.png width =""600"" height = ""600"" style=""position:fixed;top:50%; left:50%; transform: translate(-50%, -50%); border:5px solid black"">","","","","",""
"","stimuli-presentation","130","314820","0.0-32.0-1.1","SS1627331426389","","2136.9000000953674","trial","","40","500","2636.9000000953674","images/stimuli/complex_09_A_a.gif","images/stimuli/complex_05_A_a.gif","forced_short","50","","","","","","7","complex_dissimilar","images/stimuli/complex_05_A_a.gif","",""
"","html-keyboard-response","131","315951","0.0-32.0-0.2","SS1627331426389","","null","","","null","","","","","","","","","","","<p><img src= images/blank.png width =""600"" height = ""600"" style=""position:fixed;top:50%; left:50%; transform: translate(-50%, -50%); border:5px solid black"">","","","","",""
"","stimuli-presentation","132","316667","0.0-32.0-1.2","SS1627331426389","","212.89999997615814","trial","","40","500","712.8999999761581","images/stimuli/complex_09_A_a.gif","images/stimuli/complex_05_A_a.gif","forced_short","50","","","","","","7","complex_dissimilar","images/stimuli/complex_05_A_a.gif","",""
"","html-keyboard-response","133","317495","0.0-32.0-0.3","SS1627331426389","","null","","","null","","","","","","","","","","","<p><img src= images/blank.png width =""600"" height = ""600"" style=""position:fixed;top:50%; left:50%; transform: translate(-50%, -50%); border:5px solid black"">","","","","",""
"","stimuli-presentation","134","318978","0.0-32.0-1.3","SS1627331426389","","980.9000000953674","trial","","40","500","1480.9000000953674","images/stimuli/complex_09_A_a.gif","images/stimuli/complex_05_A_a.gif","forced_short","50","","","","","","7","complex_dissimilar","images/stimuli/complex_05_A_a.gif","",""
"","html-keyboard-response","135","320127","0.0-32.0-0.4","SS1627331426389","","null","","","null","","","","","","","","","","","<p><img src= images/blank.png width =""600"" height = ""600"" style=""position:fixed;top:50%; left:50%; transform: translate(-50%, -50%); border:5px solid black"">","","","","",""
"","stimuli-presentation","136","321332","0.0-32.0-1.4","SS1627331426389","","701.2999999523163","trial","","40","500","1201.2999999523163","images/stimuli/complex_09_A_a.gif","images/stimuli/complex_05_A_a.gif","forced_short","50","","","","","","7","complex_dissimilar","images/stimuli/complex_05_A_a.gif","",""
"","html-keyboard-response","137","322417","0.0-32.0-0.5","SS1627331426389","","null","","","null","","","","","","","","","","","<p><img src= images/blank.png width =""600"" height = ""600"" style=""position:fixed;top:50%; left:50%; transform: translate(-50%, -50%); border:5px solid black"">","","","","",""
"","stimuli-presentation","138","323569","0.0-32.0-1.5","SS1627331426389","","648.6000000238419","trial","","40","500","1148.6000000238419","images/stimuli/complex_09_A_a.gif","images/stimuli/complex_05_A_a.gif","forced_short","50","","","","","","7","complex_dissimilar","images/stimuli/complex_05_A_a.gif","",""
"","html-keyboard-response","139","324574","0.0-32.0-0.6","SS1627331426389","","null","","","null","","","","","","","","","","","<p><img src= images/blank.png width =""600"" height = ""600"" style=""position:fixed;top:50%; left:50%; transform: translate(-50%, -50%); border:5px solid black"">","","","","",""
"","stimuli-presentation","140","325081","0.0-32.0-1.6","SS1627331426389","","2.399999976158142","trial","","40","500","502.39999997615814","images/stimuli/complex_09_A_a.gif","images/stimuli/complex_05_A_a.gif","forced_short","50","","","","","","7","complex_dissimilar","images/stimuli/complex_05_A_a.gif","",""
"","html-keyboard-response","141","326120","0.0-32.0-0.7","SS1627331426389","","null","","","null","","","","","","","","","","","<p><img src= images/blank.png width =""600"" height = ""600"" style=""position:fixed;top:50%; left:50%; transform: translate(-50%, -50%); border:5px solid black"">","","","","",""
"","stimuli-presentation","142","327047","0.0-32.0-1.7","SS1627331426389","","423.7999999523163","trial","","40","500","923.7999999523163","images/stimuli/complex_09_A_a.gif","images/stimuli/complex_05_A_a.gif","forced_short","50","","","","","","7","complex_dissimilar","images/stimuli/complex_05_A_a.gif","",""
"","survey-multi-choice","143","329760","0.0-33.0","SS1627331426389","","2710.399999976158","memory_test","","","","","","","","","{""Q0"":""No""}","[0]","images/stimuli/complex_18_A_a.gif","7","","","","","",""
"","survey-multi-choice","144","331333","0.0-34.0","SS1627331426389","","1571.3999999761581","memory_test","","","","","","","","","{""Q0"":""Yes""}","[0]","images/stimuli/complex_05_A_a.gif","7","","","","","",""
"","instructions","145","336592","0.0-35.0","SS1627331426389","[{""page_index"":0,""viewing_time"":5256.699999928474}]","5257","instructions","","","","","","","","","","","","","","","","","",""
"","survey-likert","146","348116","0.0-36.0","SS1627331426389","","11520.799999952316","similarity_question","","","","","","","","","{""Q0"":1}","[0]","","","","","","","images/stimuli/complex_05_A_a.gif","images/stimuli/complex_09_A_a.gif"
"","survey-likert","147","358385","0.0-37.0","SS1627331426389","","10265.800000071526","similarity_question","","","","","","","","","{""Q0"":4}","[0]","","","","","","","images/stimuli/complex_15_A_b.gif","images/stimuli/complex_11_A_b.gif"
"","survey-likert","148","363371","0.0-38.0","SS1627331426389","","4982.800000071526","similarity_question","","","","","","","","","{""Q0"":1}","[0]","","","","","","","images/stimuli/complex_04_A_a.gif","images/stimuli/complex_20_A_a.gif"
"","survey-likert","149","368013","0.0-39.0","SS1627331426389","","4639.899999976158","similarity_question","","","","","","","","","{""Q0"":1}","[0]","","","","","","","images/stimuli/complex_12_A_b.gif","images/stimuli/complex_06_A_a.gif"
"","survey-likert","150","372159","0.0-40.0","SS1627331426389","","4142.100000023842","similarity_question","","","","","","","","","{""Q0"":0}","[0]","","","","","","","images/stimuli/complex_10_A_b.gif","images/stimuli/complex_01_A_a.gif"
"","survey-likert","151","374939","0.0-41.0","SS1627331426389","","2776.6999999284744","similarity_question","","","","","","","","","{""Q0"":1}","[0]","","","","","","","images/stimuli/complex_13_A_b.gif","images/stimuli/complex_14_A_a.gif"
"","survey-likert","152","381096","0.0-42.0","SS1627331426389","","6154.700000047684","similarity_question","","","","","","","","","{""Q0"":4}","[0]","","","","","","","images/stimuli/complex_23_A_b.gif","images/stimuli/complex_03_A_b.gif"
"","survey-likert","153","385104","0.0-43.0","SS1627331426389","","4005.1999999284744","similarity_question","","","","","","","","","{""Q0"":1}","[0]","","","","","","","images/stimuli/complex_24_A_b.gif","images/stimuli/complex_02_A_b.gif"
"","instructions","154","391051","0.0-44.0","SS1627331426389","[{""page_index"":0,""viewing_time"":5943.899999976158}]","5944.200000047684","instructions","","","","","","","","","","","","","","","","","",""
"","survey-likert","155","398029","0.0-45.0","SS1627331426389","","6975.5","","","","","","","","","","{""Q0"":2}","[0]","","","images/stimuli/complex_15_A_b.gif","","","","",""
"","survey-likert","156","402412","0.0-46.0","SS1627331426389","","4380","","","","","","","","","","{""Q0"":1}","[0]","","","images/stimuli/complex_03_A_b.gif","","","","",""
"","survey-likert","157","406837","0.0-47.0","SS1627331426389","","4422","","","","","","","","","","{""Q0"":1}","[0]","","","images/stimuli/complex_02_A_b.gif","","","","",""
"","survey-likert","158","410501","0.0-48.0","SS1627331426389","","3661.2000000476837","","","","","","","","","","{""Q0"":1}","[0]","","","images/stimuli/complex_10_A_b.gif","","","","",""
"","survey-likert","159","415126","0.0-49.0","SS1627331426389","","4622.399999976158","","","","","","","","","","{""Q0"":5}","[0]","","","images/stimuli/complex_20_A_a.gif","","","","",""
"","survey-likert","160","419111","0.0-50.0","SS1627331426389","","3982.5","","","","","","","","","","{""Q0"":2}","[0]","","","images/stimuli/complex_12_A_b.gif","","","","",""
"","survey-likert","161","422682","0.0-51.0","SS1627331426389","","3568.5","","","","","","","","","","{""Q0"":2}","[0]","","","images/stimuli/complex_13_A_b.gif","","","","",""
"","survey-likert","162","429991","0.0-52.0","SS1627331426389","","7305.800000071526","","","","","","","","","","{""Q0"":0}","[0]","","","images/stimuli/complex_05_A_a.gif","","","","",""
"true","fullscreen","163","430995","0.0-53.0","SS1627331426389","","","","","","","","","","","","","","","","","","","","",""
"","instructions","164","433407","0.0-54.0","SS1627331426389","[{""page_index"":0,""viewing_time"":2410.100000023842}]","2410.2999999523163","instructions","","","","","","","","","","","","","","","","","",""
"","demog-age","165","436297","0.0-55.0","SS1627331426389","","2886.5","","","","","","","","","","{""age"":""21""}","","","","","","","","",""
"","demog-ethnic-US","166","440432","0.0-56.0","SS1627331426389","","4128.799999952316","","","","","","","","","","{""ethnicity"":[""White""]}","[0]","","","","","","","",""
"","demog-gender-and-education","167","449086","0.0-57.0","SS1627331426389","","8651.599999904633","","","","","","","","","","{""gender"":""Female"",""education"":""High school diploma""}","[0,1]","","","","","","","",""
"","survey-text","168","455470","0.0-58.0","SS1627331426389","","6380.600000023842","feedback","","","","","","","","","{""Q0"":""nothing""}","","","","","","","","",""
"","instructions","169","457338","0.0-59.0","SS1627331426389","[{""page_index"":0,""viewing_time"":1865.3000000715256}]","1865.6000000238419","instructions","","","","","","","","","","","","","","","","","",""
