"success","trial_type","trial_index","time_elapsed","internal_node_id","subject","view_history","rt","stimulus_type","trial_stimulus","key_press","minimum_viewing_duration","trial_looking_time","block_deviant","block_background","exposure_type","forced_exposure_time","responses","question_order","memory_question_stimuli","memory_block_index","stimulus","block_number","block_type","stimulus_displayed","stimulus_left","stimulus_right"
"true","fullscreen","0","9136","0.0-0.0","SS1627326904856","","","","","","","","","","","","","","","","","","","","",""
"","instructions","1","39643","0.0-1.0","SS1627326904856","[{""page_index"":0,""viewing_time"":30500.300000071526}]","30502.300000071526","","","","","","","","","","","","","","","","","","",""
"","instructions","2","65306","0.0-2.0","SS1627326904856","[{""page_index"":0,""viewing_time"":19513.899999976158},{""page_index"":1,""viewing_time"":4141.799999952316}]","23656.299999952316","instructions","","","","","","","","","","","","","","","","","",""
"","stimuli-presentation","3","90691","0.0-3.0","SS1627326904856","","24868.5","","","40","500","25368.5","null","null","self_paced","0","","","","","","","","","",""
"","instructions","4","109417","0.0-4.0","SS1627326904856","[{""page_index"":0,""viewing_time"":18722.899999976158}]","18723.5","instructions","","","","","","","","","","","","","","","","","",""
"","stimuli-presentation","5","130387","0.0-5.0","SS1627326904856","","20464.700000047684","","","40","500","20964.700000047684","null","null","forced_short","500","","","","","","","","","",""
"","stimuli-presentation","6","134755","0.0-6.0","SS1627326904856","","3857.5","","","40","500","4357.5","null","null","forced_short","500","","","","","","","","","",""
"","instructions","7","144338","0.0-7.0","SS1627326904856","[{""page_index"":0,""viewing_time"":9579.699999928474}]","9580.600000023842","instructions","","","","","","","","","","","","","","","","","",""
"","survey-multi-choice","8","149862","0.0-8.0","SS1627326904856","","5516.899999976158","memory_test_practice","","","","","","","","","{""Q0"":""Yes""}","[0]","images/practice/instructions_example_spore2.gif","0","","","","","",""
"","survey-multi-choice","9","154921","0.0-9.0","SS1627326904856","","5056.400000095367","memory_test_practice","","","","","","","","","{""Q0"":""No""}","[0]","images/practice/instructions_example_spore0.gif","0","","","","","",""
"","instructions","10","174098","0.0-10.0","SS1627326904856","[{""page_index"":0,""viewing_time"":17222.899999976158},{""page_index"":1,""viewing_time"":1950.5}]","19174.100000023842","instructions","","","","","","","","","","","","","","","","","",""
"","html-keyboard-response","11","175122","0.0-11.0-0.0","SS1627326904856","","null","","","null","","","","","","","","","","","<p><img src= images/blank.png width =""600"" height = ""600"" style=""position:fixed;top:50%; left:50%; transform: translate(-50%, -50%); border:5px solid black"">","","","","",""
"","stimuli-presentation","12","179459","0.0-11.0-1.0","SS1627326904856","","3579.3000000715256","trial","","40","500","4079.3000000715256","images/stimuli/complex_16_A_a.gif","images/stimuli/complex_19_A_b.gif","forced_short","750","","","","","","0","complex_dissimilar","images/stimuli/complex_19_A_b.gif","",""
"","html-keyboard-response","13","180293","0.0-11.0-0.1","SS1627326904856","","null","","","null","","","","","","","","","","","<p><img src= images/blank.png width =""600"" height = ""600"" style=""position:fixed;top:50%; left:50%; transform: translate(-50%, -50%); border:5px solid black"">","","","","",""
"","stimuli-presentation","14","187884","0.0-11.0-1.1","SS1627326904856","","7074.899999976158","trial","","40","500","7574.899999976158","images/stimuli/complex_16_A_a.gif","images/stimuli/complex_19_A_b.gif","forced_short","750","","","","","","0","complex_dissimilar","images/stimuli/complex_16_A_a.gif","",""
"","html-keyboard-response","15","189188","0.0-11.0-0.2","SS1627326904856","","null","","","null","","","","","","","","","","","<p><img src= images/blank.png width =""600"" height = ""600"" style=""position:fixed;top:50%; left:50%; transform: translate(-50%, -50%); border:5px solid black"">","","","","",""
"","stimuli-presentation","16","197809","0.0-11.0-1.2","SS1627326904856","","8116.100000023842","trial","","40","500","8616.100000023842","images/stimuli/complex_16_A_a.gif","images/stimuli/complex_19_A_b.gif","forced_short","750","","","","","","0","complex_dissimilar","images/stimuli/complex_19_A_b.gif","",""
"","html-keyboard-response","17","198693","0.0-11.0-0.3","SS1627326904856","","null","","","null","","","","","","","","","","","<p><img src= images/blank.png width =""600"" height = ""600"" style=""position:fixed;top:50%; left:50%; transform: translate(-50%, -50%); border:5px solid black"">","","","","",""
"","stimuli-presentation","18","207560","0.0-11.0-1.3","SS1627326904856","","8349.600000023842","trial","","40","500","8849.600000023842","images/stimuli/complex_16_A_a.gif","images/stimuli/complex_19_A_b.gif","forced_short","750","","","","","","0","complex_dissimilar","images/stimuli/complex_19_A_b.gif","",""
"","html-keyboard-response","19","208464","0.0-11.0-0.4","SS1627326904856","","null","","","null","","","","","","","","","","","<p><img src= images/blank.png width =""600"" height = ""600"" style=""position:fixed;top:50%; left:50%; transform: translate(-50%, -50%); border:5px solid black"">","","","","",""
"","stimuli-presentation","20","217555","0.0-11.0-1.4","SS1627326904856","","8569.899999976158","trial","","40","500","9069.899999976158","images/stimuli/complex_16_A_a.gif","images/stimuli/complex_19_A_b.gif","forced_short","750","","","","","","0","complex_dissimilar","images/stimuli/complex_19_A_b.gif","",""
"","html-keyboard-response","21","218507","0.0-11.0-0.5","SS1627326904856","","null","","","null","","","","","","","","","","","<p><img src= images/blank.png width =""600"" height = ""600"" style=""position:fixed;top:50%; left:50%; transform: translate(-50%, -50%); border:5px solid black"">","","","","",""
"","stimuli-presentation","22","228187","0.0-11.0-1.5","SS1627326904856","","9173.600000023842","trial","","40","500","9673.600000023842","images/stimuli/complex_16_A_a.gif","images/stimuli/complex_19_A_b.gif","forced_short","750","","","","","","0","complex_dissimilar","images/stimuli/complex_19_A_b.gif","",""
"","html-keyboard-response","23","229039","0.0-11.0-0.6","SS1627326904856","","null","","","null","","","","","","","","","","","<p><img src= images/blank.png width =""600"" height = ""600"" style=""position:fixed;top:50%; left:50%; transform: translate(-50%, -50%); border:5px solid black"">","","","","",""
"","stimuli-presentation","24","235685","0.0-11.0-1.6","SS1627326904856","","6140.900000095367","trial","","40","500","6640.900000095367","images/stimuli/complex_16_A_a.gif","images/stimuli/complex_19_A_b.gif","forced_short","750","","","","","","0","complex_dissimilar","images/stimuli/complex_16_A_a.gif","",""
"","survey-multi-choice","25","239919","0.0-12.0","SS1627326904856","","4230.600000023842","memory_test","","","","","","","","","{""Q0"":""No""}","[0]","images/stimuli/complex_18_A_b.gif","0","","","","","",""
"","survey-multi-choice","26","243904","0.0-13.0","SS1627326904856","","3978.899999976158","memory_test","","","","","","","","","{""Q0"":""Yes""}","[0]","images/stimuli/complex_19_A_b.gif","0","","","","","",""
"","html-keyboard-response","27","244859","0.0-14.0-0.0","SS1627326904856","","null","","","null","","","","","","","","","","","<p><img src= images/blank.png width =""600"" height = ""600"" style=""position:fixed;top:50%; left:50%; transform: translate(-50%, -50%); border:5px solid black"">","","","","",""
"","stimuli-presentation","28","248384","0.0-14.0-1.0","SS1627326904856","","3278","trial","","40","500","3778","images/stimuli/complex_13_A_b.gif","images/stimuli/complex_10_A_b.gif","forced_short","240","","","","","","1","complex_dissimilar","images/stimuli/complex_10_A_b.gif","",""
"","html-keyboard-response","29","249698","0.0-14.0-0.1","SS1627326904856","","null","","","null","","","","","","","","","","","<p><img src= images/blank.png width =""600"" height = ""600"" style=""position:fixed;top:50%; left:50%; transform: translate(-50%, -50%); border:5px solid black"">","","","","",""
"","stimuli-presentation","30","258138","0.0-14.0-1.1","SS1627326904856","","7932.399999976158","trial","","40","500","8432.399999976158","images/stimuli/complex_13_A_b.gif","images/stimuli/complex_10_A_b.gif","forced_short","240","","","","","","1","complex_dissimilar","images/stimuli/complex_13_A_b.gif","",""
"","html-keyboard-response","31","259346","0.0-14.0-0.2","SS1627326904856","","null","","","null","","","","","","","","","","","<p><img src= images/blank.png width =""600"" height = ""600"" style=""position:fixed;top:50%; left:50%; transform: translate(-50%, -50%); border:5px solid black"">","","","","",""
"","stimuli-presentation","32","265828","0.0-14.0-1.2","SS1627326904856","","5975.899999976158","trial","","40","500","6475.899999976158","images/stimuli/complex_13_A_b.gif","images/stimuli/complex_10_A_b.gif","forced_short","240","","","","","","1","complex_dissimilar","images/stimuli/complex_10_A_b.gif","",""
"","html-keyboard-response","33","267083","0.0-14.0-0.3","SS1627326904856","","null","","","null","","","","","","","","","","","<p><img src= images/blank.png width =""600"" height = ""600"" style=""position:fixed;top:50%; left:50%; transform: translate(-50%, -50%); border:5px solid black"">","","","","",""
"","stimuli-presentation","34","275701","0.0-14.0-1.3","SS1627326904856","","8100.399999976158","trial","","40","500","8600.399999976158","images/stimuli/complex_13_A_b.gif","images/stimuli/complex_10_A_b.gif","forced_short","240","","","","","","1","complex_dissimilar","images/stimuli/complex_10_A_b.gif","",""
"","html-keyboard-response","35","276943","0.0-14.0-0.4","SS1627326904856","","null","","","null","","","","","","","","","","","<p><img src= images/blank.png width =""600"" height = ""600"" style=""position:fixed;top:50%; left:50%; transform: translate(-50%, -50%); border:5px solid black"">","","","","",""
"","stimuli-presentation","36","285430","0.0-14.0-1.4","SS1627326904856","","7980.600000023842","trial","","40","500","8480.600000023842","images/stimuli/complex_13_A_b.gif","images/stimuli/complex_10_A_b.gif","forced_short","240","","","","","","1","complex_dissimilar","images/stimuli/complex_10_A_b.gif","",""
"","html-keyboard-response","37","286461","0.0-14.0-0.5","SS1627326904856","","null","","","null","","","","","","","","","","","<p><img src= images/blank.png width =""600"" height = ""600"" style=""position:fixed;top:50%; left:50%; transform: translate(-50%, -50%); border:5px solid black"">","","","","",""
"","stimuli-presentation","38","293727","0.0-14.0-1.5","SS1627326904856","","6763","trial","","40","500","7263","images/stimuli/complex_13_A_b.gif","images/stimuli/complex_10_A_b.gif","forced_short","240","","","","","","1","complex_dissimilar","images/stimuli/complex_10_A_b.gif","",""
"","html-keyboard-response","39","294567","0.0-14.0-0.6","SS1627326904856","","null","","","null","","","","","","","","","","","<p><img src= images/blank.png width =""600"" height = ""600"" style=""position:fixed;top:50%; left:50%; transform: translate(-50%, -50%); border:5px solid black"">","","","","",""
"","stimuli-presentation","40","301900","0.0-14.0-1.6","SS1627326904856","","6829.799999952316","trial","","40","500","7329.799999952316","images/stimuli/complex_13_A_b.gif","images/stimuli/complex_10_A_b.gif","forced_short","240","","","","","","1","complex_dissimilar","images/stimuli/complex_10_A_b.gif","",""
"","html-keyboard-response","41","303192","0.0-14.0-0.7","SS1627326904856","","null","","","null","","","","","","","","","","","<p><img src= images/blank.png width =""600"" height = ""600"" style=""position:fixed;top:50%; left:50%; transform: translate(-50%, -50%); border:5px solid black"">","","","","",""
"","stimuli-presentation","42","308478","0.0-14.0-1.7","SS1627326904856","","4779.299999952316","trial","","40","500","5279.299999952316","images/stimuli/complex_13_A_b.gif","images/stimuli/complex_10_A_b.gif","forced_short","240","","","","","","1","complex_dissimilar","images/stimuli/complex_10_A_b.gif","",""
"","survey-multi-choice","43","312781","0.0-15.0","SS1627326904856","","4298.600000023842","memory_test","","","","","","","","","{""Q0"":""No""}","[0]","images/stimuli/complex_15_A_b.gif","1","","","","","",""
"","survey-multi-choice","44","315605","0.0-16.0","SS1627326904856","","2821.3000000715256","memory_test","","","","","","","","","{""Q0"":""Yes""}","[0]","images/stimuli/complex_13_A_b.gif","1","","","","","",""
"","html-keyboard-response","45","316423","0.0-17.0-0.0","SS1627326904856","","null","","","null","","","","","","","","","","","<p><img src= images/blank.png width =""600"" height = ""600"" style=""position:fixed;top:50%; left:50%; transform: translate(-50%, -50%); border:5px solid black"">","","","","",""
"","stimuli-presentation","46","319676","0.0-17.0-1.0","SS1627326904856","","3140.0999999046326","trial","","40","500","3640.0999999046326","images/stimuli/complex_22_A_a.gif","images/stimuli/complex_23_A_a.gif","forced_short","110","","","","","","2","complex_dissimilar","images/stimuli/complex_23_A_a.gif","",""
"","html-keyboard-response","47","320503","0.0-17.0-0.1","SS1627326904856","","null","","","null","","","","","","","","","","","<p><img src= images/blank.png width =""600"" height = ""600"" style=""position:fixed;top:50%; left:50%; transform: translate(-50%, -50%); border:5px solid black"">","","","","",""
"","stimuli-presentation","48","326792","0.0-17.0-1.1","SS1627326904856","","5778.799999952316","trial","","40","500","6278.799999952316","images/stimuli/complex_22_A_a.gif","images/stimuli/complex_23_A_a.gif","forced_short","110","","","","","","2","complex_dissimilar","images/stimuli/complex_23_A_a.gif","",""
"","html-keyboard-response","49","328045","0.0-17.0-0.2","SS1627326904856","","null","","","null","","","","","","","","","","","<p><img src= images/blank.png width =""600"" height = ""600"" style=""position:fixed;top:50%; left:50%; transform: translate(-50%, -50%); border:5px solid black"">","","","","",""
"","stimuli-presentation","50","334474","0.0-17.0-1.2","SS1627326904856","","5922","trial","","40","500","6422","images/stimuli/complex_22_A_a.gif","images/stimuli/complex_23_A_a.gif","forced_short","110","","","","","","2","complex_dissimilar","images/stimuli/complex_23_A_a.gif","",""
"","html-keyboard-response","51","335370","0.0-17.0-0.3","SS1627326904856","","null","","","null","","","","","","","","","","","<p><img src= images/blank.png width =""600"" height = ""600"" style=""position:fixed;top:50%; left:50%; transform: translate(-50%, -50%); border:5px solid black"">","","","","",""
"","stimuli-presentation","52","341520","0.0-17.0-1.3","SS1627326904856","","5641.700000047684","trial","","40","500","6141.700000047684","images/stimuli/complex_22_A_a.gif","images/stimuli/complex_23_A_a.gif","forced_short","110","","","","","","2","complex_dissimilar","images/stimuli/complex_23_A_a.gif","",""
"","html-keyboard-response","53","342723","0.0-17.0-0.4","SS1627326904856","","null","","","null","","","","","","","","","","","<p><img src= images/blank.png width =""600"" height = ""600"" style=""position:fixed;top:50%; left:50%; transform: translate(-50%, -50%); border:5px solid black"">","","","","",""
"","stimuli-presentation","54","349556","0.0-17.0-1.4","SS1627326904856","","6311.699999928474","trial","","40","500","6811.699999928474","images/stimuli/complex_22_A_a.gif","images/stimuli/complex_23_A_a.gif","forced_short","110","","","","","","2","complex_dissimilar","images/stimuli/complex_23_A_a.gif","",""
"","html-keyboard-response","55","350683","0.0-17.0-0.5","SS1627326904856","","null","","","null","","","","","","","","","","","<p><img src= images/blank.png width =""600"" height = ""600"" style=""position:fixed;top:50%; left:50%; transform: translate(-50%, -50%); border:5px solid black"">","","","","",""
"","stimuli-presentation","56","360435","0.0-17.0-1.5","SS1627326904856","","9248.899999976158","trial","","40","500","9748.899999976158","images/stimuli/complex_22_A_a.gif","images/stimuli/complex_23_A_a.gif","forced_short","110","","","","","","2","complex_dissimilar","images/stimuli/complex_23_A_a.gif","",""
"","html-keyboard-response","57","361462","0.0-17.0-0.6","SS1627326904856","","null","","","null","","","","","","","","","","","<p><img src= images/blank.png width =""600"" height = ""600"" style=""position:fixed;top:50%; left:50%; transform: translate(-50%, -50%); border:5px solid black"">","","","","",""
"","stimuli-presentation","58","369711","0.0-17.0-1.6","SS1627326904856","","7746.099999904633","trial","","40","500","8246.099999904633","images/stimuli/complex_22_A_a.gif","images/stimuli/complex_23_A_a.gif","forced_short","110","","","","","","2","complex_dissimilar","images/stimuli/complex_22_A_a.gif","",""
"","html-keyboard-response","59","370617","0.0-17.0-0.7","SS1627326904856","","null","","","null","","","","","","","","","","","<p><img src= images/blank.png width =""600"" height = ""600"" style=""position:fixed;top:50%; left:50%; transform: translate(-50%, -50%); border:5px solid black"">","","","","",""
"","stimuli-presentation","60","376673","0.0-17.0-1.7","SS1627326904856","","5549.5","trial","","40","500","6049.5","images/stimuli/complex_22_A_a.gif","images/stimuli/complex_23_A_a.gif","forced_short","110","","","","","","2","complex_dissimilar","images/stimuli/complex_23_A_a.gif","",""
"","survey-multi-choice","61","380371","0.0-18.0","SS1627326904856","","3694","memory_test","","","","","","","","","{""Q0"":""No""}","[0]","images/stimuli/complex_05_A_b.gif","2","","","","","",""
"","survey-multi-choice","62","383910","0.0-19.0","SS1627326904856","","3531.2999999523163","memory_test","","","","","","","","","{""Q0"":""Yes""}","[0]","images/stimuli/complex_22_A_a.gif","2","","","","","",""
"","html-keyboard-response","63","384829","0.0-20.0-0.0","SS1627326904856","","null","","","null","","","","","","","","","","","<p><img src= images/blank.png width =""600"" height = ""600"" style=""position:fixed;top:50%; left:50%; transform: translate(-50%, -50%); border:5px solid black"">","","","","",""
"","stimuli-presentation","64","387687","0.0-20.0-1.0","SS1627326904856","","2298.5","trial","","40","500","2798.5","images/stimuli/complex_20_A_b.gif","images/stimuli/complex_21_A_b.gif","forced_short","540","","","","","","3","complex_dissimilar","images/stimuli/complex_21_A_b.gif","",""
"","html-keyboard-response","65","388895","0.0-20.0-0.1","SS1627326904856","","null","","","null","","","","","","","","","","","<p><img src= images/blank.png width =""600"" height = ""600"" style=""position:fixed;top:50%; left:50%; transform: translate(-50%, -50%); border:5px solid black"">","","","","",""
"","stimuli-presentation","66","392984","0.0-20.0-1.1","SS1627326904856","","3583.2999999523163","trial","","40","500","4083.2999999523163","images/stimuli/complex_20_A_b.gif","images/stimuli/complex_21_A_b.gif","forced_short","540","","","","","","3","complex_dissimilar","images/stimuli/complex_21_A_b.gif","",""
"","html-keyboard-response","67","393843","0.0-20.0-0.2","SS1627326904856","","null","","","null","","","","","","","","","","","<p><img src= images/blank.png width =""600"" height = ""600"" style=""position:fixed;top:50%; left:50%; transform: translate(-50%, -50%); border:5px solid black"">","","","","",""
"","stimuli-presentation","68","397762","0.0-20.0-1.2","SS1627326904856","","3412.5","trial","","40","500","3912.5","images/stimuli/complex_20_A_b.gif","images/stimuli/complex_21_A_b.gif","forced_short","540","","","","","","3","complex_dissimilar","images/stimuli/complex_21_A_b.gif","",""
"","html-keyboard-response","69","398850","0.0-20.0-0.3","SS1627326904856","","null","","","null","","","","","","","","","","","<p><img src= images/blank.png width =""600"" height = ""600"" style=""position:fixed;top:50%; left:50%; transform: translate(-50%, -50%); border:5px solid black"">","","","","",""
"","stimuli-presentation","70","403771","0.0-20.0-1.3","SS1627326904856","","4413","trial","","40","500","4913","images/stimuli/complex_20_A_b.gif","images/stimuli/complex_21_A_b.gif","forced_short","540","","","","","","3","complex_dissimilar","images/stimuli/complex_21_A_b.gif","",""
"","html-keyboard-response","71","404609","0.0-20.0-0.4","SS1627326904856","","null","","","null","","","","","","","","","","","<p><img src= images/blank.png width =""600"" height = ""600"" style=""position:fixed;top:50%; left:50%; transform: translate(-50%, -50%); border:5px solid black"">","","","","",""
"","stimuli-presentation","72","413181","0.0-20.0-1.4","SS1627326904856","","8063.599999904633","trial","","40","500","8563.599999904633","images/stimuli/complex_20_A_b.gif","images/stimuli/complex_21_A_b.gif","forced_short","540","","","","","","3","complex_dissimilar","images/stimuli/complex_20_A_b.gif","",""
"","html-keyboard-response","73","414351","0.0-20.0-0.5","SS1627326904856","","null","","","null","","","","","","","","","","","<p><img src= images/blank.png width =""600"" height = ""600"" style=""position:fixed;top:50%; left:50%; transform: translate(-50%, -50%); border:5px solid black"">","","","","",""
"","stimuli-presentation","74","421852","0.0-20.0-1.5","SS1627326904856","","6982.899999976158","trial","","40","500","7482.899999976158","images/stimuli/complex_20_A_b.gif","images/stimuli/complex_21_A_b.gif","forced_short","540","","","","","","3","complex_dissimilar","images/stimuli/complex_20_A_b.gif","",""
"","survey-multi-choice","75","427649","0.0-21.0","SS1627326904856","","5790.800000071526","memory_test","","","","","","","","","{""Q0"":""Yes""}","[0]","images/stimuli/complex_21_A_b.gif","3","","","","","",""
"","survey-multi-choice","76","430477","0.0-22.0","SS1627326904856","","2822.7999999523163","memory_test","","","","","","","","","{""Q0"":""No""}","[0]","images/stimuli/complex_01_A_b.gif","3","","","","","",""
"","html-keyboard-response","77","431412","0.0-23.0-0.0","SS1627326904856","","null","","","null","","","","","","","","","","","<p><img src= images/blank.png width =""600"" height = ""600"" style=""position:fixed;top:50%; left:50%; transform: translate(-50%, -50%); border:5px solid black"">","","","","",""
"","stimuli-presentation","78","434472","0.0-23.0-1.0","SS1627326904856","","2122.100000023842","trial","","40","500","2622.100000023842","images/stimuli/complex_09_A_a.gif","images/stimuli/complex_14_A_a.gif","forced_short","920","","","","","","4","complex_dissimilar","images/stimuli/complex_14_A_a.gif","",""
"","html-keyboard-response","79","435369","0.0-23.0-0.1","SS1627326904856","","null","","","null","","","","","","","","","","","<p><img src= images/blank.png width =""600"" height = ""600"" style=""position:fixed;top:50%; left:50%; transform: translate(-50%, -50%); border:5px solid black"">","","","","",""
"","stimuli-presentation","80","446082","0.0-23.0-1.1","SS1627326904856","","10206.600000023842","trial","","40","500","10706.600000023842","images/stimuli/complex_09_A_a.gif","images/stimuli/complex_14_A_a.gif","forced_short","920","","","","","","4","complex_dissimilar","images/stimuli/complex_14_A_a.gif","",""
"","html-keyboard-response","81","447010","0.0-23.0-0.2","SS1627326904856","","null","","","null","","","","","","","","","","","<p><img src= images/blank.png width =""600"" height = ""600"" style=""position:fixed;top:50%; left:50%; transform: translate(-50%, -50%); border:5px solid black"">","","","","",""
"","stimuli-presentation","82","453995","0.0-23.0-1.2","SS1627326904856","","6480.899999976158","trial","","40","500","6980.899999976158","images/stimuli/complex_09_A_a.gif","images/stimuli/complex_14_A_a.gif","forced_short","920","","","","","","4","complex_dissimilar","images/stimuli/complex_14_A_a.gif","",""
"","html-keyboard-response","83","455174","0.0-23.0-0.3","SS1627326904856","","null","","","null","","","","","","","","","","","<p><img src= images/blank.png width =""600"" height = ""600"" style=""position:fixed;top:50%; left:50%; transform: translate(-50%, -50%); border:5px solid black"">","","","","",""
"","stimuli-presentation","84","463374","0.0-23.0-1.3","SS1627326904856","","7693.099999904633","trial","","40","500","8193.099999904633","images/stimuli/complex_09_A_a.gif","images/stimuli/complex_14_A_a.gif","forced_short","920","","","","","","4","complex_dissimilar","images/stimuli/complex_09_A_a.gif","",""
"","html-keyboard-response","85","464411","0.0-23.0-0.4","SS1627326904856","","null","","","null","","","","","","","","","","","<p><img src= images/blank.png width =""600"" height = ""600"" style=""position:fixed;top:50%; left:50%; transform: translate(-50%, -50%); border:5px solid black"">","","","","",""
"","stimuli-presentation","86","472820","0.0-23.0-1.4","SS1627326904856","","7902.399999976158","trial","","40","500","8402.399999976158","images/stimuli/complex_09_A_a.gif","images/stimuli/complex_14_A_a.gif","forced_short","920","","","","","","4","complex_dissimilar","images/stimuli/complex_14_A_a.gif","",""
"","html-keyboard-response","87","474121","0.0-23.0-0.5","SS1627326904856","","null","","","null","","","","","","","","","","","<p><img src= images/blank.png width =""600"" height = ""600"" style=""position:fixed;top:50%; left:50%; transform: translate(-50%, -50%); border:5px solid black"">","","","","",""
"","stimuli-presentation","88","479615","0.0-23.0-1.5","SS1627326904856","","4986.899999976158","trial","","40","500","5486.899999976158","images/stimuli/complex_09_A_a.gif","images/stimuli/complex_14_A_a.gif","forced_short","920","","","","","","4","complex_dissimilar","images/stimuli/complex_14_A_a.gif","",""
"","html-keyboard-response","89","480676","0.0-23.0-0.6","SS1627326904856","","null","","","null","","","","","","","","","","","<p><img src= images/blank.png width =""600"" height = ""600"" style=""position:fixed;top:50%; left:50%; transform: translate(-50%, -50%); border:5px solid black"">","","","","",""
"","stimuli-presentation","90","485876","0.0-23.0-1.6","SS1627326904856","","4700.700000047684","trial","","40","500","5200.700000047684","images/stimuli/complex_09_A_a.gif","images/stimuli/complex_14_A_a.gif","forced_short","920","","","","","","4","complex_dissimilar","images/stimuli/complex_09_A_a.gif","",""
"","survey-multi-choice","91","489433","0.0-24.0","SS1627326904856","","3550.7999999523163","memory_test","","","","","","","","","{""Q0"":""No""}","[0]","images/stimuli/complex_11_A_a.gif","4","","","","","",""
"","survey-multi-choice","92","492570","0.0-25.0","SS1627326904856","","3131.6999999284744","memory_test","","","","","","","","","{""Q0"":""Yes""}","[0]","images/stimuli/complex_09_A_a.gif","4","","","","","",""
"","html-keyboard-response","93","493709","0.0-26.0-0.0","SS1627326904856","","null","","","null","","","","","","","","","","","<p><img src= images/blank.png width =""600"" height = ""600"" style=""position:fixed;top:50%; left:50%; transform: translate(-50%, -50%); border:5px solid black"">","","","","",""
"","stimuli-presentation","94","497768","0.0-26.0-1.0","SS1627326904856","","3122.899999976158","trial","","40","500","3622.899999976158","images/stimuli/complex_03_A_b.gif","images/stimuli/complex_06_A_b.gif","forced_short","930","","","","","","5","complex_dissimilar","images/stimuli/complex_06_A_b.gif","",""
"","html-keyboard-response","95","498782","0.0-26.0-0.1","SS1627326904856","","null","","","null","","","","","","","","","","","<p><img src= images/blank.png width =""600"" height = ""600"" style=""position:fixed;top:50%; left:50%; transform: translate(-50%, -50%); border:5px solid black"">","","","","",""
"","stimuli-presentation","96","508293","0.0-26.0-1.1","SS1627326904856","","9004.599999904633","trial","","40","500","9504.599999904633","images/stimuli/complex_03_A_b.gif","images/stimuli/complex_06_A_b.gif","forced_short","930","","","","","","5","complex_dissimilar","images/stimuli/complex_06_A_b.gif","",""
"","html-keyboard-response","97","509181","0.0-26.0-0.2","SS1627326904856","","null","","","null","","","","","","","","","","","<p><img src= images/blank.png width =""600"" height = ""600"" style=""position:fixed;top:50%; left:50%; transform: translate(-50%, -50%); border:5px solid black"">","","","","",""
"","stimuli-presentation","98","513064","0.0-26.0-1.2","SS1627326904856","","3375.2999999523163","trial","","40","500","3875.2999999523163","images/stimuli/complex_03_A_b.gif","images/stimuli/complex_06_A_b.gif","forced_short","930","","","","","","5","complex_dissimilar","images/stimuli/complex_06_A_b.gif","",""
"","html-keyboard-response","99","514181","0.0-26.0-0.3","SS1627326904856","","null","","","null","","","","","","","","","","","<p><img src= images/blank.png width =""600"" height = ""600"" style=""position:fixed;top:50%; left:50%; transform: translate(-50%, -50%); border:5px solid black"">","","","","",""
"","stimuli-presentation","100","519625","0.0-26.0-1.3","SS1627326904856","","4936.600000023842","trial","","40","500","5436.600000023842","images/stimuli/complex_03_A_b.gif","images/stimuli/complex_06_A_b.gif","forced_short","930","","","","","","5","complex_dissimilar","images/stimuli/complex_06_A_b.gif","",""
"","html-keyboard-response","101","520837","0.0-26.0-0.4","SS1627326904856","","null","","","null","","","","","","","","","","","<p><img src= images/blank.png width =""600"" height = ""600"" style=""position:fixed;top:50%; left:50%; transform: translate(-50%, -50%); border:5px solid black"">","","","","",""
"","stimuli-presentation","102","525866","0.0-26.0-1.4","SS1627326904856","","4519.399999976158","trial","","40","500","5019.399999976158","images/stimuli/complex_03_A_b.gif","images/stimuli/complex_06_A_b.gif","forced_short","930","","","","","","5","complex_dissimilar","images/stimuli/complex_03_A_b.gif","",""
"","html-keyboard-response","103","527127","0.0-26.0-0.5","SS1627326904856","","null","","","null","","","","","","","","","","","<p><img src= images/blank.png width =""600"" height = ""600"" style=""position:fixed;top:50%; left:50%; transform: translate(-50%, -50%); border:5px solid black"">","","","","",""
"","stimuli-presentation","104","534108","0.0-26.0-1.5","SS1627326904856","","6473.899999976158","trial","","40","500","6973.899999976158","images/stimuli/complex_03_A_b.gif","images/stimuli/complex_06_A_b.gif","forced_short","930","","","","","","5","complex_dissimilar","images/stimuli/complex_03_A_b.gif","",""
"","html-keyboard-response","105","535368","0.0-26.0-0.6","SS1627326904856","","null","","","null","","","","","","","","","","","<p><img src= images/blank.png width =""600"" height = ""600"" style=""position:fixed;top:50%; left:50%; transform: translate(-50%, -50%); border:5px solid black"">","","","","",""
"","stimuli-presentation","106","541960","0.0-26.0-1.6","SS1627326904856","","6085.5","trial","","40","500","6585.5","images/stimuli/complex_03_A_b.gif","images/stimuli/complex_06_A_b.gif","forced_short","930","","","","","","5","complex_dissimilar","images/stimuli/complex_06_A_b.gif","",""
"","survey-multi-choice","107","545548","0.0-27.0","SS1627326904856","","3581.8000000715256","memory_test","","","","","","","","","{""Q0"":""Yes""}","[0]","images/stimuli/complex_03_A_b.gif","5","","","","","",""
"","survey-multi-choice","108","549404","0.0-28.0","SS1627326904856","","3843","memory_test","","","","","","","","","{""Q0"":""No""}","[0]","images/stimuli/complex_12_A_a.gif","5","","","","","",""
"","html-keyboard-response","109","550235","0.0-29.0-0.0","SS1627326904856","","null","","","null","","","","","","","","","","","<p><img src= images/blank.png width =""600"" height = ""600"" style=""position:fixed;top:50%; left:50%; transform: translate(-50%, -50%); border:5px solid black"">","","","","",""
"","stimuli-presentation","110","553169","0.0-29.0-1.0","SS1627326904856","","1944.2000000476837","trial","","40","500","2444.2000000476837","images/stimuli/complex_07_A_b.gif","images/stimuli/complex_08_A_b.gif","forced_short","980","","","","","","6","complex_dissimilar","images/stimuli/complex_08_A_b.gif","",""
"","html-keyboard-response","111","554172","0.0-29.0-0.1","SS1627326904856","","null","","","null","","","","","","","","","","","<p><img src= images/blank.png width =""600"" height = ""600"" style=""position:fixed;top:50%; left:50%; transform: translate(-50%, -50%); border:5px solid black"">","","","","",""
"","stimuli-presentation","112","560480","0.0-29.0-1.1","SS1627326904856","","5801.5","trial","","40","500","6301.5","images/stimuli/complex_07_A_b.gif","images/stimuli/complex_08_A_b.gif","forced_short","980","","","","","","6","complex_dissimilar","images/stimuli/complex_08_A_b.gif","",""
"","html-keyboard-response","113","561784","0.0-29.0-0.2","SS1627326904856","","null","","","null","","","","","","","","","","","<p><img src= images/blank.png width =""600"" height = ""600"" style=""position:fixed;top:50%; left:50%; transform: translate(-50%, -50%); border:5px solid black"">","","","","",""
"","stimuli-presentation","114","565534","0.0-29.0-1.2","SS1627326904856","","3238.7999999523163","trial","","40","500","3738.7999999523163","images/stimuli/complex_07_A_b.gif","images/stimuli/complex_08_A_b.gif","forced_short","980","","","","","","6","complex_dissimilar","images/stimuli/complex_08_A_b.gif","",""
"","html-keyboard-response","115","566804","0.0-29.0-0.3","SS1627326904856","","null","","","null","","","","","","","","","","","<p><img src= images/blank.png width =""600"" height = ""600"" style=""position:fixed;top:50%; left:50%; transform: translate(-50%, -50%); border:5px solid black"">","","","","",""
"","stimuli-presentation","116","572691","0.0-29.0-1.3","SS1627326904856","","5377.600000023842","trial","","40","500","5877.600000023842","images/stimuli/complex_07_A_b.gif","images/stimuli/complex_08_A_b.gif","forced_short","980","","","","","","6","complex_dissimilar","images/stimuli/complex_08_A_b.gif","",""
"","html-keyboard-response","117","573524","0.0-29.0-0.4","SS1627326904856","","null","","","null","","","","","","","","","","","<p><img src= images/blank.png width =""600"" height = ""600"" style=""position:fixed;top:50%; left:50%; transform: translate(-50%, -50%); border:5px solid black"">","","","","",""
"","stimuli-presentation","118","576808","0.0-29.0-1.4","SS1627326904856","","2775.8000000715256","trial","","40","500","3275.8000000715256","images/stimuli/complex_07_A_b.gif","images/stimuli/complex_08_A_b.gif","forced_short","980","","","","","","6","complex_dissimilar","images/stimuli/complex_08_A_b.gif","",""
"","html-keyboard-response","119","577734","0.0-29.0-0.5","SS1627326904856","","null","","","null","","","","","","","","","","","<p><img src= images/blank.png width =""600"" height = ""600"" style=""position:fixed;top:50%; left:50%; transform: translate(-50%, -50%); border:5px solid black"">","","","","",""
"","stimuli-presentation","120","583716","0.0-29.0-1.5","SS1627326904856","","5467.600000023842","trial","","40","500","5967.600000023842","images/stimuli/complex_07_A_b.gif","images/stimuli/complex_08_A_b.gif","forced_short","980","","","","","","6","complex_dissimilar","images/stimuli/complex_08_A_b.gif","",""
"","html-keyboard-response","121","584708","0.0-29.0-0.6","SS1627326904856","","null","","","null","","","","","","","","","","","<p><img src= images/blank.png width =""600"" height = ""600"" style=""position:fixed;top:50%; left:50%; transform: translate(-50%, -50%); border:5px solid black"">","","","","",""
"","stimuli-presentation","122","586864","0.0-29.0-1.6","SS1627326904856","","1648.6000000238419","trial","","40","500","2148.600000023842","images/stimuli/complex_07_A_b.gif","images/stimuli/complex_08_A_b.gif","forced_short","980","","","","","","6","complex_dissimilar","images/stimuli/complex_08_A_b.gif","",""
"","html-keyboard-response","123","587703","0.0-29.0-0.7","SS1627326904856","","null","","","null","","","","","","","","","","","<p><img src= images/blank.png width =""600"" height = ""600"" style=""position:fixed;top:50%; left:50%; transform: translate(-50%, -50%); border:5px solid black"">","","","","",""
"","stimuli-presentation","124","591051","0.0-29.0-1.7","SS1627326904856","","2838.8000000715256","trial","","40","500","3338.8000000715256","images/stimuli/complex_07_A_b.gif","images/stimuli/complex_08_A_b.gif","forced_short","980","","","","","","6","complex_dissimilar","images/stimuli/complex_08_A_b.gif","",""
"","survey-multi-choice","125","594184","0.0-30.0","SS1627326904856","","3128.2999999523163","memory_test","","","","","","","","","{""Q0"":""No""}","[0]","images/stimuli/complex_17_A_b.gif","6","","","","","",""
"","survey-multi-choice","126","596130","0.0-31.0","SS1627326904856","","1941.8999999761581","memory_test","","","","","","","","","{""Q0"":""Yes""}","[0]","images/stimuli/complex_08_A_b.gif","6","","","","","",""
"","html-keyboard-response","127","597218","0.0-32.0-0.0","SS1627326904856","","null","","","null","","","","","","","","","","","<p><img src= images/blank.png width =""600"" height = ""600"" style=""position:fixed;top:50%; left:50%; transform: translate(-50%, -50%); border:5px solid black"">","","","","",""
"","stimuli-presentation","128","599337","0.0-32.0-1.0","SS1627326904856","","1693.6000000238419","trial","","40","500","2193.600000023842","images/stimuli/complex_04_A_b.gif","images/stimuli/complex_24_A_a.gif","forced_short","410","","","","","","7","complex_dissimilar","images/stimuli/complex_24_A_a.gif","",""
"","html-keyboard-response","129","600382","0.0-32.0-0.1","SS1627326904856","","null","","","null","","","","","","","","","","","<p><img src= images/blank.png width =""600"" height = ""600"" style=""position:fixed;top:50%; left:50%; transform: translate(-50%, -50%); border:5px solid black"">","","","","",""
"","stimuli-presentation","130","607055","0.0-32.0-1.1","SS1627326904856","","6160","trial","","40","500","6660","images/stimuli/complex_04_A_b.gif","images/stimuli/complex_24_A_a.gif","forced_short","410","","","","","","7","complex_dissimilar","images/stimuli/complex_24_A_a.gif","",""
"","html-keyboard-response","131","608276","0.0-32.0-0.2","SS1627326904856","","null","","","null","","","","","","","","","","","<p><img src= images/blank.png width =""600"" height = ""600"" style=""position:fixed;top:50%; left:50%; transform: translate(-50%, -50%); border:5px solid black"">","","","","",""
"","stimuli-presentation","132","616208","0.0-32.0-1.2","SS1627326904856","","7416.200000047684","trial","","40","500","7916.200000047684","images/stimuli/complex_04_A_b.gif","images/stimuli/complex_24_A_a.gif","forced_short","410","","","","","","7","complex_dissimilar","images/stimuli/complex_24_A_a.gif","",""
"","html-keyboard-response","133","617034","0.0-32.0-0.3","SS1627326904856","","null","","","null","","","","","","","","","","","<p><img src= images/blank.png width =""600"" height = ""600"" style=""position:fixed;top:50%; left:50%; transform: translate(-50%, -50%); border:5px solid black"">","","","","",""
"","stimuli-presentation","134","623676","0.0-32.0-1.3","SS1627326904856","","6134.5","trial","","40","500","6634.5","images/stimuli/complex_04_A_b.gif","images/stimuli/complex_24_A_a.gif","forced_short","410","","","","","","7","complex_dissimilar","images/stimuli/complex_24_A_a.gif","",""
"","html-keyboard-response","135","624498","0.0-32.0-0.4","SS1627326904856","","null","","","null","","","","","","","","","","","<p><img src= images/blank.png width =""600"" height = ""600"" style=""position:fixed;top:50%; left:50%; transform: translate(-50%, -50%); border:5px solid black"">","","","","",""
"","stimuli-presentation","136","629767","0.0-32.0-1.4","SS1627326904856","","4747.400000095367","trial","","40","500","5247.400000095367","images/stimuli/complex_04_A_b.gif","images/stimuli/complex_24_A_a.gif","forced_short","410","","","","","","7","complex_dissimilar","images/stimuli/complex_24_A_a.gif","",""
"","html-keyboard-response","137","631049","0.0-32.0-0.5","SS1627326904856","","null","","","null","","","","","","","","","","","<p><img src= images/blank.png width =""600"" height = ""600"" style=""position:fixed;top:50%; left:50%; transform: translate(-50%, -50%); border:5px solid black"">","","","","",""
"","stimuli-presentation","138","637622","0.0-32.0-1.5","SS1627326904856","","6056.200000047684","trial","","40","500","6556.200000047684","images/stimuli/complex_04_A_b.gif","images/stimuli/complex_24_A_a.gif","forced_short","410","","","","","","7","complex_dissimilar","images/stimuli/complex_04_A_b.gif","",""
"","survey-multi-choice","139","640816","0.0-33.0","SS1627326904856","","3190.600000023842","memory_test","","","","","","","","","{""Q0"":""Yes""}","[0]","images/stimuli/complex_04_A_b.gif","7","","","","","",""
"","survey-multi-choice","140","647659","0.0-34.0","SS1627326904856","","6838.100000023842","memory_test","","","","","","","","","{""Q0"":""No""}","[0]","images/stimuli/complex_02_A_b.gif","7","","","","","",""
"","instructions","141","654222","0.0-35.0","SS1627326904856","[{""page_index"":0,""viewing_time"":6556.5}]","6557.399999976158","instructions","","","","","","","","","","","","","","","","","",""
"","survey-likert","142","671584","0.0-36.0","SS1627326904856","","17350.5","similarity_question","","","","","","","","","{""Q0"":2}","[0]","","","","","","","images/stimuli/complex_24_A_a.gif","images/stimuli/complex_04_A_b.gif"
"","survey-likert","143","682645","0.0-37.0","SS1627326904856","","11049.100000023842","similarity_question","","","","","","","","","{""Q0"":4}","[0]","","","","","","","images/stimuli/complex_09_A_a.gif","images/stimuli/complex_14_A_a.gif"
"","survey-likert","144","688936","0.0-38.0","SS1627326904856","","6283.399999976158","similarity_question","","","","","","","","","{""Q0"":4}","[0]","","","","","","","images/stimuli/complex_07_A_b.gif","images/stimuli/complex_08_A_b.gif"
"","survey-likert","145","699368","0.0-39.0","SS1627326904856","","10428.5","similarity_question","","","","","","","","","{""Q0"":1}","[0]","","","","","","","images/stimuli/complex_03_A_b.gif","images/stimuli/complex_06_A_b.gif"
"","survey-likert","146","706899","0.0-40.0","SS1627326904856","","7522.899999976158","similarity_question","","","","","","","","","{""Q0"":4}","[0]","","","","","","","images/stimuli/complex_20_A_b.gif","images/stimuli/complex_21_A_b.gif"
"","survey-likert","147","717493","0.0-41.0","SS1627326904856","","10580.799999952316","similarity_question","","","","","","","","","{""Q0"":0}","[0]","","","","","","","images/stimuli/complex_19_A_b.gif","images/stimuli/complex_16_A_a.gif"
"","survey-likert","148","724930","0.0-42.0","SS1627326904856","","7429.5","similarity_question","","","","","","","","","{""Q0"":1}","[0]","","","","","","","images/stimuli/complex_22_A_a.gif","images/stimuli/complex_23_A_a.gif"
"","survey-likert","149","734496","0.0-43.0","SS1627326904856","","9559.699999928474","similarity_question","","","","","","","","","{""Q0"":3}","[0]","","","","","","","images/stimuli/complex_13_A_b.gif","images/stimuli/complex_10_A_b.gif"
"","instructions","150","740540","0.0-44.0","SS1627326904856","[{""page_index"":0,""viewing_time"":6033.700000047684}]","6035","instructions","","","","","","","","","","","","","","","","","",""
"","survey-likert","151","746801","0.0-45.0","SS1627326904856","","6255.199999928474","","","","","","","","","","{""Q0"":2}","[0]","","","images/stimuli/complex_21_A_b.gif","","","","",""
"","survey-likert","152","753331","0.0-46.0","SS1627326904856","","6524.799999952316","","","","","","","","","","{""Q0"":5}","[0]","","","images/stimuli/complex_07_A_b.gif","","","","",""
"","survey-likert","153","757660","0.0-47.0","SS1627326904856","","4322.100000023842","","","","","","","","","","{""Q0"":2}","[0]","","","images/stimuli/complex_10_A_b.gif","","","","",""
"","survey-likert","154","768356","0.0-48.0","SS1627326904856","","10683.299999952316","","","","","","","","","","{""Q0"":4}","[0]","","","images/stimuli/complex_14_A_a.gif","","","","",""
"","survey-likert","155","774695","0.0-49.0","SS1627326904856","","6324.800000071526","","","","","","","","","","{""Q0"":3}","[0]","","","images/stimuli/complex_24_A_a.gif","","","","",""
"","survey-likert","156","778657","0.0-50.0","SS1627326904856","","3946.7999999523163","","","","","","","","","","{""Q0"":1}","[0]","","","images/stimuli/complex_03_A_b.gif","","","","",""
"","survey-likert","157","782897","0.0-51.0","SS1627326904856","","4235.399999976158","","","","","","","","","","{""Q0"":3}","[0]","","","images/stimuli/complex_22_A_a.gif","","","","",""
"","survey-likert","158","790423","0.0-52.0","SS1627326904856","","7520.399999976158","","","","","","","","","","{""Q0"":6}","[0]","","","images/stimuli/complex_16_A_a.gif","","","","",""
"true","fullscreen","159","791444","0.0-53.0","SS1627326904856","","","","","","","","","","","","","","","","","","","","",""
"","instructions","160","794271","0.0-54.0","SS1627326904856","[{""page_index"":0,""viewing_time"":2821.600000023842}]","2822.2999999523163","instructions","","","","","","","","","","","","","","","","","",""
"","demog-age","161","797820","0.0-55.0","SS1627326904856","","3534.600000023842","","","","","","","","","","{""age"":""24""}","","","","","","","","",""
"","demog-ethnic-US","162","802973","0.0-56.0","SS1627326904856","","5145","","","","","","","","","","{""ethnicity"":[""White""]}","[0]","","","","","","","",""
"","demog-gender-and-education","163","810147","0.0-57.0","SS1627326904856","","7160.5","","","","","","","","","","{""gender"":""Female"",""education"":""Bachelor's Degree""}","[0,1]","","","","","","","",""
"","survey-text","164","821513","0.0-58.0","SS1627326904856","","11359.799999952316","feedback","","","","","","","","","{""Q0"":""No, all went smooth""}","","","","","","","","",""
"","instructions","165","823755","0.0-59.0","SS1627326904856","[{""page_index"":0,""viewing_time"":2232.3000000715256}]","2233.2000000476837","instructions","","","","","","","","","","","","","","","","","",""
