"success","trial_type","trial_index","time_elapsed","internal_node_id","subject","view_history","rt","stimulus_type","trial_stimulus","key_press","minimum_viewing_duration","trial_looking_time","block_deviant","block_background","exposure_type","forced_exposure_time","responses","question_order","memory_question_stimuli","memory_block_index","stimulus","block_number","block_type","stimulus_displayed","stimulus_left","stimulus_right"
"true","fullscreen","0","4047","0.0-0.0","SS1627326847885","","","","","","","","","","","","","","","","","","","","",""
"","instructions","1","20509","0.0-1.0","SS1627326847885","[{""page_index"":0,""viewing_time"":16457.40000000596}]","16459.09999999404","","","","","","","","","","","","","","","","","","",""
"","instructions","2","33675","0.0-2.0","SS1627326847885","[{""page_index"":0,""viewing_time"":7931.800000011921},{""page_index"":1,""viewing_time"":3231.699999988079}]","11163.90000000596","instructions","","","","","","","","","","","","","","","","","",""
"","stimuli-presentation","3","40756","0.0-3.0","SS1627326847885","","6577.600000023842","","","40","500","7077.600000023842","null","null","self_paced","0","","","","","","","","","",""
"","instructions","4","51189","0.0-4.0","SS1627326847885","[{""page_index"":0,""viewing_time"":10430.200000017881}]","10430.59999999404","instructions","","","","","","","","","","","","","","","","","",""
"","stimuli-presentation","5","54350","0.0-5.0","SS1627326847885","","2656.2999999821186","","","40","500","3156.2999999821186","null","null","forced_short","500","","","","","","","","","",""
"","stimuli-presentation","6","56269","0.0-6.0","SS1627326847885","","1414.7000000178814","","","40","500","1914.7000000178814","null","null","forced_short","500","","","","","","","","","",""
"","instructions","7","62062","0.0-7.0","SS1627326847885","[{""page_index"":0,""viewing_time"":5791.800000011921}]","5792.100000023842","instructions","","","","","","","","","","","","","","","","","",""
"","survey-multi-choice","8","66510","0.0-8.0","SS1627326847885","","4442.5","memory_test_practice","","","","","","","","","{""Q0"":""Yes""}","[0]","images/practice/instructions_example_spore2.gif","0","","","","","",""
"","survey-multi-choice","9","69328","0.0-9.0","SS1627326847885","","2814.800000011921","memory_test_practice","","","","","","","","","{""Q0"":""No""}","[0]","images/practice/instructions_example_spore0.gif","0","","","","","",""
"","instructions","10","77037","0.0-10.0","SS1627326847885","[{""page_index"":0,""viewing_time"":6339},{""page_index"":1,""viewing_time"":1366.5}]","7705.9000000059605","instructions","","","","","","","","","","","","","","","","","",""
"","html-keyboard-response","11","78046","0.0-11.0-0.0","SS1627326847885","","null","","","null","","","","","","","","","","","<p><img src= images/blank.png width =""600"" height = ""600"" style=""position:fixed;top:50%; left:50%; transform: translate(-50%, -50%); border:5px solid black"">","","","","",""
"","stimuli-presentation","12","81388","0.0-11.0-1.0","SS1627326847885","","3085.7999999821186","trial","","40","500","3585.7999999821186","images/stimuli/complex_10_A_b.gif","images/stimuli/complex_17_A_b.gif","forced_short","250","","","","","","0","complex_dissimilar","images/stimuli/complex_17_A_b.gif","",""
"","html-keyboard-response","13","82494","0.0-11.0-0.1","SS1627326847885","","null","","","null","","","","","","","","","","","<p><img src= images/blank.png width =""600"" height = ""600"" style=""position:fixed;top:50%; left:50%; transform: translate(-50%, -50%); border:5px solid black"">","","","","",""
"","stimuli-presentation","14","89622","0.0-11.0-1.1","SS1627326847885","","6623.199999988079","trial","","40","500","7123.199999988079","images/stimuli/complex_10_A_b.gif","images/stimuli/complex_17_A_b.gif","forced_short","250","","","","","","0","complex_dissimilar","images/stimuli/complex_17_A_b.gif","",""
"","html-keyboard-response","15","90734","0.0-11.0-0.2","SS1627326847885","","null","","","null","","","","","","","","","","","<p><img src= images/blank.png width =""600"" height = ""600"" style=""position:fixed;top:50%; left:50%; transform: translate(-50%, -50%); border:5px solid black"">","","","","",""
"","stimuli-presentation","16","96472","0.0-11.0-1.2","SS1627326847885","","5230.5999999940395","trial","","40","500","5730.5999999940395","images/stimuli/complex_10_A_b.gif","images/stimuli/complex_17_A_b.gif","forced_short","250","","","","","","0","complex_dissimilar","images/stimuli/complex_17_A_b.gif","",""
"","html-keyboard-response","17","97524","0.0-11.0-0.3","SS1627326847885","","null","","","null","","","","","","","","","","","<p><img src= images/blank.png width =""600"" height = ""600"" style=""position:fixed;top:50%; left:50%; transform: translate(-50%, -50%); border:5px solid black"">","","","","",""
"","stimuli-presentation","18","102263","0.0-11.0-1.3","SS1627326847885","","4232.5","trial","","40","500","4732.5","images/stimuli/complex_10_A_b.gif","images/stimuli/complex_17_A_b.gif","forced_short","250","","","","","","0","complex_dissimilar","images/stimuli/complex_17_A_b.gif","",""
"","html-keyboard-response","19","103097","0.0-11.0-0.4","SS1627326847885","","null","","","null","","","","","","","","","","","<p><img src= images/blank.png width =""600"" height = ""600"" style=""position:fixed;top:50%; left:50%; transform: translate(-50%, -50%); border:5px solid black"">","","","","",""
"","stimuli-presentation","20","107568","0.0-11.0-1.4","SS1627326847885","","3958.800000011921","trial","","40","500","4458.800000011921","images/stimuli/complex_10_A_b.gif","images/stimuli/complex_17_A_b.gif","forced_short","250","","","","","","0","complex_dissimilar","images/stimuli/complex_17_A_b.gif","",""
"","html-keyboard-response","21","108830","0.0-11.0-0.5","SS1627326847885","","null","","","null","","","","","","","","","","","<p><img src= images/blank.png width =""600"" height = ""600"" style=""position:fixed;top:50%; left:50%; transform: translate(-50%, -50%); border:5px solid black"">","","","","",""
"","stimuli-presentation","22","112739","0.0-11.0-1.5","SS1627326847885","","3401.899999976158","trial","","40","500","3901.899999976158","images/stimuli/complex_10_A_b.gif","images/stimuli/complex_17_A_b.gif","forced_short","250","","","","","","0","complex_dissimilar","images/stimuli/complex_17_A_b.gif","",""
"","html-keyboard-response","23","113838","0.0-11.0-0.6","SS1627326847885","","null","","","null","","","","","","","","","","","<p><img src= images/blank.png width =""600"" height = ""600"" style=""position:fixed;top:50%; left:50%; transform: translate(-50%, -50%); border:5px solid black"">","","","","",""
"","stimuli-presentation","24","116514","0.0-11.0-1.6","SS1627326847885","","2168.4000000059605","trial","","40","500","2668.4000000059605","images/stimuli/complex_10_A_b.gif","images/stimuli/complex_17_A_b.gif","forced_short","250","","","","","","0","complex_dissimilar","images/stimuli/complex_17_A_b.gif","",""
"","html-keyboard-response","25","117406","0.0-11.0-0.7","SS1627326847885","","null","","","null","","","","","","","","","","","<p><img src= images/blank.png width =""600"" height = ""600"" style=""position:fixed;top:50%; left:50%; transform: translate(-50%, -50%); border:5px solid black"">","","","","",""
"","stimuli-presentation","26","120581","0.0-11.0-1.7","SS1627326847885","","2668.800000011921","trial","","40","500","3168.800000011921","images/stimuli/complex_10_A_b.gif","images/stimuli/complex_17_A_b.gif","forced_short","250","","","","","","0","complex_dissimilar","images/stimuli/complex_17_A_b.gif","",""
"","survey-multi-choice","27","123667","0.0-12.0","SS1627326847885","","3083.699999988079","memory_test","","","","","","","","","{""Q0"":""No""}","[0]","images/stimuli/complex_14_A_a.gif","0","","","","","",""
"","survey-multi-choice","28","126599","0.0-13.0","SS1627326847885","","2928.2999999821186","memory_test","","","","","","","","","{""Q0"":""Yes""}","[0]","images/stimuli/complex_17_A_b.gif","0","","","","","",""
"","html-keyboard-response","29","127502","0.0-14.0-0.0","SS1627326847885","","null","","","null","","","","","","","","","","","<p><img src= images/blank.png width =""600"" height = ""600"" style=""position:fixed;top:50%; left:50%; transform: translate(-50%, -50%); border:5px solid black"">","","","","",""
"","stimuli-presentation","30","129990","0.0-14.0-1.0","SS1627326847885","","2263","trial","","40","500","2763","images/stimuli/complex_15_A_b.gif","images/stimuli/complex_13_A_b.gif","forced_short","220","","","","","","1","complex_dissimilar","images/stimuli/complex_13_A_b.gif","",""
"","html-keyboard-response","31","131123","0.0-14.0-0.1","SS1627326847885","","null","","","null","","","","","","","","","","","<p><img src= images/blank.png width =""600"" height = ""600"" style=""position:fixed;top:50%; left:50%; transform: translate(-50%, -50%); border:5px solid black"">","","","","",""
"","stimuli-presentation","32","137614","0.0-14.0-1.1","SS1627326847885","","5984.800000011921","trial","","40","500","6484.800000011921","images/stimuli/complex_15_A_b.gif","images/stimuli/complex_13_A_b.gif","forced_short","220","","","","","","1","complex_dissimilar","images/stimuli/complex_13_A_b.gif","",""
"","html-keyboard-response","33","138537","0.0-14.0-0.2","SS1627326847885","","null","","","null","","","","","","","","","","","<p><img src= images/blank.png width =""600"" height = ""600"" style=""position:fixed;top:50%; left:50%; transform: translate(-50%, -50%); border:5px solid black"">","","","","",""
"","stimuli-presentation","34","141746","0.0-14.0-1.2","SS1627326847885","","2702.7000000178814","trial","","40","500","3202.7000000178814","images/stimuli/complex_15_A_b.gif","images/stimuli/complex_13_A_b.gif","forced_short","220","","","","","","1","complex_dissimilar","images/stimuli/complex_13_A_b.gif","",""
"","html-keyboard-response","35","142702","0.0-14.0-0.3","SS1627326847885","","null","","","null","","","","","","","","","","","<p><img src= images/blank.png width =""600"" height = ""600"" style=""position:fixed;top:50%; left:50%; transform: translate(-50%, -50%); border:5px solid black"">","","","","",""
"","stimuli-presentation","36","145739","0.0-14.0-1.3","SS1627326847885","","2529.800000011921","trial","","40","500","3029.800000011921","images/stimuli/complex_15_A_b.gif","images/stimuli/complex_13_A_b.gif","forced_short","220","","","","","","1","complex_dissimilar","images/stimuli/complex_13_A_b.gif","",""
"","html-keyboard-response","37","147010","0.0-14.0-0.4","SS1627326847885","","null","","","null","","","","","","","","","","","<p><img src= images/blank.png width =""600"" height = ""600"" style=""position:fixed;top:50%; left:50%; transform: translate(-50%, -50%); border:5px solid black"">","","","","",""
"","stimuli-presentation","38","151162","0.0-14.0-1.4","SS1627326847885","","3648.300000011921","trial","","40","500","4148.300000011921","images/stimuli/complex_15_A_b.gif","images/stimuli/complex_13_A_b.gif","forced_short","220","","","","","","1","complex_dissimilar","images/stimuli/complex_13_A_b.gif","",""
"","html-keyboard-response","39","152142","0.0-14.0-0.5","SS1627326847885","","null","","","null","","","","","","","","","","","<p><img src= images/blank.png width =""600"" height = ""600"" style=""position:fixed;top:50%; left:50%; transform: translate(-50%, -50%); border:5px solid black"">","","","","",""
"","stimuli-presentation","40","154137","0.0-14.0-1.5","SS1627326847885","","1488.4000000059605","trial","","40","500","1988.4000000059605","images/stimuli/complex_15_A_b.gif","images/stimuli/complex_13_A_b.gif","forced_short","220","","","","","","1","complex_dissimilar","images/stimuli/complex_13_A_b.gif","",""
"","survey-multi-choice","41","157117","0.0-15.0","SS1627326847885","","2976.2999999821186","memory_test","","","","","","","","","{""Q0"":""Yes""}","[0]","images/stimuli/complex_13_A_b.gif","1","","","","","",""
"","survey-multi-choice","42","159046","0.0-16.0","SS1627326847885","","1924.2000000178814","memory_test","","","","","","","","","{""Q0"":""No""}","[0]","images/stimuli/complex_01_A_a.gif","1","","","","","",""
"","html-keyboard-response","43","160200","0.0-17.0-0.0","SS1627326847885","","null","","","null","","","","","","","","","","","<p><img src= images/blank.png width =""600"" height = ""600"" style=""position:fixed;top:50%; left:50%; transform: translate(-50%, -50%); border:5px solid black"">","","","","",""
"","stimuli-presentation","44","163832","0.0-17.0-1.0","SS1627326847885","","3225.9000000059605","trial","","40","500","3725.9000000059605","images/stimuli/complex_16_A_a.gif","images/stimuli/complex_07_A_a.gif","forced_short","400","","","","","","2","complex_dissimilar","images/stimuli/complex_07_A_a.gif","",""
"","html-keyboard-response","45","165091","0.0-17.0-0.1","SS1627326847885","","null","","","null","","","","","","","","","","","<p><img src= images/blank.png width =""600"" height = ""600"" style=""position:fixed;top:50%; left:50%; transform: translate(-50%, -50%); border:5px solid black"">","","","","",""
"","stimuli-presentation","46","171097","0.0-17.0-1.1","SS1627326847885","","5499.399999976158","trial","","40","500","5999.399999976158","images/stimuli/complex_16_A_a.gif","images/stimuli/complex_07_A_a.gif","forced_short","400","","","","","","2","complex_dissimilar","images/stimuli/complex_07_A_a.gif","",""
"","html-keyboard-response","47","171918","0.0-17.0-0.2","SS1627326847885","","null","","","null","","","","","","","","","","","<p><img src= images/blank.png width =""600"" height = ""600"" style=""position:fixed;top:50%; left:50%; transform: translate(-50%, -50%); border:5px solid black"">","","","","",""
"","stimuli-presentation","48","175189","0.0-17.0-1.2","SS1627326847885","","2764.4000000059605","trial","","40","500","3264.4000000059605","images/stimuli/complex_16_A_a.gif","images/stimuli/complex_07_A_a.gif","forced_short","400","","","","","","2","complex_dissimilar","images/stimuli/complex_07_A_a.gif","",""
"","html-keyboard-response","49","176200","0.0-17.0-0.3","SS1627326847885","","null","","","null","","","","","","","","","","","<p><img src= images/blank.png width =""600"" height = ""600"" style=""position:fixed;top:50%; left:50%; transform: translate(-50%, -50%); border:5px solid black"">","","","","",""
"","stimuli-presentation","50","178132","0.0-17.0-1.3","SS1627326847885","","1424.5999999940395","trial","","40","500","1924.5999999940395","images/stimuli/complex_16_A_a.gif","images/stimuli/complex_07_A_a.gif","forced_short","400","","","","","","2","complex_dissimilar","images/stimuli/complex_07_A_a.gif","",""
"","html-keyboard-response","51","179033","0.0-17.0-0.4","SS1627326847885","","null","","","null","","","","","","","","","","","<p><img src= images/blank.png width =""600"" height = ""600"" style=""position:fixed;top:50%; left:50%; transform: translate(-50%, -50%); border:5px solid black"">","","","","",""
"","stimuli-presentation","52","181487","0.0-17.0-1.4","SS1627326847885","","1948.0999999940395","trial","","40","500","2448.0999999940395","images/stimuli/complex_16_A_a.gif","images/stimuli/complex_07_A_a.gif","forced_short","400","","","","","","2","complex_dissimilar","images/stimuli/complex_07_A_a.gif","",""
"","html-keyboard-response","53","182526","0.0-17.0-0.5","SS1627326847885","","null","","","null","","","","","","","","","","","<p><img src= images/blank.png width =""600"" height = ""600"" style=""position:fixed;top:50%; left:50%; transform: translate(-50%, -50%); border:5px solid black"">","","","","",""
"","stimuli-presentation","54","188669","0.0-17.0-1.5","SS1627326847885","","5636.699999988079","trial","","40","500","6136.699999988079","images/stimuli/complex_16_A_a.gif","images/stimuli/complex_07_A_a.gif","forced_short","400","","","","","","2","complex_dissimilar","images/stimuli/complex_16_A_a.gif","",""
"","survey-multi-choice","55","191342","0.0-18.0","SS1627326847885","","2669.5","memory_test","","","","","","","","","{""Q0"":""No""}","[0]","images/stimuli/complex_18_A_b.gif","2","","","","","",""
"","survey-multi-choice","56","195701","0.0-19.0","SS1627326847885","","4354.199999988079","memory_test","","","","","","","","","{""Q0"":""Yes""}","[0]","images/stimuli/complex_07_A_a.gif","2","","","","","",""
"","html-keyboard-response","57","196782","0.0-20.0-0.0","SS1627326847885","","null","","","null","","","","","","","","","","","<p><img src= images/blank.png width =""600"" height = ""600"" style=""position:fixed;top:50%; left:50%; transform: translate(-50%, -50%); border:5px solid black"">","","","","",""
"","stimuli-presentation","58","199463","0.0-20.0-1.0","SS1627326847885","","2563.5","trial","","40","500","3063.5","images/stimuli/complex_05_A_a.gif","images/stimuli/complex_09_A_a.gif","forced_short","110","","","","","","3","complex_dissimilar","images/stimuli/complex_09_A_a.gif","",""
"","html-keyboard-response","59","200312","0.0-20.0-0.1","SS1627326847885","","null","","","null","","","","","","","","","","","<p><img src= images/blank.png width =""600"" height = ""600"" style=""position:fixed;top:50%; left:50%; transform: translate(-50%, -50%); border:5px solid black"">","","","","",""
"","stimuli-presentation","60","204682","0.0-20.0-1.1","SS1627326847885","","3865.899999976158","trial","","40","500","4365.899999976158","images/stimuli/complex_05_A_a.gif","images/stimuli/complex_09_A_a.gif","forced_short","110","","","","","","3","complex_dissimilar","images/stimuli/complex_09_A_a.gif","",""
"","html-keyboard-response","61","205699","0.0-20.0-0.2","SS1627326847885","","null","","","null","","","","","","","","","","","<p><img src= images/blank.png width =""600"" height = ""600"" style=""position:fixed;top:50%; left:50%; transform: translate(-50%, -50%); border:5px solid black"">","","","","",""
"","stimuli-presentation","62","207546","0.0-20.0-1.2","SS1627326847885","","1340.5","trial","","40","500","1840.5","images/stimuli/complex_05_A_a.gif","images/stimuli/complex_09_A_a.gif","forced_short","110","","","","","","3","complex_dissimilar","images/stimuli/complex_09_A_a.gif","",""
"","html-keyboard-response","63","208776","0.0-20.0-0.3","SS1627326847885","","null","","","null","","","","","","","","","","","<p><img src= images/blank.png width =""600"" height = ""600"" style=""position:fixed;top:50%; left:50%; transform: translate(-50%, -50%); border:5px solid black"">","","","","",""
"","stimuli-presentation","64","215041","0.0-20.0-1.3","SS1627326847885","","5758.9000000059605","trial","","40","500","6258.9000000059605","images/stimuli/complex_05_A_a.gif","images/stimuli/complex_09_A_a.gif","forced_short","110","","","","","","3","complex_dissimilar","images/stimuli/complex_05_A_a.gif","",""
"","html-keyboard-response","65","216136","0.0-20.0-0.4","SS1627326847885","","null","","","null","","","","","","","","","","","<p><img src= images/blank.png width =""600"" height = ""600"" style=""position:fixed;top:50%; left:50%; transform: translate(-50%, -50%); border:5px solid black"">","","","","",""
"","stimuli-presentation","66","218784","0.0-20.0-1.4","SS1627326847885","","2140.9000000059605","trial","","40","500","2640.9000000059605","images/stimuli/complex_05_A_a.gif","images/stimuli/complex_09_A_a.gif","forced_short","110","","","","","","3","complex_dissimilar","images/stimuli/complex_09_A_a.gif","",""
"","html-keyboard-response","67","219720","0.0-20.0-0.5","SS1627326847885","","null","","","null","","","","","","","","","","","<p><img src= images/blank.png width =""600"" height = ""600"" style=""position:fixed;top:50%; left:50%; transform: translate(-50%, -50%); border:5px solid black"">","","","","",""
"","stimuli-presentation","68","224943","0.0-20.0-1.5","SS1627326847885","","4713","trial","","40","500","5213","images/stimuli/complex_05_A_a.gif","images/stimuli/complex_09_A_a.gif","forced_short","110","","","","","","3","complex_dissimilar","images/stimuli/complex_09_A_a.gif","",""
"","html-keyboard-response","69","225827","0.0-20.0-0.6","SS1627326847885","","null","","","null","","","","","","","","","","","<p><img src= images/blank.png width =""600"" height = ""600"" style=""position:fixed;top:50%; left:50%; transform: translate(-50%, -50%); border:5px solid black"">","","","","",""
"","stimuli-presentation","70","228771","0.0-20.0-1.6","SS1627326847885","","2435.199999988079","trial","","40","500","2935.199999988079","images/stimuli/complex_05_A_a.gif","images/stimuli/complex_09_A_a.gif","forced_short","110","","","","","","3","complex_dissimilar","images/stimuli/complex_09_A_a.gif","",""
"","html-keyboard-response","71","229646","0.0-20.0-0.7","SS1627326847885","","null","","","null","","","","","","","","","","","<p><img src= images/blank.png width =""600"" height = ""600"" style=""position:fixed;top:50%; left:50%; transform: translate(-50%, -50%); border:5px solid black"">","","","","",""
"","stimuli-presentation","72","231304","0.0-20.0-1.7","SS1627326847885","","1152.5","trial","","40","500","1652.5","images/stimuli/complex_05_A_a.gif","images/stimuli/complex_09_A_a.gif","forced_short","110","","","","","","3","complex_dissimilar","images/stimuli/complex_09_A_a.gif","",""
"","survey-multi-choice","73","235794","0.0-21.0","SS1627326847885","","4486","memory_test","","","","","","","","","{""Q0"":""No""}","[0]","images/stimuli/complex_08_A_a.gif","3","","","","","",""
"","survey-multi-choice","74","237842","0.0-22.0","SS1627326847885","","2043.699999988079","memory_test","","","","","","","","","{""Q0"":""Yes""}","[0]","images/stimuli/complex_05_A_a.gif","3","","","","","",""
"","html-keyboard-response","75","238792","0.0-23.0-0.0","SS1627326847885","","null","","","null","","","","","","","","","","","<p><img src= images/blank.png width =""600"" height = ""600"" style=""position:fixed;top:50%; left:50%; transform: translate(-50%, -50%); border:5px solid black"">","","","","",""
"","stimuli-presentation","76","241296","0.0-23.0-1.0","SS1627326847885","","2375.800000011921","trial","","40","500","2875.800000011921","images/stimuli/complex_03_A_a.gif","images/stimuli/complex_19_A_b.gif","forced_short","120","","","","","","4","complex_dissimilar","images/stimuli/complex_19_A_b.gif","",""
"","html-keyboard-response","77","242478","0.0-23.0-0.1","SS1627326847885","","null","","","null","","","","","","","","","","","<p><img src= images/blank.png width =""600"" height = ""600"" style=""position:fixed;top:50%; left:50%; transform: translate(-50%, -50%); border:5px solid black"">","","","","",""
"","stimuli-presentation","78","245906","0.0-23.0-1.1","SS1627326847885","","2921.7999999821186","trial","","40","500","3421.7999999821186","images/stimuli/complex_03_A_a.gif","images/stimuli/complex_19_A_b.gif","forced_short","120","","","","","","4","complex_dissimilar","images/stimuli/complex_19_A_b.gif","",""
"","html-keyboard-response","79","247011","0.0-23.0-0.2","SS1627326847885","","null","","","null","","","","","","","","","","","<p><img src= images/blank.png width =""600"" height = ""600"" style=""position:fixed;top:50%; left:50%; transform: translate(-50%, -50%); border:5px solid black"">","","","","",""
"","stimuli-presentation","80","250646","0.0-23.0-1.2","SS1627326847885","","3129.7999999821186","trial","","40","500","3629.7999999821186","images/stimuli/complex_03_A_a.gif","images/stimuli/complex_19_A_b.gif","forced_short","120","","","","","","4","complex_dissimilar","images/stimuli/complex_19_A_b.gif","",""
"","html-keyboard-response","81","251804","0.0-23.0-0.3","SS1627326847885","","null","","","null","","","","","","","","","","","<p><img src= images/blank.png width =""600"" height = ""600"" style=""position:fixed;top:50%; left:50%; transform: translate(-50%, -50%); border:5px solid black"">","","","","",""
"","stimuli-presentation","82","255254","0.0-23.0-1.3","SS1627326847885","","2941.300000011921","trial","","40","500","3441.300000011921","images/stimuli/complex_03_A_a.gif","images/stimuli/complex_19_A_b.gif","forced_short","120","","","","","","4","complex_dissimilar","images/stimuli/complex_19_A_b.gif","",""
"","html-keyboard-response","83","256541","0.0-23.0-0.4","SS1627326847885","","null","","","null","","","","","","","","","","","<p><img src= images/blank.png width =""600"" height = ""600"" style=""position:fixed;top:50%; left:50%; transform: translate(-50%, -50%); border:5px solid black"">","","","","",""
"","stimuli-presentation","84","259325","0.0-23.0-1.4","SS1627326847885","","2278.399999976158","trial","","40","500","2778.399999976158","images/stimuli/complex_03_A_a.gif","images/stimuli/complex_19_A_b.gif","forced_short","120","","","","","","4","complex_dissimilar","images/stimuli/complex_19_A_b.gif","",""
"","html-keyboard-response","85","260136","0.0-23.0-0.5","SS1627326847885","","null","","","null","","","","","","","","","","","<p><img src= images/blank.png width =""600"" height = ""600"" style=""position:fixed;top:50%; left:50%; transform: translate(-50%, -50%); border:5px solid black"">","","","","",""
"","stimuli-presentation","86","262678","0.0-23.0-1.5","SS1627326847885","","2035.800000011921","trial","","40","500","2535.800000011921","images/stimuli/complex_03_A_a.gif","images/stimuli/complex_19_A_b.gif","forced_short","120","","","","","","4","complex_dissimilar","images/stimuli/complex_19_A_b.gif","",""
"","html-keyboard-response","87","263896","0.0-23.0-0.6","SS1627326847885","","null","","","null","","","","","","","","","","","<p><img src= images/blank.png width =""600"" height = ""600"" style=""position:fixed;top:50%; left:50%; transform: translate(-50%, -50%); border:5px solid black"">","","","","",""
"","stimuli-presentation","88","267338","0.0-23.0-1.6","SS1627326847885","","2934.9000000059605","trial","","40","500","3434.9000000059605","images/stimuli/complex_03_A_a.gif","images/stimuli/complex_19_A_b.gif","forced_short","120","","","","","","4","complex_dissimilar","images/stimuli/complex_19_A_b.gif","",""
"","survey-multi-choice","89","269651","0.0-24.0","SS1627326847885","","2309.5","memory_test","","","","","","","","","{""Q0"":""Yes""}","[0]","images/stimuli/complex_19_A_b.gif","4","","","","","",""
"","survey-multi-choice","90","273407","0.0-25.0","SS1627326847885","","3751.5","memory_test","","","","","","","","","{""Q0"":""No""}","[0]","images/stimuli/complex_23_A_b.gif","4","","","","","",""
"","html-keyboard-response","91","274696","0.0-26.0-0.0","SS1627326847885","","null","","","null","","","","","","","","","","","<p><img src= images/blank.png width =""600"" height = ""600"" style=""position:fixed;top:50%; left:50%; transform: translate(-50%, -50%); border:5px solid black"">","","","","",""
"","stimuli-presentation","92","276971","0.0-26.0-1.0","SS1627326847885","","1358.4000000059605","trial","","40","500","1858.4000000059605","images/stimuli/complex_11_A_a.gif","images/stimuli/complex_22_A_a.gif","forced_short","910","","","","","","5","complex_dissimilar","images/stimuli/complex_22_A_a.gif","",""
"","html-keyboard-response","93","278007","0.0-26.0-0.1","SS1627326847885","","null","","","null","","","","","","","","","","","<p><img src= images/blank.png width =""600"" height = ""600"" style=""position:fixed;top:50%; left:50%; transform: translate(-50%, -50%); border:5px solid black"">","","","","",""
"","stimuli-presentation","94","284171","0.0-26.0-1.1","SS1627326847885","","5658.5999999940395","trial","","40","500","6158.5999999940395","images/stimuli/complex_11_A_a.gif","images/stimuli/complex_22_A_a.gif","forced_short","910","","","","","","5","complex_dissimilar","images/stimuli/complex_22_A_a.gif","",""
"","html-keyboard-response","95","285026","0.0-26.0-0.2","SS1627326847885","","null","","","null","","","","","","","","","","","<p><img src= images/blank.png width =""600"" height = ""600"" style=""position:fixed;top:50%; left:50%; transform: translate(-50%, -50%); border:5px solid black"">","","","","",""
"","stimuli-presentation","96","289741","0.0-26.0-1.2","SS1627326847885","","4207.699999988079","trial","","40","500","4707.699999988079","images/stimuli/complex_11_A_a.gif","images/stimuli/complex_22_A_a.gif","forced_short","910","","","","","","5","complex_dissimilar","images/stimuli/complex_22_A_a.gif","",""
"","html-keyboard-response","97","290829","0.0-26.0-0.3","SS1627326847885","","null","","","null","","","","","","","","","","","<p><img src= images/blank.png width =""600"" height = ""600"" style=""position:fixed;top:50%; left:50%; transform: translate(-50%, -50%); border:5px solid black"">","","","","",""
"","stimuli-presentation","98","293708","0.0-26.0-1.3","SS1627326847885","","2372.0999999940395","trial","","40","500","2872.0999999940395","images/stimuli/complex_11_A_a.gif","images/stimuli/complex_22_A_a.gif","forced_short","910","","","","","","5","complex_dissimilar","images/stimuli/complex_22_A_a.gif","",""
"","html-keyboard-response","99","294619","0.0-26.0-0.4","SS1627326847885","","null","","","null","","","","","","","","","","","<p><img src= images/blank.png width =""600"" height = ""600"" style=""position:fixed;top:50%; left:50%; transform: translate(-50%, -50%); border:5px solid black"">","","","","",""
"","stimuli-presentation","100","298942","0.0-26.0-1.4","SS1627326847885","","3816.399999976158","trial","","40","500","4316.399999976158","images/stimuli/complex_11_A_a.gif","images/stimuli/complex_22_A_a.gif","forced_short","910","","","","","","5","complex_dissimilar","images/stimuli/complex_22_A_a.gif","",""
"","html-keyboard-response","101","299773","0.0-26.0-0.5","SS1627326847885","","null","","","null","","","","","","","","","","","<p><img src= images/blank.png width =""600"" height = ""600"" style=""position:fixed;top:50%; left:50%; transform: translate(-50%, -50%); border:5px solid black"">","","","","",""
"","stimuli-presentation","102","302326","0.0-26.0-1.5","SS1627326847885","","2042.9000000059605","trial","","40","500","2542.9000000059605","images/stimuli/complex_11_A_a.gif","images/stimuli/complex_22_A_a.gif","forced_short","910","","","","","","5","complex_dissimilar","images/stimuli/complex_22_A_a.gif","",""
"","survey-multi-choice","103","306844","0.0-27.0","SS1627326847885","","4513.0999999940395","memory_test","","","","","","","","","{""Q0"":""No""}","[0]","images/stimuli/complex_12_A_b.gif","5","","","","","",""
"","survey-multi-choice","104","308557","0.0-28.0","SS1627326847885","","1709.1000000238419","memory_test","","","","","","","","","{""Q0"":""Yes""}","[0]","images/stimuli/complex_22_A_a.gif","5","","","","","",""
"","html-keyboard-response","105","309490","0.0-29.0-0.0","SS1627326847885","","null","","","null","","","","","","","","","","","<p><img src= images/blank.png width =""600"" height = ""600"" style=""position:fixed;top:50%; left:50%; transform: translate(-50%, -50%); border:5px solid black"">","","","","",""
"","stimuli-presentation","106","311354","0.0-29.0-1.0","SS1627326847885","","1709","trial","","40","500","2209","images/stimuli/complex_24_A_a.gif","images/stimuli/complex_20_A_a.gif","forced_short","150","","","","","","6","complex_dissimilar","images/stimuli/complex_20_A_a.gif","",""
"","html-keyboard-response","107","312344","0.0-29.0-0.1","SS1627326847885","","null","","","null","","","","","","","","","","","<p><img src= images/blank.png width =""600"" height = ""600"" style=""position:fixed;top:50%; left:50%; transform: translate(-50%, -50%); border:5px solid black"">","","","","",""
"","stimuli-presentation","108","320132","0.0-29.0-1.1","SS1627326847885","","7281.9000000059605","trial","","40","500","7781.9000000059605","images/stimuli/complex_24_A_a.gif","images/stimuli/complex_20_A_a.gif","forced_short","150","","","","","","6","complex_dissimilar","images/stimuli/complex_20_A_a.gif","",""
"","html-keyboard-response","109","321123","0.0-29.0-0.2","SS1627326847885","","null","","","null","","","","","","","","","","","<p><img src= images/blank.png width =""600"" height = ""600"" style=""position:fixed;top:50%; left:50%; transform: translate(-50%, -50%); border:5px solid black"">","","","","",""
"","stimuli-presentation","110","323725","0.0-29.0-1.2","SS1627326847885","","2095.0999999940395","trial","","40","500","2595.0999999940395","images/stimuli/complex_24_A_a.gif","images/stimuli/complex_20_A_a.gif","forced_short","150","","","","","","6","complex_dissimilar","images/stimuli/complex_20_A_a.gif","",""
"","html-keyboard-response","111","324883","0.0-29.0-0.3","SS1627326847885","","null","","","null","","","","","","","","","","","<p><img src= images/blank.png width =""600"" height = ""600"" style=""position:fixed;top:50%; left:50%; transform: translate(-50%, -50%); border:5px solid black"">","","","","",""
"","stimuli-presentation","112","329749","0.0-29.0-1.3","SS1627326847885","","4358.799999982119","trial","","40","500","4858.799999982119","images/stimuli/complex_24_A_a.gif","images/stimuli/complex_20_A_a.gif","forced_short","150","","","","","","6","complex_dissimilar","images/stimuli/complex_20_A_a.gif","",""
"","html-keyboard-response","113","330739","0.0-29.0-0.4","SS1627326847885","","null","","","null","","","","","","","","","","","<p><img src= images/blank.png width =""600"" height = ""600"" style=""position:fixed;top:50%; left:50%; transform: translate(-50%, -50%); border:5px solid black"">","","","","",""
"","stimuli-presentation","114","337583","0.0-29.0-1.4","SS1627326847885","","6338.100000023842","trial","","40","500","6838.100000023842","images/stimuli/complex_24_A_a.gif","images/stimuli/complex_20_A_a.gif","forced_short","150","","","","","","6","complex_dissimilar","images/stimuli/complex_24_A_a.gif","",""
"","html-keyboard-response","115","338536","0.0-29.0-0.5","SS1627326847885","","null","","","null","","","","","","","","","","","<p><img src= images/blank.png width =""600"" height = ""600"" style=""position:fixed;top:50%; left:50%; transform: translate(-50%, -50%); border:5px solid black"">","","","","",""
"","stimuli-presentation","116","342626","0.0-29.0-1.5","SS1627326847885","","3584","trial","","40","500","4084","images/stimuli/complex_24_A_a.gif","images/stimuli/complex_20_A_a.gif","forced_short","150","","","","","","6","complex_dissimilar","images/stimuli/complex_20_A_a.gif","",""
"","html-keyboard-response","117","343810","0.0-29.0-0.6","SS1627326847885","","null","","","null","","","","","","","","","","","<p><img src= images/blank.png width =""600"" height = ""600"" style=""position:fixed;top:50%; left:50%; transform: translate(-50%, -50%); border:5px solid black"">","","","","",""
"","stimuli-presentation","118","346566","0.0-29.0-1.6","SS1627326847885","","2246.5","trial","","40","500","2746.5","images/stimuli/complex_24_A_a.gif","images/stimuli/complex_20_A_a.gif","forced_short","150","","","","","","6","complex_dissimilar","images/stimuli/complex_20_A_a.gif","",""
"","survey-multi-choice","119","350377","0.0-30.0","SS1627326847885","","3807","memory_test","","","","","","","","","{""Q0"":""No""}","[0]","images/stimuli/complex_21_A_a.gif","6","","","","","",""
"","survey-multi-choice","120","355443","0.0-31.0","SS1627326847885","","5060.299999982119","memory_test","","","","","","","","","{""Q0"":""Yes""}","[0]","images/stimuli/complex_24_A_a.gif","6","","","","","",""
"","html-keyboard-response","121","356275","0.0-32.0-0.0","SS1627326847885","","null","","","null","","","","","","","","","","","<p><img src= images/blank.png width =""600"" height = ""600"" style=""position:fixed;top:50%; left:50%; transform: translate(-50%, -50%); border:5px solid black"">","","","","",""
"","stimuli-presentation","122","359463","0.0-32.0-1.0","SS1627326847885","","2709","trial","","40","500","3209","images/stimuli/complex_02_A_b.gif","images/stimuli/complex_04_A_a.gif","forced_short","470","","","","","","7","complex_dissimilar","images/stimuli/complex_04_A_a.gif","",""
"","html-keyboard-response","123","360674","0.0-32.0-0.1","SS1627326847885","","null","","","null","","","","","","","","","","","<p><img src= images/blank.png width =""600"" height = ""600"" style=""position:fixed;top:50%; left:50%; transform: translate(-50%, -50%); border:5px solid black"">","","","","",""
"","stimuli-presentation","124","365298","0.0-32.0-1.1","SS1627326847885","","4116.5","trial","","40","500","4616.5","images/stimuli/complex_02_A_b.gif","images/stimuli/complex_04_A_a.gif","forced_short","470","","","","","","7","complex_dissimilar","images/stimuli/complex_04_A_a.gif","",""
"","html-keyboard-response","125","366418","0.0-32.0-0.2","SS1627326847885","","null","","","null","","","","","","","","","","","<p><img src= images/blank.png width =""600"" height = ""600"" style=""position:fixed;top:50%; left:50%; transform: translate(-50%, -50%); border:5px solid black"">","","","","",""
"","stimuli-presentation","126","373747","0.0-32.0-1.2","SS1627326847885","","6821.799999982119","trial","","40","500","7321.799999982119","images/stimuli/complex_02_A_b.gif","images/stimuli/complex_04_A_a.gif","forced_short","470","","","","","","7","complex_dissimilar","images/stimuli/complex_02_A_b.gif","",""
"","html-keyboard-response","127","374904","0.0-32.0-0.3","SS1627326847885","","null","","","null","","","","","","","","","","","<p><img src= images/blank.png width =""600"" height = ""600"" style=""position:fixed;top:50%; left:50%; transform: translate(-50%, -50%); border:5px solid black"">","","","","",""
"","stimuli-presentation","128","377708","0.0-32.0-1.3","SS1627326847885","","2297.5","trial","","40","500","2797.5","images/stimuli/complex_02_A_b.gif","images/stimuli/complex_04_A_a.gif","forced_short","470","","","","","","7","complex_dissimilar","images/stimuli/complex_04_A_a.gif","",""
"","html-keyboard-response","129","378914","0.0-32.0-0.4","SS1627326847885","","null","","","null","","","","","","","","","","","<p><img src= images/blank.png width =""600"" height = ""600"" style=""position:fixed;top:50%; left:50%; transform: translate(-50%, -50%); border:5px solid black"">","","","","",""
"","stimuli-presentation","130","382220","0.0-32.0-1.4","SS1627326847885","","2799","trial","","40","500","3299","images/stimuli/complex_02_A_b.gif","images/stimuli/complex_04_A_a.gif","forced_short","470","","","","","","7","complex_dissimilar","images/stimuli/complex_02_A_b.gif","",""
"","html-keyboard-response","131","383447","0.0-32.0-0.5","SS1627326847885","","null","","","null","","","","","","","","","","","<p><img src= images/blank.png width =""600"" height = ""600"" style=""position:fixed;top:50%; left:50%; transform: translate(-50%, -50%); border:5px solid black"">","","","","",""
"","stimuli-presentation","132","385508","0.0-32.0-1.5","SS1627326847885","","1552.0999999940395","trial","","40","500","2052.0999999940395","images/stimuli/complex_02_A_b.gif","images/stimuli/complex_04_A_a.gif","forced_short","470","","","","","","7","complex_dissimilar","images/stimuli/complex_04_A_a.gif","",""
"","html-keyboard-response","133","386450","0.0-32.0-0.6","SS1627326847885","","null","","","null","","","","","","","","","","","<p><img src= images/blank.png width =""600"" height = ""600"" style=""position:fixed;top:50%; left:50%; transform: translate(-50%, -50%); border:5px solid black"">","","","","",""
"","stimuli-presentation","134","388231","0.0-32.0-1.6","SS1627326847885","","1272.2000000178814","trial","","40","500","1772.2000000178814","images/stimuli/complex_02_A_b.gif","images/stimuli/complex_04_A_a.gif","forced_short","470","","","","","","7","complex_dissimilar","images/stimuli/complex_04_A_a.gif","",""
"","survey-multi-choice","135","392605","0.0-33.0","SS1627326847885","","4369.300000011921","memory_test","","","","","","","","","{""Q0"":""No""}","[0]","images/stimuli/complex_06_A_a.gif","7","","","","","",""
"","survey-multi-choice","136","396241","0.0-34.0","SS1627326847885","","3631.2999999821186","memory_test","","","","","","","","","{""Q0"":""Yes""}","[0]","images/stimuli/complex_02_A_b.gif","7","","","","","",""
"","instructions","137","400843","0.0-35.0","SS1627326847885","[{""page_index"":0,""viewing_time"":4596.5999999940395}]","4597","instructions","","","","","","","","","","","","","","","","","",""
"","survey-likert","138","424663","0.0-36.0","SS1627326847885","","23813.59999999404","similarity_question","","","","","","","","","{""Q0"":2}","[0]","","","","","","","images/stimuli/complex_02_A_b.gif","images/stimuli/complex_04_A_a.gif"
"","survey-likert","139","439794","0.0-37.0","SS1627326847885","","15125.09999999404","similarity_question","","","","","","","","","{""Q0"":4}","[0]","","","","","","","images/stimuli/complex_13_A_b.gif","images/stimuli/complex_15_A_b.gif"
"","survey-likert","140","446348","0.0-38.0","SS1627326847885","","6549.5999999940395","similarity_question","","","","","","","","","{""Q0"":2}","[0]","","","","","","","images/stimuli/complex_16_A_a.gif","images/stimuli/complex_07_A_a.gif"
"","survey-likert","141","450461","0.0-39.0","SS1627326847885","","4105.5999999940395","similarity_question","","","","","","","","","{""Q0"":1}","[0]","","","","","","","images/stimuli/complex_19_A_b.gif","images/stimuli/complex_03_A_a.gif"
"","survey-likert","142","462297","0.0-40.0","SS1627326847885","","11829.5","similarity_question","","","","","","","","","{""Q0"":1}","[0]","","","","","","","images/stimuli/complex_10_A_b.gif","images/stimuli/complex_17_A_b.gif"
"","survey-likert","143","470235","0.0-41.0","SS1627326847885","","7931.5","similarity_question","","","","","","","","","{""Q0"":0}","[0]","","","","","","","images/stimuli/complex_22_A_a.gif","images/stimuli/complex_11_A_a.gif"
"","survey-likert","144","473962","0.0-42.0","SS1627326847885","","3720.7000000178814","similarity_question","","","","","","","","","{""Q0"":0}","[0]","","","","","","","images/stimuli/complex_05_A_a.gif","images/stimuli/complex_09_A_a.gif"
"","survey-likert","145","485324","0.0-43.0","SS1627326847885","","11356.59999999404","similarity_question","","","","","","","","","{""Q0"":5}","[0]","","","","","","","images/stimuli/complex_24_A_a.gif","images/stimuli/complex_20_A_a.gif"
"","instructions","146","489072","0.0-44.0","SS1627326847885","[{""page_index"":0,""viewing_time"":3742.300000011921}]","3743.0999999940395","instructions","","","","","","","","","","","","","","","","","",""
"","survey-likert","147","495382","0.0-45.0","SS1627326847885","","6303.299999982119","","","","","","","","","","{""Q0"":2}","[0]","","","images/stimuli/complex_03_A_a.gif","","","","",""
"","survey-likert","148","502167","0.0-46.0","SS1627326847885","","6779.5","","","","","","","","","","{""Q0"":2}","[0]","","","images/stimuli/complex_05_A_a.gif","","","","",""
"","survey-likert","149","509241","0.0-47.0","SS1627326847885","","7067.600000023842","","","","","","","","","","{""Q0"":4}","[0]","","","images/stimuli/complex_10_A_b.gif","","","","",""
"","survey-likert","150","517973","0.0-48.0","SS1627326847885","","8725.09999999404","","","","","","","","","","{""Q0"":4}","[0]","","","images/stimuli/complex_16_A_a.gif","","","","",""
"","survey-likert","151","525297","0.0-49.0","SS1627326847885","","7317.699999988079","","","","","","","","","","{""Q0"":4}","[0]","","","images/stimuli/complex_13_A_b.gif","","","","",""
"","survey-likert","152","538598","0.0-50.0","SS1627326847885","","13294.700000017881","","","","","","","","","","{""Q0"":2}","[0]","","","images/stimuli/complex_20_A_a.gif","","","","",""
"","survey-likert","153","543274","0.0-51.0","SS1627326847885","","4669.200000017881","","","","","","","","","","{""Q0"":1}","[0]","","","images/stimuli/complex_11_A_a.gif","","","","",""
"","survey-likert","154","546221","0.0-52.0","SS1627326847885","","2939.5","","","","","","","","","","{""Q0"":1}","[0]","","","images/stimuli/complex_02_A_b.gif","","","","",""
"true","fullscreen","155","547227","0.0-53.0","SS1627326847885","","","","","","","","","","","","","","","","","","","","",""
"","instructions","156","549764","0.0-54.0","SS1627326847885","[{""page_index"":0,""viewing_time"":2529.5}]","2529.9000000059605","instructions","","","","","","","","","","","","","","","","","",""
"","demog-age","157","552414","0.0-55.0","SS1627326847885","","2642","","","","","","","","","","{""age"":""30""}","","","","","","","","",""
"","demog-ethnic-US","158","555591","0.0-56.0","SS1627326847885","","3167.9000000059605","","","","","","","","","","{""ethnicity"":[""White""]}","[0]","","","","","","","",""
"","demog-gender-and-education","159","561568","0.0-57.0","SS1627326847885","","5970","","","","","","","","","","{""gender"":""Female"",""education"":""Master's Degree""}","[0,1]","","","","","","","",""
"","survey-text","160","578513","0.0-58.0","SS1627326847885","","16937.40000000596","feedback","","","","","","","","","{""Q0"":""No! Animation was not laggy at all.""}","","","","","","","","",""
"","instructions","161","580537","0.0-59.0","SS1627326847885","[{""page_index"":0,""viewing_time"":2017.9000000059605}]","2018.4000000059605","instructions","","","","","","","","","","","","","","","","","",""
