"success","trial_type","trial_index","time_elapsed","internal_node_id","subject","view_history","rt","stimulus_type","trial_stimulus","key_press","minimum_viewing_duration","trial_looking_time","block_deviant","block_background","exposure_type","forced_exposure_time","responses","question_order","memory_question_stimuli","memory_block_index","stimulus","block_number","block_type","stimulus_displayed","stimulus_left","stimulus_right"
"true","fullscreen","0","3190","0.0-0.0","SS1627326514305","","","","","","","","","","","","","","","","","","","","",""
"","instructions","1","17464","0.0-1.0","SS1627326514305","[{""page_index"":0,""viewing_time"":14268.199999809265}]","14270.399999856949","","","","","","","","","","","","","","","","","","",""
"","instructions","2","36215","0.0-2.0","SS1627326514305","[{""page_index"":0,""viewing_time"":9301.5},{""page_index"":1,""viewing_time"":7442.799999952316}]","16744.700000047684","instructions","","","","","","","","","","","","","","","","","",""
"","stimuli-presentation","3","59343","0.0-3.0","SS1627326514305","","22621.89999985695","","","40","500","23121.89999985695","null","null","self_paced","0","","","","","","","","","",""
"","instructions","4","70413","0.0-4.0","SS1627326514305","[{""page_index"":0,""viewing_time"":11067}]","11067.5","instructions","","","","","","","","","","","","","","","","","",""
"","stimuli-presentation","5","74433","0.0-5.0","SS1627326514305","","3514.300000190735","","","40","500","4014.300000190735","null","null","forced_short","500","","","","","","","","","",""
"","stimuli-presentation","6","77750","0.0-6.0","SS1627326514305","","2811.7000000476837","","","40","500","3311.7000000476837","null","null","forced_short","500","","","","","","","","","",""
"","instructions","7","84708","0.0-7.0","SS1627326514305","[{""page_index"":0,""viewing_time"":6956.099999904633}]","6956.599999904633","instructions","","","","","","","","","","","","","","","","","",""
"","survey-multi-choice","8","90186","0.0-8.0","SS1627326514305","","5470.200000047684","memory_test_practice","","","","","","","","","{""Q0"":""Yes""}","[0]","images/practice/instructions_example_spore2.gif","0","","","","","",""
"","survey-multi-choice","9","93070","0.0-9.0","SS1627326514305","","2879.2000000476837","memory_test_practice","","","","","","","","","{""Q0"":""No""}","[0]","images/practice/instructions_example_spore0.gif","0","","","","","",""
"","instructions","10","108547","0.0-10.0","SS1627326514305","[{""page_index"":0,""viewing_time"":13856.700000047684},{""page_index"":1,""viewing_time"":1616.7999999523163}]","15474.100000143051","instructions","","","","","","","","","","","","","","","","","",""
"","html-keyboard-response","11","109842","0.0-11.0-0.0","SS1627326514305","","null","","","null","","","","","","","","","","","<p><img src= images/blank.png width =""600"" height = ""600"" style=""position:fixed;top:50%; left:50%; transform: translate(-50%, -50%); border:5px solid black"">","","","","",""
"","stimuli-presentation","12","113951","0.0-11.0-1.0","SS1627326514305","","3290.0999999046326","trial","","40","500","3790.0999999046326","images/stimuli/complex_21_A_a.gif","images/stimuli/complex_15_A_a.gif","forced_short","810","","","","","","0","complex_dissimilar","images/stimuli/complex_15_A_a.gif","",""
"","html-keyboard-response","13","115168","0.0-11.0-0.1","SS1627326514305","","null","","","null","","","","","","","","","","","<p><img src= images/blank.png width =""600"" height = ""600"" style=""position:fixed;top:50%; left:50%; transform: translate(-50%, -50%); border:5px solid black"">","","","","",""
"","stimuli-presentation","14","132188","0.0-11.0-1.1","SS1627326514305","","16512.60000014305","trial","","40","500","17012.60000014305","images/stimuli/complex_21_A_a.gif","images/stimuli/complex_15_A_a.gif","forced_short","810","","","","","","0","complex_dissimilar","images/stimuli/complex_15_A_a.gif","",""
"","html-keyboard-response","15","133389","0.0-11.0-0.2","SS1627326514305","","null","","","null","","","","","","","","","","","<p><img src= images/blank.png width =""600"" height = ""600"" style=""position:fixed;top:50%; left:50%; transform: translate(-50%, -50%); border:5px solid black"">","","","","",""
"","stimuli-presentation","16","144850","0.0-11.0-1.2","SS1627326514305","","10953.200000047684","trial","","40","500","11453.200000047684","images/stimuli/complex_21_A_a.gif","images/stimuli/complex_15_A_a.gif","forced_short","810","","","","","","0","complex_dissimilar","images/stimuli/complex_21_A_a.gif","",""
"","html-keyboard-response","17","145743","0.0-11.0-0.3","SS1627326514305","","null","","","null","","","","","","","","","","","<p><img src= images/blank.png width =""600"" height = ""600"" style=""position:fixed;top:50%; left:50%; transform: translate(-50%, -50%); border:5px solid black"">","","","","",""
"","stimuli-presentation","18","150834","0.0-11.0-1.3","SS1627326514305","","4580.200000047684","trial","","40","500","5080.200000047684","images/stimuli/complex_21_A_a.gif","images/stimuli/complex_15_A_a.gif","forced_short","810","","","","","","0","complex_dissimilar","images/stimuli/complex_15_A_a.gif","",""
"","html-keyboard-response","19","152099","0.0-11.0-0.4","SS1627326514305","","null","","","null","","","","","","","","","","","<p><img src= images/blank.png width =""600"" height = ""600"" style=""position:fixed;top:50%; left:50%; transform: translate(-50%, -50%); border:5px solid black"">","","","","",""
"","stimuli-presentation","20","158842","0.0-11.0-1.4","SS1627326514305","","6231.800000190735","trial","","40","500","6731.800000190735","images/stimuli/complex_21_A_a.gif","images/stimuli/complex_15_A_a.gif","forced_short","810","","","","","","0","complex_dissimilar","images/stimuli/complex_21_A_a.gif","",""
"","html-keyboard-response","21","160149","0.0-11.0-0.5","SS1627326514305","","null","","","null","","","","","","","","","","","<p><img src= images/blank.png width =""600"" height = ""600"" style=""position:fixed;top:50%; left:50%; transform: translate(-50%, -50%); border:5px solid black"">","","","","",""
"","stimuli-presentation","22","173192","0.0-11.0-1.5","SS1627326514305","","12535.200000047684","trial","","40","500","13035.200000047684","images/stimuli/complex_21_A_a.gif","images/stimuli/complex_15_A_a.gif","forced_short","810","","","","","","0","complex_dissimilar","images/stimuli/complex_15_A_a.gif","",""
"","html-keyboard-response","23","174039","0.0-11.0-0.6","SS1627326514305","","null","","","null","","","","","","","","","","","<p><img src= images/blank.png width =""600"" height = ""600"" style=""position:fixed;top:50%; left:50%; transform: translate(-50%, -50%); border:5px solid black"">","","","","",""
"","stimuli-presentation","24","178564","0.0-11.0-1.6","SS1627326514305","","4017.9000000953674","trial","","40","500","4517.900000095367","images/stimuli/complex_21_A_a.gif","images/stimuli/complex_15_A_a.gif","forced_short","810","","","","","","0","complex_dissimilar","images/stimuli/complex_15_A_a.gif","",""
"","survey-multi-choice","25","181345","0.0-12.0","SS1627326514305","","2777","memory_test","","","","","","","","","{""Q0"":""No""}","[0]","images/stimuli/complex_04_A_b.gif","0","","","","","",""
"","survey-multi-choice","26","183980","0.0-13.0","SS1627326514305","","2629.199999809265","memory_test","","","","","","","","","{""Q0"":""Yes""}","[0]","images/stimuli/complex_15_A_a.gif","0","","","","","",""
"","html-keyboard-response","27","185046","0.0-14.0-0.0","SS1627326514305","","null","","","null","","","","","","","","","","","<p><img src= images/blank.png width =""600"" height = ""600"" style=""position:fixed;top:50%; left:50%; transform: translate(-50%, -50%); border:5px solid black"">","","","","",""
"","stimuli-presentation","28","187413","0.0-14.0-1.0","SS1627326514305","","1771.9000000953674","trial","","40","500","2271.9000000953674","images/stimuli/complex_16_A_a.gif","images/stimuli/complex_09_A_b.gif","forced_short","580","","","","","","1","complex_dissimilar","images/stimuli/complex_09_A_b.gif","",""
"","html-keyboard-response","29","188403","0.0-14.0-0.1","SS1627326514305","","null","","","null","","","","","","","","","","","<p><img src= images/blank.png width =""600"" height = ""600"" style=""position:fixed;top:50%; left:50%; transform: translate(-50%, -50%); border:5px solid black"">","","","","",""
"","stimuli-presentation","30","194816","0.0-14.0-1.1","SS1627326514305","","5906","trial","","40","500","6406","images/stimuli/complex_16_A_a.gif","images/stimuli/complex_09_A_b.gif","forced_short","580","","","","","","1","complex_dissimilar","images/stimuli/complex_09_A_b.gif","",""
"","html-keyboard-response","31","195691","0.0-14.0-0.2","SS1627326514305","","null","","","null","","","","","","","","","","","<p><img src= images/blank.png width =""600"" height = ""600"" style=""position:fixed;top:50%; left:50%; transform: translate(-50%, -50%); border:5px solid black"">","","","","",""
"","stimuli-presentation","32","197889","0.0-14.0-1.2","SS1627326514305","","1690.5999999046326","trial","","40","500","2190.5999999046326","images/stimuli/complex_16_A_a.gif","images/stimuli/complex_09_A_b.gif","forced_short","580","","","","","","1","complex_dissimilar","images/stimuli/complex_09_A_b.gif","",""
"","html-keyboard-response","33","198905","0.0-14.0-0.3","SS1627326514305","","null","","","null","","","","","","","","","","","<p><img src= images/blank.png width =""600"" height = ""600"" style=""position:fixed;top:50%; left:50%; transform: translate(-50%, -50%); border:5px solid black"">","","","","",""
"","stimuli-presentation","34","205225","0.0-14.0-1.3","SS1627326514305","","5811.200000047684","trial","","40","500","6311.200000047684","images/stimuli/complex_16_A_a.gif","images/stimuli/complex_09_A_b.gif","forced_short","580","","","","","","1","complex_dissimilar","images/stimuli/complex_16_A_a.gif","",""
"","html-keyboard-response","35","206124","0.0-14.0-0.4","SS1627326514305","","null","","","null","","","","","","","","","","","<p><img src= images/blank.png width =""600"" height = ""600"" style=""position:fixed;top:50%; left:50%; transform: translate(-50%, -50%); border:5px solid black"">","","","","",""
"","stimuli-presentation","36","210107","0.0-14.0-1.4","SS1627326514305","","3464.9000000953674","trial","","40","500","3964.9000000953674","images/stimuli/complex_16_A_a.gif","images/stimuli/complex_09_A_b.gif","forced_short","580","","","","","","1","complex_dissimilar","images/stimuli/complex_09_A_b.gif","",""
"","html-keyboard-response","37","211005","0.0-14.0-0.5","SS1627326514305","","null","","","null","","","","","","","","","","","<p><img src= images/blank.png width =""600"" height = ""600"" style=""position:fixed;top:50%; left:50%; transform: translate(-50%, -50%); border:5px solid black"">","","","","",""
"","stimuli-presentation","38","214988","0.0-14.0-1.5","SS1627326514305","","3476.300000190735","trial","","40","500","3976.300000190735","images/stimuli/complex_16_A_a.gif","images/stimuli/complex_09_A_b.gif","forced_short","580","","","","","","1","complex_dissimilar","images/stimuli/complex_16_A_a.gif","",""
"","html-keyboard-response","39","215811","0.0-14.0-0.6","SS1627326514305","","null","","","null","","","","","","","","","","","<p><img src= images/blank.png width =""600"" height = ""600"" style=""position:fixed;top:50%; left:50%; transform: translate(-50%, -50%); border:5px solid black"">","","","","",""
"","stimuli-presentation","40","218406","0.0-14.0-1.6","SS1627326514305","","2083.7999999523163","trial","","40","500","2583.7999999523163","images/stimuli/complex_16_A_a.gif","images/stimuli/complex_09_A_b.gif","forced_short","580","","","","","","1","complex_dissimilar","images/stimuli/complex_09_A_b.gif","",""
"","survey-multi-choice","41","222197","0.0-15.0","SS1627326514305","","3786.7000000476837","memory_test","","","","","","","","","{""Q0"":""No""}","[0]","images/stimuli/complex_05_A_a.gif","1","","","","","",""
"","survey-multi-choice","42","224397","0.0-16.0","SS1627326514305","","2191.2999999523163","memory_test","","","","","","","","","{""Q0"":""Yes""}","[0]","images/stimuli/complex_16_A_a.gif","1","","","","","",""
"","html-keyboard-response","43","225437","0.0-17.0-0.0","SS1627326514305","","null","","","null","","","","","","","","","","","<p><img src= images/blank.png width =""600"" height = ""600"" style=""position:fixed;top:50%; left:50%; transform: translate(-50%, -50%); border:5px solid black"">","","","","",""
"","stimuli-presentation","44","228023","0.0-17.0-1.0","SS1627326514305","","2397.7000000476837","trial","","40","500","2897.7000000476837","images/stimuli/complex_01_A_b.gif","images/stimuli/complex_19_A_a.gif","forced_short","170","","","","","","2","complex_dissimilar","images/stimuli/complex_19_A_a.gif","",""
"","html-keyboard-response","45","229175","0.0-17.0-0.1","SS1627326514305","","null","","","null","","","","","","","","","","","<p><img src= images/blank.png width =""600"" height = ""600"" style=""position:fixed;top:50%; left:50%; transform: translate(-50%, -50%); border:5px solid black"">","","","","",""
"","stimuli-presentation","46","234330","0.0-17.0-1.1","SS1627326514305","","4638.700000047684","trial","","40","500","5138.700000047684","images/stimuli/complex_01_A_b.gif","images/stimuli/complex_19_A_a.gif","forced_short","170","","","","","","2","complex_dissimilar","images/stimuli/complex_19_A_a.gif","",""
"","html-keyboard-response","47","235327","0.0-17.0-0.2","SS1627326514305","","null","","","null","","","","","","","","","","","<p><img src= images/blank.png width =""600"" height = ""600"" style=""position:fixed;top:50%; left:50%; transform: translate(-50%, -50%); border:5px solid black"">","","","","",""
"","stimuli-presentation","48","240257","0.0-17.0-1.2","SS1627326514305","","4423.099999904633","trial","","40","500","4923.099999904633","images/stimuli/complex_01_A_b.gif","images/stimuli/complex_19_A_a.gif","forced_short","170","","","","","","2","complex_dissimilar","images/stimuli/complex_19_A_a.gif","",""
"","html-keyboard-response","49","241133","0.0-17.0-0.3","SS1627326514305","","null","","","null","","","","","","","","","","","<p><img src= images/blank.png width =""600"" height = ""600"" style=""position:fixed;top:50%; left:50%; transform: translate(-50%, -50%); border:5px solid black"">","","","","",""
"","stimuli-presentation","50","252923","0.0-17.0-1.3","SS1627326514305","","11282.700000047684","trial","","40","500","11782.700000047684","images/stimuli/complex_01_A_b.gif","images/stimuli/complex_19_A_a.gif","forced_short","170","","","","","","2","complex_dissimilar","images/stimuli/complex_01_A_b.gif","",""
"","html-keyboard-response","51","254079","0.0-17.0-0.4","SS1627326514305","","null","","","null","","","","","","","","","","","<p><img src= images/blank.png width =""600"" height = ""600"" style=""position:fixed;top:50%; left:50%; transform: translate(-50%, -50%); border:5px solid black"">","","","","",""
"","stimuli-presentation","52","256319","0.0-17.0-1.4","SS1627326514305","","1732.1999998092651","trial","","40","500","2232.199999809265","images/stimuli/complex_01_A_b.gif","images/stimuli/complex_19_A_a.gif","forced_short","170","","","","","","2","complex_dissimilar","images/stimuli/complex_19_A_a.gif","",""
"","html-keyboard-response","53","257605","0.0-17.0-0.5","SS1627326514305","","null","","","null","","","","","","","","","","","<p><img src= images/blank.png width =""600"" height = ""600"" style=""position:fixed;top:50%; left:50%; transform: translate(-50%, -50%); border:5px solid black"">","","","","",""
"","stimuli-presentation","54","258755","0.0-17.0-1.5","SS1627326514305","","640.2000000476837","trial","","40","500","1140.2000000476837","images/stimuli/complex_01_A_b.gif","images/stimuli/complex_19_A_a.gif","forced_short","170","","","","","","2","complex_dissimilar","images/stimuli/complex_19_A_a.gif","",""
"","html-keyboard-response","55","259826","0.0-17.0-0.6","SS1627326514305","","null","","","null","","","","","","","","","","","<p><img src= images/blank.png width =""600"" height = ""600"" style=""position:fixed;top:50%; left:50%; transform: translate(-50%, -50%); border:5px solid black"">","","","","",""
"","stimuli-presentation","56","261260","0.0-17.0-1.6","SS1627326514305","","915.5","trial","","40","500","1415.5","images/stimuli/complex_01_A_b.gif","images/stimuli/complex_19_A_a.gif","forced_short","170","","","","","","2","complex_dissimilar","images/stimuli/complex_01_A_b.gif","",""
"","survey-multi-choice","57","263703","0.0-18.0","SS1627326514305","","2436.5","memory_test","","","","","","","","","{""Q0"":""Yes""}","[0]","images/stimuli/complex_01_A_b.gif","2","","","","","",""
"","survey-multi-choice","58","267165","0.0-19.0","SS1627326514305","","3455.0999999046326","memory_test","","","","","","","","","{""Q0"":""No""}","[0]","images/stimuli/complex_10_A_b.gif","2","","","","","",""
"","html-keyboard-response","59","268054","0.0-20.0-0.0","SS1627326514305","","null","","","null","","","","","","","","","","","<p><img src= images/blank.png width =""600"" height = ""600"" style=""position:fixed;top:50%; left:50%; transform: translate(-50%, -50%); border:5px solid black"">","","","","",""
"","stimuli-presentation","60","271685","0.0-20.0-1.0","SS1627326514305","","2642.7000000476837","trial","","40","500","3142.7000000476837","images/stimuli/complex_24_A_a.gif","images/stimuli/complex_18_A_b.gif","forced_short","980","","","","","","3","complex_dissimilar","images/stimuli/complex_18_A_b.gif","",""
"","html-keyboard-response","61","272633","0.0-20.0-0.1","SS1627326514305","","null","","","null","","","","","","","","","","","<p><img src= images/blank.png width =""600"" height = ""600"" style=""position:fixed;top:50%; left:50%; transform: translate(-50%, -50%); border:5px solid black"">","","","","",""
"","stimuli-presentation","62","277767","0.0-20.0-1.1","SS1627326514305","","4622.600000143051","trial","","40","500","5122.600000143051","images/stimuli/complex_24_A_a.gif","images/stimuli/complex_18_A_b.gif","forced_short","980","","","","","","3","complex_dissimilar","images/stimuli/complex_18_A_b.gif","",""
"","html-keyboard-response","63","278799","0.0-20.0-0.2","SS1627326514305","","null","","","null","","","","","","","","","","","<p><img src= images/blank.png width =""600"" height = ""600"" style=""position:fixed;top:50%; left:50%; transform: translate(-50%, -50%); border:5px solid black"">","","","","",""
"","stimuli-presentation","64","280853","0.0-20.0-1.2","SS1627326514305","","1545.9000000953674","trial","","40","500","2045.9000000953674","images/stimuli/complex_24_A_a.gif","images/stimuli/complex_18_A_b.gif","forced_short","980","","","","","","3","complex_dissimilar","images/stimuli/complex_18_A_b.gif","",""
"","html-keyboard-response","65","281802","0.0-20.0-0.3","SS1627326514305","","null","","","null","","","","","","","","","","","<p><img src= images/blank.png width =""600"" height = ""600"" style=""position:fixed;top:50%; left:50%; transform: translate(-50%, -50%); border:5px solid black"">","","","","",""
"","stimuli-presentation","66","285209","0.0-20.0-1.3","SS1627326514305","","2900.100000143051","trial","","40","500","3400.100000143051","images/stimuli/complex_24_A_a.gif","images/stimuli/complex_18_A_b.gif","forced_short","980","","","","","","3","complex_dissimilar","images/stimuli/complex_18_A_b.gif","",""
"","html-keyboard-response","67","286406","0.0-20.0-0.4","SS1627326514305","","null","","","null","","","","","","","","","","","<p><img src= images/blank.png width =""600"" height = ""600"" style=""position:fixed;top:50%; left:50%; transform: translate(-50%, -50%); border:5px solid black"">","","","","",""
"","stimuli-presentation","68","287887","0.0-20.0-1.4","SS1627326514305","","973.7000000476837","trial","","40","500","1473.7000000476837","images/stimuli/complex_24_A_a.gif","images/stimuli/complex_18_A_b.gif","forced_short","980","","","","","","3","complex_dissimilar","images/stimuli/complex_18_A_b.gif","",""
"","html-keyboard-response","69","288848","0.0-20.0-0.5","SS1627326514305","","null","","","null","","","","","","","","","","","<p><img src= images/blank.png width =""600"" height = ""600"" style=""position:fixed;top:50%; left:50%; transform: translate(-50%, -50%); border:5px solid black"">","","","","",""
"","stimuli-presentation","70","290116","0.0-20.0-1.5","SS1627326514305","","761.6000001430511","trial","","40","500","1261.6000001430511","images/stimuli/complex_24_A_a.gif","images/stimuli/complex_18_A_b.gif","forced_short","980","","","","","","3","complex_dissimilar","images/stimuli/complex_18_A_b.gif","",""
"","survey-multi-choice","71","292819","0.0-21.0","SS1627326514305","","2697","memory_test","","","","","","","","","{""Q0"":""Yes""}","[0]","images/stimuli/complex_18_A_b.gif","3","","","","","",""
"","survey-multi-choice","72","295437","0.0-22.0","SS1627326514305","","2611","memory_test","","","","","","","","","{""Q0"":""No""}","[0]","images/stimuli/complex_08_A_a.gif","3","","","","","",""
"","html-keyboard-response","73","296364","0.0-23.0-0.0","SS1627326514305","","null","","","null","","","","","","","","","","","<p><img src= images/blank.png width =""600"" height = ""600"" style=""position:fixed;top:50%; left:50%; transform: translate(-50%, -50%); border:5px solid black"">","","","","",""
"","stimuli-presentation","74","300091","0.0-23.0-1.0","SS1627326514305","","2942.7000000476837","trial","","40","500","3442.7000000476837","images/stimuli/complex_02_A_a.gif","images/stimuli/complex_13_A_b.gif","forced_short","770","","","","","","4","complex_dissimilar","images/stimuli/complex_13_A_b.gif","",""
"","html-keyboard-response","75","301271","0.0-23.0-0.1","SS1627326514305","","null","","","null","","","","","","","","","","","<p><img src= images/blank.png width =""600"" height = ""600"" style=""position:fixed;top:50%; left:50%; transform: translate(-50%, -50%); border:5px solid black"">","","","","",""
"","stimuli-presentation","76","305162","0.0-23.0-1.1","SS1627326514305","","3383.7999999523163","trial","","40","500","3883.7999999523163","images/stimuli/complex_02_A_a.gif","images/stimuli/complex_13_A_b.gif","forced_short","770","","","","","","4","complex_dissimilar","images/stimuli/complex_13_A_b.gif","",""
"","html-keyboard-response","77","306239","0.0-23.0-0.2","SS1627326514305","","null","","","null","","","","","","","","","","","<p><img src= images/blank.png width =""600"" height = ""600"" style=""position:fixed;top:50%; left:50%; transform: translate(-50%, -50%); border:5px solid black"">","","","","",""
"","stimuli-presentation","78","308413","0.0-23.0-1.2","SS1627326514305","","1666.3999998569489","trial","","40","500","2166.399999856949","images/stimuli/complex_02_A_a.gif","images/stimuli/complex_13_A_b.gif","forced_short","770","","","","","","4","complex_dissimilar","images/stimuli/complex_13_A_b.gif","",""
"","html-keyboard-response","79","309649","0.0-23.0-0.3","SS1627326514305","","null","","","null","","","","","","","","","","","<p><img src= images/blank.png width =""600"" height = ""600"" style=""position:fixed;top:50%; left:50%; transform: translate(-50%, -50%); border:5px solid black"">","","","","",""
"","stimuli-presentation","80","318406","0.0-23.0-1.3","SS1627326514305","","8240.299999952316","trial","","40","500","8740.299999952316","images/stimuli/complex_02_A_a.gif","images/stimuli/complex_13_A_b.gif","forced_short","770","","","","","","4","complex_dissimilar","images/stimuli/complex_02_A_a.gif","",""
"","html-keyboard-response","81","319482","0.0-23.0-0.4","SS1627326514305","","null","","","null","","","","","","","","","","","<p><img src= images/blank.png width =""600"" height = ""600"" style=""position:fixed;top:50%; left:50%; transform: translate(-50%, -50%); border:5px solid black"">","","","","",""
"","stimuli-presentation","82","320257","0.0-23.0-1.4","SS1627326514305","","263","trial","","40","500","763","images/stimuli/complex_02_A_a.gif","images/stimuli/complex_13_A_b.gif","forced_short","770","","","","","","4","complex_dissimilar","images/stimuli/complex_13_A_b.gif","",""
"","html-keyboard-response","83","321473","0.0-23.0-0.5","SS1627326514305","","null","","","null","","","","","","","","","","","<p><img src= images/blank.png width =""600"" height = ""600"" style=""position:fixed;top:50%; left:50%; transform: translate(-50%, -50%); border:5px solid black"">","","","","",""
"","stimuli-presentation","84","322808","0.0-23.0-1.5","SS1627326514305","","829","trial","","40","500","1329","images/stimuli/complex_02_A_a.gif","images/stimuli/complex_13_A_b.gif","forced_short","770","","","","","","4","complex_dissimilar","images/stimuli/complex_13_A_b.gif","",""
"","html-keyboard-response","85","323720","0.0-23.0-0.6","SS1627326514305","","null","","","null","","","","","","","","","","","<p><img src= images/blank.png width =""600"" height = ""600"" style=""position:fixed;top:50%; left:50%; transform: translate(-50%, -50%); border:5px solid black"">","","","","",""
"","stimuli-presentation","86","324837","0.0-23.0-1.6","SS1627326514305","","597.5999999046326","trial","","40","500","1097.5999999046326","images/stimuli/complex_02_A_a.gif","images/stimuli/complex_13_A_b.gif","forced_short","770","","","","","","4","complex_dissimilar","images/stimuli/complex_13_A_b.gif","",""
"","html-keyboard-response","87","325935","0.0-23.0-0.7","SS1627326514305","","null","","","null","","","","","","","","","","","<p><img src= images/blank.png width =""600"" height = ""600"" style=""position:fixed;top:50%; left:50%; transform: translate(-50%, -50%); border:5px solid black"">","","","","",""
"","stimuli-presentation","88","327323","0.0-23.0-1.7","SS1627326514305","","877.2000000476837","trial","","40","500","1377.2000000476837","images/stimuli/complex_02_A_a.gif","images/stimuli/complex_13_A_b.gif","forced_short","770","","","","","","4","complex_dissimilar","images/stimuli/complex_13_A_b.gif","",""
"","survey-multi-choice","89","330981","0.0-24.0","SS1627326514305","","3652.2999999523163","memory_test","","","","","","","","","{""Q0"":""No""}","[0]","images/stimuli/complex_11_A_a.gif","4","","","","","",""
"","survey-multi-choice","90","333385","0.0-25.0","SS1627326514305","","2394.300000190735","memory_test","","","","","","","","","{""Q0"":""Yes""}","[0]","images/stimuli/complex_02_A_a.gif","4","","","","","",""
"","html-keyboard-response","91","334284","0.0-26.0-0.0","SS1627326514305","","null","","","null","","","","","","","","","","","<p><img src= images/blank.png width =""600"" height = ""600"" style=""position:fixed;top:50%; left:50%; transform: translate(-50%, -50%); border:5px solid black"">","","","","",""
"","stimuli-presentation","92","336734","0.0-26.0-1.0","SS1627326514305","","1533.7000000476837","trial","","40","500","2033.7000000476837","images/stimuli/complex_07_A_a.gif","images/stimuli/complex_20_A_b.gif","forced_short","900","","","","","","5","complex_dissimilar","images/stimuli/complex_20_A_b.gif","",""
"","html-keyboard-response","93","337987","0.0-26.0-0.1","SS1627326514305","","null","","","null","","","","","","","","","","","<p><img src= images/blank.png width =""600"" height = ""600"" style=""position:fixed;top:50%; left:50%; transform: translate(-50%, -50%); border:5px solid black"">","","","","",""
"","stimuli-presentation","94","344066","0.0-26.0-1.1","SS1627326514305","","5569.699999809265","trial","","40","500","6069.699999809265","images/stimuli/complex_07_A_a.gif","images/stimuli/complex_20_A_b.gif","forced_short","900","","","","","","5","complex_dissimilar","images/stimuli/complex_20_A_b.gif","",""
"","html-keyboard-response","95","345091","0.0-26.0-0.2","SS1627326514305","","null","","","null","","","","","","","","","","","<p><img src= images/blank.png width =""600"" height = ""600"" style=""position:fixed;top:50%; left:50%; transform: translate(-50%, -50%); border:5px solid black"">","","","","",""
"","stimuli-presentation","96","346294","0.0-26.0-1.2","SS1627326514305","","688","trial","","40","500","1188","images/stimuli/complex_07_A_a.gif","images/stimuli/complex_20_A_b.gif","forced_short","900","","","","","","5","complex_dissimilar","images/stimuli/complex_20_A_b.gif","",""
"","html-keyboard-response","97","347227","0.0-26.0-0.3","SS1627326514305","","null","","","null","","","","","","","","","","","<p><img src= images/blank.png width =""600"" height = ""600"" style=""position:fixed;top:50%; left:50%; transform: translate(-50%, -50%); border:5px solid black"">","","","","",""
"","stimuli-presentation","98","348976","0.0-26.0-1.3","SS1627326514305","","1242.2000000476837","trial","","40","500","1742.2000000476837","images/stimuli/complex_07_A_a.gif","images/stimuli/complex_20_A_b.gif","forced_short","900","","","","","","5","complex_dissimilar","images/stimuli/complex_20_A_b.gif","",""
"","html-keyboard-response","99","350034","0.0-26.0-0.4","SS1627326514305","","null","","","null","","","","","","","","","","","<p><img src= images/blank.png width =""600"" height = ""600"" style=""position:fixed;top:50%; left:50%; transform: translate(-50%, -50%); border:5px solid black"">","","","","",""
"","stimuli-presentation","100","350750","0.0-26.0-1.4","SS1627326514305","","208.29999995231628","trial","","40","500","708.2999999523163","images/stimuli/complex_07_A_a.gif","images/stimuli/complex_20_A_b.gif","forced_short","900","","","","","","5","complex_dissimilar","images/stimuli/complex_20_A_b.gif","",""
"","html-keyboard-response","101","351823","0.0-26.0-0.5","SS1627326514305","","null","","","null","","","","","","","","","","","<p><img src= images/blank.png width =""600"" height = ""600"" style=""position:fixed;top:50%; left:50%; transform: translate(-50%, -50%); border:5px solid black"">","","","","",""
"","stimuli-presentation","102","352564","0.0-26.0-1.5","SS1627326514305","","225.09999990463257","trial","","40","500","725.0999999046326","images/stimuli/complex_07_A_a.gif","images/stimuli/complex_20_A_b.gif","forced_short","900","","","","","","5","complex_dissimilar","images/stimuli/complex_20_A_b.gif","",""
"","html-keyboard-response","103","353786","0.0-26.0-0.6","SS1627326514305","","null","","","null","","","","","","","","","","","<p><img src= images/blank.png width =""600"" height = ""600"" style=""position:fixed;top:50%; left:50%; transform: translate(-50%, -50%); border:5px solid black"">","","","","",""
"","stimuli-presentation","104","361880","0.0-26.0-1.6","SS1627326514305","","7575.400000095367","trial","","40","500","8075.400000095367","images/stimuli/complex_07_A_a.gif","images/stimuli/complex_20_A_b.gif","forced_short","900","","","","","","5","complex_dissimilar","images/stimuli/complex_07_A_a.gif","",""
"","survey-multi-choice","105","365787","0.0-27.0","SS1627326514305","","3900.9000000953674","memory_test","","","","","","","","","{""Q0"":""Yes""}","[0]","images/stimuli/complex_07_A_a.gif","5","","","","","",""
"","survey-multi-choice","106","368365","0.0-28.0","SS1627326514305","","2569.5","memory_test","","","","","","","","","{""Q0"":""No""}","[0]","images/stimuli/complex_17_A_a.gif","5","","","","","",""
"","html-keyboard-response","107","369316","0.0-29.0-0.0","SS1627326514305","","null","","","null","","","","","","","","","","","<p><img src= images/blank.png width =""600"" height = ""600"" style=""position:fixed;top:50%; left:50%; transform: translate(-50%, -50%); border:5px solid black"">","","","","",""
"","stimuli-presentation","108","371766","0.0-29.0-1.0","SS1627326514305","","1565.2000000476837","trial","","40","500","2065.2000000476837","images/stimuli/complex_03_A_b.gif","images/stimuli/complex_12_A_b.gif","forced_short","870","","","","","","6","complex_dissimilar","images/stimuli/complex_12_A_b.gif","",""
"","html-keyboard-response","109","372740","0.0-29.0-0.1","SS1627326514305","","null","","","null","","","","","","","","","","","<p><img src= images/blank.png width =""600"" height = ""600"" style=""position:fixed;top:50%; left:50%; transform: translate(-50%, -50%); border:5px solid black"">","","","","",""
"","stimuli-presentation","110","379547","0.0-29.0-1.1","SS1627326514305","","6299.699999809265","trial","","40","500","6799.699999809265","images/stimuli/complex_03_A_b.gif","images/stimuli/complex_12_A_b.gif","forced_short","870","","","","","","6","complex_dissimilar","images/stimuli/complex_12_A_b.gif","",""
"","html-keyboard-response","111","380603","0.0-29.0-0.2","SS1627326514305","","null","","","null","","","","","","","","","","","<p><img src= images/blank.png width =""600"" height = ""600"" style=""position:fixed;top:50%; left:50%; transform: translate(-50%, -50%); border:5px solid black"">","","","","",""
"","stimuli-presentation","112","382002","0.0-29.0-1.2","SS1627326514305","","879.2999999523163","trial","","40","500","1379.2999999523163","images/stimuli/complex_03_A_b.gif","images/stimuli/complex_12_A_b.gif","forced_short","870","","","","","","6","complex_dissimilar","images/stimuli/complex_12_A_b.gif","",""
"","html-keyboard-response","113","382991","0.0-29.0-0.3","SS1627326514305","","null","","","null","","","","","","","","","","","<p><img src= images/blank.png width =""600"" height = ""600"" style=""position:fixed;top:50%; left:50%; transform: translate(-50%, -50%); border:5px solid black"">","","","","",""
"","stimuli-presentation","114","383930","0.0-29.0-1.3","SS1627326514305","","427.2000000476837","trial","","40","500","927.2000000476837","images/stimuli/complex_03_A_b.gif","images/stimuli/complex_12_A_b.gif","forced_short","870","","","","","","6","complex_dissimilar","images/stimuli/complex_12_A_b.gif","",""
"","html-keyboard-response","115","384789","0.0-29.0-0.4","SS1627326514305","","null","","","null","","","","","","","","","","","<p><img src= images/blank.png width =""600"" height = ""600"" style=""position:fixed;top:50%; left:50%; transform: translate(-50%, -50%); border:5px solid black"">","","","","",""
"","stimuli-presentation","116","385844","0.0-29.0-1.4","SS1627326514305","","547.8999998569489","trial","","40","500","1047.8999998569489","images/stimuli/complex_03_A_b.gif","images/stimuli/complex_12_A_b.gif","forced_short","870","","","","","","6","complex_dissimilar","images/stimuli/complex_12_A_b.gif","",""
"","html-keyboard-response","117","387117","0.0-29.0-0.5","SS1627326514305","","null","","","null","","","","","","","","","","","<p><img src= images/blank.png width =""600"" height = ""600"" style=""position:fixed;top:50%; left:50%; transform: translate(-50%, -50%); border:5px solid black"">","","","","",""
"","stimuli-presentation","118","390418","0.0-29.0-1.5","SS1627326514305","","2784.7000000476837","trial","","40","500","3284.7000000476837","images/stimuli/complex_03_A_b.gif","images/stimuli/complex_12_A_b.gif","forced_short","870","","","","","","6","complex_dissimilar","images/stimuli/complex_03_A_b.gif","",""
"","html-keyboard-response","119","391456","0.0-29.0-0.6","SS1627326514305","","null","","","null","","","","","","","","","","","<p><img src= images/blank.png width =""600"" height = ""600"" style=""position:fixed;top:50%; left:50%; transform: translate(-50%, -50%); border:5px solid black"">","","","","",""
"","stimuli-presentation","120","393240","0.0-29.0-1.6","SS1627326514305","","1272","trial","","40","500","1772","images/stimuli/complex_03_A_b.gif","images/stimuli/complex_12_A_b.gif","forced_short","870","","","","","","6","complex_dissimilar","images/stimuli/complex_12_A_b.gif","",""
"","survey-multi-choice","121","396135","0.0-30.0","SS1627326514305","","2888.2000000476837","memory_test","","","","","","","","","{""Q0"":""No""}","[0]","images/stimuli/complex_22_A_b.gif","6","","","","","",""
"","survey-multi-choice","122","398772","0.0-31.0","SS1627326514305","","2624.7000000476837","memory_test","","","","","","","","","{""Q0"":""Yes""}","[0]","images/stimuli/complex_03_A_b.gif","6","","","","","",""
"","html-keyboard-response","123","399648","0.0-32.0-0.0","SS1627326514305","","null","","","null","","","","","","","","","","","<p><img src= images/blank.png width =""600"" height = ""600"" style=""position:fixed;top:50%; left:50%; transform: translate(-50%, -50%); border:5px solid black"">","","","","",""
"","stimuli-presentation","124","401986","0.0-32.0-1.0","SS1627326514305","","2149.5999999046326","trial","","40","500","2649.5999999046326","images/stimuli/complex_14_A_a.gif","images/stimuli/complex_06_A_b.gif","forced_short","180","","","","","","7","complex_dissimilar","images/stimuli/complex_06_A_b.gif","",""
"","html-keyboard-response","125","402985","0.0-32.0-0.1","SS1627326514305","","null","","","null","","","","","","","","","","","<p><img src= images/blank.png width =""600"" height = ""600"" style=""position:fixed;top:50%; left:50%; transform: translate(-50%, -50%); border:5px solid black"">","","","","",""
"","stimuli-presentation","126","407597","0.0-32.0-1.1","SS1627326514305","","4095.399999856949","trial","","40","500","4595.399999856949","images/stimuli/complex_14_A_a.gif","images/stimuli/complex_06_A_b.gif","forced_short","180","","","","","","7","complex_dissimilar","images/stimuli/complex_06_A_b.gif","",""
"","html-keyboard-response","127","408864","0.0-32.0-0.2","SS1627326514305","","null","","","null","","","","","","","","","","","<p><img src= images/blank.png width =""600"" height = ""600"" style=""position:fixed;top:50%; left:50%; transform: translate(-50%, -50%); border:5px solid black"">","","","","",""
"","stimuli-presentation","128","413884","0.0-32.0-1.2","SS1627326514305","","4512.599999904633","trial","","40","500","5012.599999904633","images/stimuli/complex_14_A_a.gif","images/stimuli/complex_06_A_b.gif","forced_short","180","","","","","","7","complex_dissimilar","images/stimuli/complex_06_A_b.gif","",""
"","html-keyboard-response","129","414706","0.0-32.0-0.3","SS1627326514305","","null","","","null","","","","","","","","","","","<p><img src= images/blank.png width =""600"" height = ""600"" style=""position:fixed;top:50%; left:50%; transform: translate(-50%, -50%); border:5px solid black"">","","","","",""
"","stimuli-presentation","130","418086","0.0-32.0-1.3","SS1627326514305","","2863","trial","","40","500","3363","images/stimuli/complex_14_A_a.gif","images/stimuli/complex_06_A_b.gif","forced_short","180","","","","","","7","complex_dissimilar","images/stimuli/complex_06_A_b.gif","",""
"","html-keyboard-response","131","418902","0.0-32.0-0.4","SS1627326514305","","null","","","null","","","","","","","","","","","<p><img src= images/blank.png width =""600"" height = ""600"" style=""position:fixed;top:50%; left:50%; transform: translate(-50%, -50%); border:5px solid black"">","","","","",""
"","stimuli-presentation","132","429229","0.0-32.0-1.4","SS1627326514305","","9809.599999904633","trial","","40","500","10309.599999904633","images/stimuli/complex_14_A_a.gif","images/stimuli/complex_06_A_b.gif","forced_short","180","","","","","","7","complex_dissimilar","images/stimuli/complex_14_A_a.gif","",""
"","html-keyboard-response","133","430391","0.0-32.0-0.5","SS1627326514305","","null","","","null","","","","","","","","","","","<p><img src= images/blank.png width =""600"" height = ""600"" style=""position:fixed;top:50%; left:50%; transform: translate(-50%, -50%); border:5px solid black"">","","","","",""
"","stimuli-presentation","134","434126","0.0-32.0-1.5","SS1627326514305","","3217.699999809265","trial","","40","500","3717.699999809265","images/stimuli/complex_14_A_a.gif","images/stimuli/complex_06_A_b.gif","forced_short","180","","","","","","7","complex_dissimilar","images/stimuli/complex_14_A_a.gif","",""
"","survey-multi-choice","135","438136","0.0-33.0","SS1627326514305","","4004.7000000476837","memory_test","","","","","","","","","{""Q0"":""No""}","[0]","images/stimuli/complex_23_A_a.gif","7","","","","","",""
"","survey-multi-choice","136","440209","0.0-34.0","SS1627326514305","","2063.699999809265","memory_test","","","","","","","","","{""Q0"":""Yes""}","[0]","images/stimuli/complex_14_A_a.gif","7","","","","","",""
"","instructions","137","445067","0.0-35.0","SS1627326514305","[{""page_index"":0,""viewing_time"":4850.299999952316}]","4850.799999952316","instructions","","","","","","","","","","","","","","","","","",""
"","survey-likert","138","463742","0.0-36.0","SS1627326514305","","18666.099999904633","similarity_question","","","","","","","","","{""Q0"":4}","[0]","","","","","","","images/stimuli/complex_14_A_a.gif","images/stimuli/complex_06_A_b.gif"
"","survey-likert","139","470487","0.0-37.0","SS1627326514305","","6736.200000047684","similarity_question","","","","","","","","","{""Q0"":1}","[0]","","","","","","","images/stimuli/complex_02_A_a.gif","images/stimuli/complex_13_A_b.gif"
"","survey-likert","140","479072","0.0-38.0","SS1627326514305","","8575.599999904633","similarity_question","","","","","","","","","{""Q0"":4}","[0]","","","","","","","images/stimuli/complex_01_A_b.gif","images/stimuli/complex_19_A_a.gif"
"","survey-likert","141","495125","0.0-39.0","SS1627326514305","","16048.599999904633","similarity_question","","","","","","","","","{""Q0"":2}","[0]","","","","","","","images/stimuli/complex_21_A_a.gif","images/stimuli/complex_15_A_a.gif"
"","survey-likert","142","503475","0.0-40.0","SS1627326514305","","8340.5","similarity_question","","","","","","","","","{""Q0"":5}","[0]","","","","","","","images/stimuli/complex_24_A_a.gif","images/stimuli/complex_18_A_b.gif"
"","survey-likert","143","508417","0.0-41.0","SS1627326514305","","4929.399999856949","similarity_question","","","","","","","","","{""Q0"":1}","[0]","","","","","","","images/stimuli/complex_12_A_b.gif","images/stimuli/complex_03_A_b.gif"
"","survey-likert","144","516072","0.0-42.0","SS1627326514305","","7641.5","similarity_question","","","","","","","","","{""Q0"":4}","[0]","","","","","","","images/stimuli/complex_09_A_b.gif","images/stimuli/complex_16_A_a.gif"
"","survey-likert","145","523781","0.0-43.0","SS1627326514305","","7696.5","similarity_question","","","","","","","","","{""Q0"":4}","[0]","","","","","","","images/stimuli/complex_20_A_b.gif","images/stimuli/complex_07_A_a.gif"
"","instructions","146","527387","0.0-44.0","SS1627326514305","[{""page_index"":0,""viewing_time"":3594.899999856949}]","3595.7999999523163","instructions","","","","","","","","","","","","","","","","","",""
"","survey-likert","147","531360","0.0-45.0","SS1627326514305","","3962.0999999046326","","","","","","","","","","{""Q0"":5}","[0]","","","images/stimuli/complex_19_A_a.gif","","","","",""
"","survey-likert","148","542002","0.0-46.0","SS1627326514305","","10629.799999952316","","","","","","","","","","{""Q0"":4}","[0]","","","images/stimuli/complex_07_A_a.gif","","","","",""
"","survey-likert","149","546605","0.0-47.0","SS1627326514305","","4592","","","","","","","","","","{""Q0"":5}","[0]","","","images/stimuli/complex_12_A_b.gif","","","","",""
"","survey-likert","150","552947","0.0-48.0","SS1627326514305","","6333.300000190735","","","","","","","","","","{""Q0"":1}","[0]","","","images/stimuli/complex_02_A_a.gif","","","","",""
"","survey-likert","151","558051","0.0-49.0","SS1627326514305","","5094.400000095367","","","","","","","","","","{""Q0"":1}","[0]","","","images/stimuli/complex_06_A_b.gif","","","","",""
"","survey-likert","152","561770","0.0-50.0","SS1627326514305","","3708.2999999523163","","","","","","","","","","{""Q0"":2}","[0]","","","images/stimuli/complex_15_A_a.gif","","","","",""
"","survey-likert","153","565585","0.0-51.0","SS1627326514305","","3805.699999809265","","","","","","","","","","{""Q0"":4}","[0]","","","images/stimuli/complex_18_A_b.gif","","","","",""
"","survey-likert","154","568600","0.0-52.0","SS1627326514305","","3005.100000143051","","","","","","","","","","{""Q0"":5}","[0]","","","images/stimuli/complex_16_A_a.gif","","","","",""
"true","fullscreen","155","569612","0.0-53.0","SS1627326514305","","","","","","","","","","","","","","","","","","","","",""
"","instructions","156","572044","0.0-54.0","SS1627326514305","[{""page_index"":0,""viewing_time"":2423.5}]","2424.2000000476837","instructions","","","","","","","","","","","","","","","","","",""
"","demog-age","157","575651","0.0-55.0","SS1627326514305","","3596.7999999523163","","","","","","","","","","{""age"":""19""}","","","","","","","","",""
"","demog-ethnic-US","158","582033","0.0-56.0","SS1627326514305","","6366.299999952316","","","","","","","","","","{""ethnicity"":[""White""]}","[0]","","","","","","","",""
"","demog-gender-and-education","159","596312","0.0-57.0","SS1627326514305","","14270.200000047684","","","","","","","","","","{""gender"":""Female"",""education"":""High school diploma""}","[0,1]","","","","","","","",""
"","survey-text","160","620035","0.0-58.0","SS1627326514305","","23707.099999904633","feedback","","","","","","","","","{""Q0"":""no, great job!""}","","","","","","","","",""
"","instructions","161","623456","0.0-59.0","SS1627326514305","[{""page_index"":0,""viewing_time"":3414.300000190735}]","3415","instructions","","","","","","","","","","","","","","","","","",""
