"success","trial_type","trial_index","time_elapsed","internal_node_id","subject","view_history","rt","stimulus_type","trial_stimulus","key_press","minimum_viewing_duration","trial_looking_time","block_deviant","block_background","exposure_type","forced_exposure_time","responses","question_order","memory_question_stimuli","memory_block_index","stimulus","block_number","block_type","stimulus_displayed","stimulus_left","stimulus_right"
"true","fullscreen","0","6095","0.0-0.0","SS1627326800508","","","","","","","","","","","","","","","","","","","","",""
"","instructions","1","17719","0.0-1.0","SS1627326800508","[{""page_index"":0,""viewing_time"":11618.800000000047}]","11620.09999999986","","","","","","","","","","","","","","","","","","",""
"","instructions","2","32897","0.0-2.0","SS1627326800508","[{""page_index"":0,""viewing_time"":10674.899999999907},{""page_index"":1,""viewing_time"":2496.600000000093}]","13171.799999999814","instructions","","","","","","","","","","","","","","","","","",""
"","stimuli-presentation","3","40745","0.0-3.0","SS1627326800508","","7339.199999999953","","","40","500","7839.199999999953","null","null","self_paced","0","","","","","","","","","",""
"","instructions","4","43237","0.0-4.0","SS1627326800508","[{""page_index"":0,""viewing_time"":2489.0999999998603}]","2489.5999999998603","instructions","","","","","","","","","","","","","","","","","",""
"","stimuli-presentation","5","47631","0.0-5.0","SS1627326800508","","3886.399999999907","","","40","500","4386.399999999907","null","null","forced_short","500","","","","","","","","","",""
"","stimuli-presentation","6","50199","0.0-6.0","SS1627326800508","","2060.7000000001863","","","40","500","2560.7000000001863","null","null","forced_short","500","","","","","","","","","",""
"","instructions","7","56827","0.0-7.0","SS1627326800508","[{""page_index"":0,""viewing_time"":6625.5}]","6625.90000000014","instructions","","","","","","","","","","","","","","","","","",""
"","survey-multi-choice","8","61122","0.0-8.0","SS1627326800508","","4284.800000000047","memory_test_practice","","","","","","","","","{""Q0"":""Yes""}","[0]","images/practice/instructions_example_spore2.gif","0","","","","","",""
"","survey-multi-choice","9","64095","0.0-9.0","SS1627326800508","","2963.8000000000466","memory_test_practice","","","","","","","","","{""Q0"":""No""}","[0]","images/practice/instructions_example_spore0.gif","0","","","","","",""
"","instructions","10","71831","0.0-10.0","SS1627326800508","[{""page_index"":0,""viewing_time"":7048.40000000014},{""page_index"":1,""viewing_time"":679.6999999999534}]","7728.5","instructions","","","","","","","","","","","","","","","","","",""
"","html-keyboard-response","11","72692","0.0-11.0-0.0","SS1627326800508","","null","","","null","","","","","","","","","","","<p><img src= images/blank.png width =""600"" height = ""600"" style=""position:fixed;top:50%; left:50%; transform: translate(-50%, -50%); border:5px solid black"">","","","","",""
"","stimuli-presentation","12","75500","0.0-11.0-1.0","SS1627326800508","","2004.2000000001863","trial","","40","500","2504.2000000001863","images/stimuli/complex_04_A_a.gif","images/stimuli/complex_02_A_a.gif","forced_short","790","","","","","","0","complex_dissimilar","images/stimuli/complex_02_A_a.gif","",""
"","html-keyboard-response","13","76348","0.0-11.0-0.1","SS1627326800508","","null","","","null","","","","","","","","","","","<p><img src= images/blank.png width =""600"" height = ""600"" style=""position:fixed;top:50%; left:50%; transform: translate(-50%, -50%); border:5px solid black"">","","","","",""
"","stimuli-presentation","14","78458","0.0-11.0-1.1","SS1627326800508","","1601.3000000000466","trial","","40","500","2101.3000000000466","images/stimuli/complex_04_A_a.gif","images/stimuli/complex_02_A_a.gif","forced_short","790","","","","","","0","complex_dissimilar","images/stimuli/complex_02_A_a.gif","",""
"","html-keyboard-response","15","79453","0.0-11.0-0.2","SS1627326800508","","null","","","null","","","","","","","","","","","<p><img src= images/blank.png width =""600"" height = ""600"" style=""position:fixed;top:50%; left:50%; transform: translate(-50%, -50%); border:5px solid black"">","","","","",""
"","stimuli-presentation","16","83506","0.0-11.0-1.2","SS1627326800508","","3544.4000000001397","trial","","40","500","4044.4000000001397","images/stimuli/complex_04_A_a.gif","images/stimuli/complex_02_A_a.gif","forced_short","790","","","","","","0","complex_dissimilar","images/stimuli/complex_02_A_a.gif","",""
"","html-keyboard-response","17","84583","0.0-11.0-0.3","SS1627326800508","","null","","","null","","","","","","","","","","","<p><img src= images/blank.png width =""600"" height = ""600"" style=""position:fixed;top:50%; left:50%; transform: translate(-50%, -50%); border:5px solid black"">","","","","",""
"","stimuli-presentation","18","95998","0.0-11.0-1.3","SS1627326800508","","10901.800000000047","trial","","40","500","11401.800000000047","images/stimuli/complex_04_A_a.gif","images/stimuli/complex_02_A_a.gif","forced_short","790","","","","","","0","complex_dissimilar","images/stimuli/complex_02_A_a.gif","",""
"","html-keyboard-response","19","97015","0.0-11.0-0.4","SS1627326800508","","null","","","null","","","","","","","","","","","<p><img src= images/blank.png width =""600"" height = ""600"" style=""position:fixed;top:50%; left:50%; transform: translate(-50%, -50%); border:5px solid black"">","","","","",""
"","stimuli-presentation","20","98010","0.0-11.0-1.4","SS1627326800508","","471.89999999990687","trial","","40","500","971.8999999999069","images/stimuli/complex_04_A_a.gif","images/stimuli/complex_02_A_a.gif","forced_short","790","","","","","","0","complex_dissimilar","images/stimuli/complex_02_A_a.gif","",""
"","html-keyboard-response","21","99255","0.0-11.0-0.5","SS1627326800508","","null","","","null","","","","","","","","","","","<p><img src= images/blank.png width =""600"" height = ""600"" style=""position:fixed;top:50%; left:50%; transform: translate(-50%, -50%); border:5px solid black"">","","","","",""
"","stimuli-presentation","22","100092","0.0-11.0-1.5","SS1627326800508","","328.29999999981374","trial","","40","500","828.2999999998137","images/stimuli/complex_04_A_a.gif","images/stimuli/complex_02_A_a.gif","forced_short","790","","","","","","0","complex_dissimilar","images/stimuli/complex_02_A_a.gif","",""
"","html-keyboard-response","23","100946","0.0-11.0-0.6","SS1627326800508","","null","","","null","","","","","","","","","","","<p><img src= images/blank.png width =""600"" height = ""600"" style=""position:fixed;top:50%; left:50%; transform: translate(-50%, -50%); border:5px solid black"">","","","","",""
"","stimuli-presentation","24","108005","0.0-11.0-1.6","SS1627326800508","","6553.5","trial","","40","500","7053.5","images/stimuli/complex_04_A_a.gif","images/stimuli/complex_02_A_a.gif","forced_short","790","","","","","","0","complex_dissimilar","images/stimuli/complex_02_A_a.gif","",""
"","survey-multi-choice","25","111667","0.0-12.0","SS1627326800508","","3657.6999999999534","memory_test","","","","","","","","","{""Q0"":""No""}","[0]","images/stimuli/complex_23_A_a.gif","0","","","","","",""
"","survey-multi-choice","26","113582","0.0-13.0","SS1627326800508","","1906.4000000001397","memory_test","","","","","","","","","{""Q0"":""Yes""}","[0]","images/stimuli/complex_02_A_a.gif","0","","","","","",""
"","html-keyboard-response","27","114455","0.0-14.0-0.0","SS1627326800508","","null","","","null","","","","","","","","","","","<p><img src= images/blank.png width =""600"" height = ""600"" style=""position:fixed;top:50%; left:50%; transform: translate(-50%, -50%); border:5px solid black"">","","","","",""
"","stimuli-presentation","28","117850","0.0-14.0-1.0","SS1627326800508","","3078","trial","","40","500","3578","images/stimuli/complex_16_A_b.gif","images/stimuli/complex_20_A_b.gif","forced_short","300","","","","","","1","complex_dissimilar","images/stimuli/complex_20_A_b.gif","",""
"","html-keyboard-response","29","119137","0.0-14.0-0.1","SS1627326800508","","null","","","null","","","","","","","","","","","<p><img src= images/blank.png width =""600"" height = ""600"" style=""position:fixed;top:50%; left:50%; transform: translate(-50%, -50%); border:5px solid black"">","","","","",""
"","stimuli-presentation","30","122739","0.0-14.0-1.1","SS1627326800508","","3093.6999999999534","trial","","40","500","3593.6999999999534","images/stimuli/complex_16_A_b.gif","images/stimuli/complex_20_A_b.gif","forced_short","300","","","","","","1","complex_dissimilar","images/stimuli/complex_20_A_b.gif","",""
"","html-keyboard-response","31","123618","0.0-14.0-0.2","SS1627326800508","","null","","","null","","","","","","","","","","","<p><img src= images/blank.png width =""600"" height = ""600"" style=""position:fixed;top:50%; left:50%; transform: translate(-50%, -50%); border:5px solid black"">","","","","",""
"","stimuli-presentation","32","124231","0.0-14.0-1.2","SS1627326800508","","102.69999999995343","trial","","40","500","602.6999999999534","images/stimuli/complex_16_A_b.gif","images/stimuli/complex_20_A_b.gif","forced_short","300","","","","","","1","complex_dissimilar","images/stimuli/complex_20_A_b.gif","",""
"","html-keyboard-response","33","125508","0.0-14.0-0.3","SS1627326800508","","null","","","null","","","","","","","","","","","<p><img src= images/blank.png width =""600"" height = ""600"" style=""position:fixed;top:50%; left:50%; transform: translate(-50%, -50%); border:5px solid black"">","","","","",""
"","stimuli-presentation","34","126079","0.0-14.0-1.3","SS1627326800508","","57.300000000046566","trial","","40","500","557.3000000000466","images/stimuli/complex_16_A_b.gif","images/stimuli/complex_20_A_b.gif","forced_short","300","","","","","","1","complex_dissimilar","images/stimuli/complex_20_A_b.gif","",""
"","html-keyboard-response","35","126909","0.0-14.0-0.4","SS1627326800508","","null","","","null","","","","","","","","","","","<p><img src= images/blank.png width =""600"" height = ""600"" style=""position:fixed;top:50%; left:50%; transform: translate(-50%, -50%); border:5px solid black"">","","","","",""
"","stimuli-presentation","36","128796","0.0-14.0-1.4","SS1627326800508","","1380","trial","","40","500","1880","images/stimuli/complex_16_A_b.gif","images/stimuli/complex_20_A_b.gif","forced_short","300","","","","","","1","complex_dissimilar","images/stimuli/complex_20_A_b.gif","",""
"","html-keyboard-response","37","129971","0.0-14.0-0.5","SS1627326800508","","null","","","null","","","","","","","","","","","<p><img src= images/blank.png width =""600"" height = ""600"" style=""position:fixed;top:50%; left:50%; transform: translate(-50%, -50%); border:5px solid black"">","","","","",""
"","stimuli-presentation","38","133312","0.0-14.0-1.5","SS1627326800508","","2833.1999999999534","trial","","40","500","3333.1999999999534","images/stimuli/complex_16_A_b.gif","images/stimuli/complex_20_A_b.gif","forced_short","300","","","","","","1","complex_dissimilar","images/stimuli/complex_16_A_b.gif","",""
"","html-keyboard-response","39","134140","0.0-14.0-0.6","SS1627326800508","","null","","","null","","","","","","","","","","","<p><img src= images/blank.png width =""600"" height = ""600"" style=""position:fixed;top:50%; left:50%; transform: translate(-50%, -50%); border:5px solid black"">","","","","",""
"","stimuli-presentation","40","135508","0.0-14.0-1.6","SS1627326800508","","854.3000000000466","trial","","40","500","1354.3000000000466","images/stimuli/complex_16_A_b.gif","images/stimuli/complex_20_A_b.gif","forced_short","300","","","","","","1","complex_dissimilar","images/stimuli/complex_16_A_b.gif","",""
"","survey-multi-choice","41","137992","0.0-15.0","SS1627326800508","","2478.6999999999534","memory_test","","","","","","","","","{""Q0"":""No""}","[0]","images/stimuli/complex_19_A_b.gif","1","","","","","",""
"","survey-multi-choice","42","139669","0.0-16.0","SS1627326800508","","1667.8999999999069","memory_test","","","","","","","","","{""Q0"":""Yes""}","[0]","images/stimuli/complex_20_A_b.gif","1","","","","","",""
"","html-keyboard-response","43","140863","0.0-17.0-0.0","SS1627326800508","","null","","","null","","","","","","","","","","","<p><img src= images/blank.png width =""600"" height = ""600"" style=""position:fixed;top:50%; left:50%; transform: translate(-50%, -50%); border:5px solid black"">","","","","",""
"","stimuli-presentation","44","146205","0.0-17.0-1.0","SS1627326800508","","4474.899999999907","trial","","40","500","4974.899999999907","images/stimuli/complex_18_A_a.gif","images/stimuli/complex_14_A_b.gif","forced_short","860","","","","","","2","complex_dissimilar","images/stimuli/complex_14_A_b.gif","",""
"","html-keyboard-response","45","147117","0.0-17.0-0.1","SS1627326800508","","null","","","null","","","","","","","","","","","<p><img src= images/blank.png width =""600"" height = ""600"" style=""position:fixed;top:50%; left:50%; transform: translate(-50%, -50%); border:5px solid black"">","","","","",""
"","stimuli-presentation","46","149537","0.0-17.0-1.1","SS1627326800508","","1910.5","trial","","40","500","2410.5","images/stimuli/complex_18_A_a.gif","images/stimuli/complex_14_A_b.gif","forced_short","860","","","","","","2","complex_dissimilar","images/stimuli/complex_18_A_a.gif","",""
"","html-keyboard-response","47","150412","0.0-17.0-0.2","SS1627326800508","","null","","","null","","","","","","","","","","","<p><img src= images/blank.png width =""600"" height = ""600"" style=""position:fixed;top:50%; left:50%; transform: translate(-50%, -50%); border:5px solid black"">","","","","",""
"","stimuli-presentation","48","151744","0.0-17.0-1.2","SS1627326800508","","822.8999999999069","trial","","40","500","1322.8999999999069","images/stimuli/complex_18_A_a.gif","images/stimuli/complex_14_A_b.gif","forced_short","860","","","","","","2","complex_dissimilar","images/stimuli/complex_14_A_b.gif","",""
"","html-keyboard-response","49","152812","0.0-17.0-0.3","SS1627326800508","","null","","","null","","","","","","","","","","","<p><img src= images/blank.png width =""600"" height = ""600"" style=""position:fixed;top:50%; left:50%; transform: translate(-50%, -50%); border:5px solid black"">","","","","",""
"","stimuli-presentation","50","154062","0.0-17.0-1.3","SS1627326800508","","732.7999999998137","trial","","40","500","1232.7999999998137","images/stimuli/complex_18_A_a.gif","images/stimuli/complex_14_A_b.gif","forced_short","860","","","","","","2","complex_dissimilar","images/stimuli/complex_14_A_b.gif","",""
"","html-keyboard-response","51","155276","0.0-17.0-0.4","SS1627326800508","","null","","","null","","","","","","","","","","","<p><img src= images/blank.png width =""600"" height = ""600"" style=""position:fixed;top:50%; left:50%; transform: translate(-50%, -50%); border:5px solid black"">","","","","",""
"","stimuli-presentation","52","156019","0.0-17.0-1.4","SS1627326800508","","230.69999999995343","trial","","40","500","730.6999999999534","images/stimuli/complex_18_A_a.gif","images/stimuli/complex_14_A_b.gif","forced_short","860","","","","","","2","complex_dissimilar","images/stimuli/complex_14_A_b.gif","",""
"","html-keyboard-response","53","156828","0.0-17.0-0.5","SS1627326800508","","null","","","null","","","","","","","","","","","<p><img src= images/blank.png width =""600"" height = ""600"" style=""position:fixed;top:50%; left:50%; transform: translate(-50%, -50%); border:5px solid black"">","","","","",""
"","stimuli-presentation","54","157481","0.0-17.0-1.5","SS1627326800508","","144.5","trial","","40","500","644.5","images/stimuli/complex_18_A_a.gif","images/stimuli/complex_14_A_b.gif","forced_short","860","","","","","","2","complex_dissimilar","images/stimuli/complex_14_A_b.gif","",""
"","html-keyboard-response","55","158371","0.0-17.0-0.6","SS1627326800508","","null","","","null","","","","","","","","","","","<p><img src= images/blank.png width =""600"" height = ""600"" style=""position:fixed;top:50%; left:50%; transform: translate(-50%, -50%); border:5px solid black"">","","","","",""
"","stimuli-presentation","56","159527","0.0-17.0-1.6","SS1627326800508","","647.7999999998137","trial","","40","500","1147.7999999998137","images/stimuli/complex_18_A_a.gif","images/stimuli/complex_14_A_b.gif","forced_short","860","","","","","","2","complex_dissimilar","images/stimuli/complex_14_A_b.gif","",""
"","html-keyboard-response","57","160568","0.0-17.0-0.7","SS1627326800508","","null","","","null","","","","","","","","","","","<p><img src= images/blank.png width =""600"" height = ""600"" style=""position:fixed;top:50%; left:50%; transform: translate(-50%, -50%); border:5px solid black"">","","","","",""
"","stimuli-presentation","58","161114","0.0-17.0-1.7","SS1627326800508","","31","trial","","40","500","531","images/stimuli/complex_18_A_a.gif","images/stimuli/complex_14_A_b.gif","forced_short","860","","","","","","2","complex_dissimilar","images/stimuli/complex_14_A_b.gif","",""
"","survey-multi-choice","59","164029","0.0-18.0","SS1627326800508","","2909","memory_test","","","","","","","","","{""Q0"":""No""}","[0]","images/stimuli/complex_07_A_a.gif","2","","","","","",""
"","survey-multi-choice","60","166191","0.0-19.0","SS1627326800508","","2152.7999999998137","memory_test","","","","","","","","","{""Q0"":""Yes""}","[0]","images/stimuli/complex_18_A_a.gif","2","","","","","",""
"","html-keyboard-response","61","167462","0.0-20.0-0.0","SS1627326800508","","null","","","null","","","","","","","","","","","<p><img src= images/blank.png width =""600"" height = ""600"" style=""position:fixed;top:50%; left:50%; transform: translate(-50%, -50%); border:5px solid black"">","","","","",""
"","stimuli-presentation","62","171625","0.0-20.0-1.0","SS1627326800508","","3972.5","trial","","40","500","4472.5","images/stimuli/complex_22_A_a.gif","images/stimuli/complex_09_A_b.gif","forced_short","180","","","","","","3","complex_dissimilar","images/stimuli/complex_09_A_b.gif","",""
"","html-keyboard-response","63","172554","0.0-20.0-0.1","SS1627326800508","","null","","","null","","","","","","","","","","","<p><img src= images/blank.png width =""600"" height = ""600"" style=""position:fixed;top:50%; left:50%; transform: translate(-50%, -50%); border:5px solid black"">","","","","",""
"","stimuli-presentation","64","174023","0.0-20.0-1.1","SS1627326800508","","960.8000000000466","trial","","40","500","1460.8000000000466","images/stimuli/complex_22_A_a.gif","images/stimuli/complex_09_A_b.gif","forced_short","180","","","","","","3","complex_dissimilar","images/stimuli/complex_09_A_b.gif","",""
"","html-keyboard-response","65","175003","0.0-20.0-0.2","SS1627326800508","","null","","","null","","","","","","","","","","","<p><img src= images/blank.png width =""600"" height = ""600"" style=""position:fixed;top:50%; left:50%; transform: translate(-50%, -50%); border:5px solid black"">","","","","",""
"","stimuli-presentation","66","176446","0.0-20.0-1.2","SS1627326800508","","932.7999999998137","trial","","40","500","1432.7999999998137","images/stimuli/complex_22_A_a.gif","images/stimuli/complex_09_A_b.gif","forced_short","180","","","","","","3","complex_dissimilar","images/stimuli/complex_09_A_b.gif","",""
"","html-keyboard-response","67","177458","0.0-20.0-0.3","SS1627326800508","","null","","","null","","","","","","","","","","","<p><img src= images/blank.png width =""600"" height = ""600"" style=""position:fixed;top:50%; left:50%; transform: translate(-50%, -50%); border:5px solid black"">","","","","",""
"","stimuli-presentation","68","177980","0.0-20.0-1.3","SS1627326800508","","10.200000000186265","trial","","40","500","510.20000000018626","images/stimuli/complex_22_A_a.gif","images/stimuli/complex_09_A_b.gif","forced_short","180","","","","","","3","complex_dissimilar","images/stimuli/complex_09_A_b.gif","",""
"","html-keyboard-response","69","178978","0.0-20.0-0.4","SS1627326800508","","null","","","null","","","","","","","","","","","<p><img src= images/blank.png width =""600"" height = ""600"" style=""position:fixed;top:50%; left:50%; transform: translate(-50%, -50%); border:5px solid black"">","","","","",""
"","stimuli-presentation","70","180939","0.0-20.0-1.4","SS1627326800508","","1444.8000000000466","trial","","40","500","1944.8000000000466","images/stimuli/complex_22_A_a.gif","images/stimuli/complex_09_A_b.gif","forced_short","180","","","","","","3","complex_dissimilar","images/stimuli/complex_09_A_b.gif","",""
"","html-keyboard-response","71","182244","0.0-20.0-0.5","SS1627326800508","","null","","","null","","","","","","","","","","","<p><img src= images/blank.png width =""600"" height = ""600"" style=""position:fixed;top:50%; left:50%; transform: translate(-50%, -50%); border:5px solid black"">","","","","",""
"","stimuli-presentation","72","182966","0.0-20.0-1.5","SS1627326800508","","211.19999999995343","trial","","40","500","711.1999999999534","images/stimuli/complex_22_A_a.gif","images/stimuli/complex_09_A_b.gif","forced_short","180","","","","","","3","complex_dissimilar","images/stimuli/complex_09_A_b.gif","",""
"","html-keyboard-response","73","184218","0.0-20.0-0.6","SS1627326800508","","null","","","null","","","","","","","","","","","<p><img src= images/blank.png width =""600"" height = ""600"" style=""position:fixed;top:50%; left:50%; transform: translate(-50%, -50%); border:5px solid black"">","","","","",""
"","stimuli-presentation","74","186064","0.0-20.0-1.6","SS1627326800508","","1327.8000000000466","trial","","40","500","1827.8000000000466","images/stimuli/complex_22_A_a.gif","images/stimuli/complex_09_A_b.gif","forced_short","180","","","","","","3","complex_dissimilar","images/stimuli/complex_09_A_b.gif","",""
"","html-keyboard-response","75","186882","0.0-20.0-0.7","SS1627326800508","","null","","","null","","","","","","","","","","","<p><img src= images/blank.png width =""600"" height = ""600"" style=""position:fixed;top:50%; left:50%; transform: translate(-50%, -50%); border:5px solid black"">","","","","",""
"","stimuli-presentation","76","187911","0.0-20.0-1.7","SS1627326800508","","521.6999999999534","trial","","40","500","1021.6999999999534","images/stimuli/complex_22_A_a.gif","images/stimuli/complex_09_A_b.gif","forced_short","180","","","","","","3","complex_dissimilar","images/stimuli/complex_22_A_a.gif","",""
"","survey-multi-choice","77","191502","0.0-21.0","SS1627326800508","","3585.5999999998603","memory_test","","","","","","","","","{""Q0"":""Yes""}","[0]","images/stimuli/complex_09_A_b.gif","3","","","","","",""
"","survey-multi-choice","78","193920","0.0-22.0","SS1627326800508","","2408.6999999999534","memory_test","","","","","","","","","{""Q0"":""No""}","[0]","images/stimuli/complex_15_A_b.gif","3","","","","","",""
"","html-keyboard-response","79","195011","0.0-23.0-0.0","SS1627326800508","","null","","","null","","","","","","","","","","","<p><img src= images/blank.png width =""600"" height = ""600"" style=""position:fixed;top:50%; left:50%; transform: translate(-50%, -50%); border:5px solid black"">","","","","",""
"","stimuli-presentation","80","204955","0.0-23.0-1.0","SS1627326800508","","9027.5","trial","","40","500","9527.5","images/stimuli/complex_01_A_a.gif","images/stimuli/complex_06_A_b.gif","forced_short","900","","","","","","4","complex_dissimilar","images/stimuli/complex_06_A_b.gif","",""
"","html-keyboard-response","81","206002","0.0-23.0-0.1","SS1627326800508","","null","","","null","","","","","","","","","","","<p><img src= images/blank.png width =""600"" height = ""600"" style=""position:fixed;top:50%; left:50%; transform: translate(-50%, -50%); border:5px solid black"">","","","","",""
"","stimuli-presentation","82","207811","0.0-23.0-1.1","SS1627326800508","","1298.1000000000931","trial","","40","500","1798.1000000000931","images/stimuli/complex_01_A_a.gif","images/stimuli/complex_06_A_b.gif","forced_short","900","","","","","","4","complex_dissimilar","images/stimuli/complex_06_A_b.gif","",""
"","html-keyboard-response","83","208653","0.0-23.0-0.2","SS1627326800508","","null","","","null","","","","","","","","","","","<p><img src= images/blank.png width =""600"" height = ""600"" style=""position:fixed;top:50%; left:50%; transform: translate(-50%, -50%); border:5px solid black"">","","","","",""
"","stimuli-presentation","84","209333","0.0-23.0-1.2","SS1627326800508","","169.5","trial","","40","500","669.5","images/stimuli/complex_01_A_a.gif","images/stimuli/complex_06_A_b.gif","forced_short","900","","","","","","4","complex_dissimilar","images/stimuli/complex_06_A_b.gif","",""
"","html-keyboard-response","85","210215","0.0-23.0-0.3","SS1627326800508","","null","","","null","","","","","","","","","","","<p><img src= images/blank.png width =""600"" height = ""600"" style=""position:fixed;top:50%; left:50%; transform: translate(-50%, -50%); border:5px solid black"">","","","","",""
"","stimuli-presentation","86","211061","0.0-23.0-1.3","SS1627326800508","","337.89999999990687","trial","","40","500","837.8999999999069","images/stimuli/complex_01_A_a.gif","images/stimuli/complex_06_A_b.gif","forced_short","900","","","","","","4","complex_dissimilar","images/stimuli/complex_01_A_a.gif","",""
"","html-keyboard-response","87","212221","0.0-23.0-0.4","SS1627326800508","","null","","","null","","","","","","","","","","","<p><img src= images/blank.png width =""600"" height = ""600"" style=""position:fixed;top:50%; left:50%; transform: translate(-50%, -50%); border:5px solid black"">","","","","",""
"","stimuli-presentation","88","212867","0.0-23.0-1.4","SS1627326800508","","136.5999999998603","trial","","40","500","636.5999999998603","images/stimuli/complex_01_A_a.gif","images/stimuli/complex_06_A_b.gif","forced_short","900","","","","","","4","complex_dissimilar","images/stimuli/complex_06_A_b.gif","",""
"","html-keyboard-response","89","214096","0.0-23.0-0.5","SS1627326800508","","null","","","null","","","","","","","","","","","<p><img src= images/blank.png width =""600"" height = ""600"" style=""position:fixed;top:50%; left:50%; transform: translate(-50%, -50%); border:5px solid black"">","","","","",""
"","stimuli-presentation","90","215360","0.0-23.0-1.5","SS1627326800508","","747.5","trial","","40","500","1247.5","images/stimuli/complex_01_A_a.gif","images/stimuli/complex_06_A_b.gif","forced_short","900","","","","","","4","complex_dissimilar","images/stimuli/complex_06_A_b.gif","",""
"","html-keyboard-response","91","216515","0.0-23.0-0.6","SS1627326800508","","null","","","null","","","","","","","","","","","<p><img src= images/blank.png width =""600"" height = ""600"" style=""position:fixed;top:50%; left:50%; transform: translate(-50%, -50%); border:5px solid black"">","","","","",""
"","stimuli-presentation","92","217566","0.0-23.0-1.6","SS1627326800508","","539","trial","","40","500","1039","images/stimuli/complex_01_A_a.gif","images/stimuli/complex_06_A_b.gif","forced_short","900","","","","","","4","complex_dissimilar","images/stimuli/complex_06_A_b.gif","",""
"","html-keyboard-response","93","218384","0.0-23.0-0.7","SS1627326800508","","null","","","null","","","","","","","","","","","<p><img src= images/blank.png width =""600"" height = ""600"" style=""position:fixed;top:50%; left:50%; transform: translate(-50%, -50%); border:5px solid black"">","","","","",""
"","stimuli-presentation","94","219594","0.0-23.0-1.7","SS1627326800508","","697.0999999998603","trial","","40","500","1197.0999999998603","images/stimuli/complex_01_A_a.gif","images/stimuli/complex_06_A_b.gif","forced_short","900","","","","","","4","complex_dissimilar","images/stimuli/complex_06_A_b.gif","",""
"","survey-multi-choice","95","222158","0.0-24.0","SS1627326800508","","2559.100000000093","memory_test","","","","","","","","","{""Q0"":""No""}","[0]","images/stimuli/complex_13_A_a.gif","4","","","","","",""
"","survey-multi-choice","96","223985","0.0-25.0","SS1627326800508","","1816.0999999998603","memory_test","","","","","","","","","{""Q0"":""Yes""}","[0]","images/stimuli/complex_06_A_b.gif","4","","","","","",""
"","html-keyboard-response","97","225028","0.0-26.0-0.0","SS1627326800508","","null","","","null","","","","","","","","","","","<p><img src= images/blank.png width =""600"" height = ""600"" style=""position:fixed;top:50%; left:50%; transform: translate(-50%, -50%); border:5px solid black"">","","","","",""
"","stimuli-presentation","98","232723","0.0-26.0-1.0","SS1627326800508","","7550.59999999986","trial","","40","500","8050.59999999986","images/stimuli/complex_12_A_a.gif","images/stimuli/complex_05_A_a.gif","forced_short","130","","","","","","5","complex_dissimilar","images/stimuli/complex_05_A_a.gif","",""
"","html-keyboard-response","99","233703","0.0-26.0-0.1","SS1627326800508","","null","","","null","","","","","","","","","","","<p><img src= images/blank.png width =""600"" height = ""600"" style=""position:fixed;top:50%; left:50%; transform: translate(-50%, -50%); border:5px solid black"">","","","","",""
"","stimuli-presentation","100","238616","0.0-26.0-1.1","SS1627326800508","","4402.5","trial","","40","500","4902.5","images/stimuli/complex_12_A_a.gif","images/stimuli/complex_05_A_a.gif","forced_short","130","","","","","","5","complex_dissimilar","images/stimuli/complex_05_A_a.gif","",""
"","html-keyboard-response","101","239607","0.0-26.0-0.2","SS1627326800508","","null","","","null","","","","","","","","","","","<p><img src= images/blank.png width =""600"" height = ""600"" style=""position:fixed;top:50%; left:50%; transform: translate(-50%, -50%); border:5px solid black"">","","","","",""
"","stimuli-presentation","102","240536","0.0-26.0-1.2","SS1627326800508","","421.0999999998603","trial","","40","500","921.0999999998603","images/stimuli/complex_12_A_a.gif","images/stimuli/complex_05_A_a.gif","forced_short","130","","","","","","5","complex_dissimilar","images/stimuli/complex_05_A_a.gif","",""
"","html-keyboard-response","103","241350","0.0-26.0-0.3","SS1627326800508","","null","","","null","","","","","","","","","","","<p><img src= images/blank.png width =""600"" height = ""600"" style=""position:fixed;top:50%; left:50%; transform: translate(-50%, -50%); border:5px solid black"">","","","","",""
"","stimuli-presentation","104","241927","0.0-26.0-1.3","SS1627326800508","","69.79999999981374","trial","","40","500","569.7999999998137","images/stimuli/complex_12_A_a.gif","images/stimuli/complex_05_A_a.gif","forced_short","130","","","","","","5","complex_dissimilar","images/stimuli/complex_05_A_a.gif","",""
"","html-keyboard-response","105","242807","0.0-26.0-0.4","SS1627326800508","","null","","","null","","","","","","","","","","","<p><img src= images/blank.png width =""600"" height = ""600"" style=""position:fixed;top:50%; left:50%; transform: translate(-50%, -50%); border:5px solid black"">","","","","",""
"","stimuli-presentation","106","243979","0.0-26.0-1.4","SS1627326800508","","658.6000000000931","trial","","40","500","1158.6000000000931","images/stimuli/complex_12_A_a.gif","images/stimuli/complex_05_A_a.gif","forced_short","130","","","","","","5","complex_dissimilar","images/stimuli/complex_05_A_a.gif","",""
"","html-keyboard-response","107","245284","0.0-26.0-0.5","SS1627326800508","","null","","","null","","","","","","","","","","","<p><img src= images/blank.png width =""600"" height = ""600"" style=""position:fixed;top:50%; left:50%; transform: translate(-50%, -50%); border:5px solid black"">","","","","",""
"","stimuli-presentation","108","247232","0.0-26.0-1.5","SS1627326800508","","1437.8000000000466","trial","","40","500","1937.8000000000466","images/stimuli/complex_12_A_a.gif","images/stimuli/complex_05_A_a.gif","forced_short","130","","","","","","5","complex_dissimilar","images/stimuli/complex_12_A_a.gif","",""
"","html-keyboard-response","109","248207","0.0-26.0-0.6","SS1627326800508","","null","","","null","","","","","","","","","","","<p><img src= images/blank.png width =""600"" height = ""600"" style=""position:fixed;top:50%; left:50%; transform: translate(-50%, -50%); border:5px solid black"">","","","","",""
"","stimuli-presentation","110","249189","0.0-26.0-1.6","SS1627326800508","","472.9000000001397","trial","","40","500","972.9000000001397","images/stimuli/complex_12_A_a.gif","images/stimuli/complex_05_A_a.gif","forced_short","130","","","","","","5","complex_dissimilar","images/stimuli/complex_05_A_a.gif","",""
"","html-keyboard-response","111","250186","0.0-26.0-0.7","SS1627326800508","","null","","","null","","","","","","","","","","","<p><img src= images/blank.png width =""600"" height = ""600"" style=""position:fixed;top:50%; left:50%; transform: translate(-50%, -50%); border:5px solid black"">","","","","",""
"","stimuli-presentation","112","251202","0.0-26.0-1.7","SS1627326800508","","498.5","trial","","40","500","998.5","images/stimuli/complex_12_A_a.gif","images/stimuli/complex_05_A_a.gif","forced_short","130","","","","","","5","complex_dissimilar","images/stimuli/complex_05_A_a.gif","",""
"","survey-multi-choice","113","254837","0.0-27.0","SS1627326800508","","3629.899999999907","memory_test","","","","","","","","","{""Q0"":""No""}","[0]","images/stimuli/complex_08_A_b.gif","5","","","","","",""
"","survey-multi-choice","114","257249","0.0-28.0","SS1627326800508","","2400.6999999999534","memory_test","","","","","","","","","{""Q0"":""Yes""}","[0]","images/stimuli/complex_05_A_a.gif","5","","","","","",""
"","html-keyboard-response","115","258253","0.0-29.0-0.0","SS1627326800508","","null","","","null","","","","","","","","","","","<p><img src= images/blank.png width =""600"" height = ""600"" style=""position:fixed;top:50%; left:50%; transform: translate(-50%, -50%); border:5px solid black"">","","","","",""
"","stimuli-presentation","116","263955","0.0-29.0-1.0","SS1627326800508","","5518.100000000093","trial","","40","500","6018.100000000093","images/stimuli/complex_03_A_b.gif","images/stimuli/complex_17_A_a.gif","forced_short","160","","","","","","6","complex_dissimilar","images/stimuli/complex_17_A_a.gif","",""
"","html-keyboard-response","117","264778","0.0-29.0-0.1","SS1627326800508","","null","","","null","","","","","","","","","","","<p><img src= images/blank.png width =""600"" height = ""600"" style=""position:fixed;top:50%; left:50%; transform: translate(-50%, -50%); border:5px solid black"">","","","","",""
"","stimuli-presentation","118","267697","0.0-29.0-1.1","SS1627326800508","","2403.6999999999534","trial","","40","500","2903.6999999999534","images/stimuli/complex_03_A_b.gif","images/stimuli/complex_17_A_a.gif","forced_short","160","","","","","","6","complex_dissimilar","images/stimuli/complex_17_A_a.gif","",""
"","html-keyboard-response","119","268528","0.0-29.0-0.2","SS1627326800508","","null","","","null","","","","","","","","","","","<p><img src= images/blank.png width =""600"" height = ""600"" style=""position:fixed;top:50%; left:50%; transform: translate(-50%, -50%); border:5px solid black"">","","","","",""
"","stimuli-presentation","120","269289","0.0-29.0-1.2","SS1627326800508","","246.10000000009313","trial","","40","500","746.1000000000931","images/stimuli/complex_03_A_b.gif","images/stimuli/complex_17_A_a.gif","forced_short","160","","","","","","6","complex_dissimilar","images/stimuli/complex_03_A_b.gif","",""
"","html-keyboard-response","121","270242","0.0-29.0-0.3","SS1627326800508","","null","","","null","","","","","","","","","","","<p><img src= images/blank.png width =""600"" height = ""600"" style=""position:fixed;top:50%; left:50%; transform: translate(-50%, -50%); border:5px solid black"">","","","","",""
"","stimuli-presentation","122","271266","0.0-29.0-1.3","SS1627326800508","","507.0999999998603","trial","","40","500","1007.0999999998603","images/stimuli/complex_03_A_b.gif","images/stimuli/complex_17_A_a.gif","forced_short","160","","","","","","6","complex_dissimilar","images/stimuli/complex_17_A_a.gif","",""
"","html-keyboard-response","123","272385","0.0-29.0-0.4","SS1627326800508","","null","","","null","","","","","","","","","","","<p><img src= images/blank.png width =""600"" height = ""600"" style=""position:fixed;top:50%; left:50%; transform: translate(-50%, -50%); border:5px solid black"">","","","","",""
"","stimuli-presentation","124","273082","0.0-29.0-1.4","SS1627326800508","","182.20000000018626","trial","","40","500","682.2000000001863","images/stimuli/complex_03_A_b.gif","images/stimuli/complex_17_A_a.gif","forced_short","160","","","","","","6","complex_dissimilar","images/stimuli/complex_17_A_a.gif","",""
"","html-keyboard-response","125","274163","0.0-29.0-0.5","SS1627326800508","","null","","","null","","","","","","","","","","","<p><img src= images/blank.png width =""600"" height = ""600"" style=""position:fixed;top:50%; left:50%; transform: translate(-50%, -50%); border:5px solid black"">","","","","",""
"","stimuli-presentation","126","274919","0.0-29.0-1.5","SS1627326800508","","243.19999999995343","trial","","40","500","743.1999999999534","images/stimuli/complex_03_A_b.gif","images/stimuli/complex_17_A_a.gif","forced_short","160","","","","","","6","complex_dissimilar","images/stimuli/complex_17_A_a.gif","",""
"","html-keyboard-response","127","275839","0.0-29.0-0.6","SS1627326800508","","null","","","null","","","","","","","","","","","<p><img src= images/blank.png width =""600"" height = ""600"" style=""position:fixed;top:50%; left:50%; transform: translate(-50%, -50%); border:5px solid black"">","","","","",""
"","stimuli-presentation","128","276626","0.0-29.0-1.6","SS1627326800508","","265.29999999981374","trial","","40","500","765.2999999998137","images/stimuli/complex_03_A_b.gif","images/stimuli/complex_17_A_a.gif","forced_short","160","","","","","","6","complex_dissimilar","images/stimuli/complex_03_A_b.gif","",""
"","html-keyboard-response","129","277925","0.0-29.0-0.7","SS1627326800508","","null","","","null","","","","","","","","","","","<p><img src= images/blank.png width =""600"" height = ""600"" style=""position:fixed;top:50%; left:50%; transform: translate(-50%, -50%); border:5px solid black"">","","","","",""
"","stimuli-presentation","130","278688","0.0-29.0-1.7","SS1627326800508","","253.5999999998603","trial","","40","500","753.5999999998603","images/stimuli/complex_03_A_b.gif","images/stimuli/complex_17_A_a.gif","forced_short","160","","","","","","6","complex_dissimilar","images/stimuli/complex_17_A_a.gif","",""
"","survey-multi-choice","131","282189","0.0-30.0","SS1627326800508","","3493","memory_test","","","","","","","","","{""Q0"":""No""}","[0]","images/stimuli/complex_21_A_b.gif","6","","","","","",""
"","survey-multi-choice","132","283825","0.0-31.0","SS1627326800508","","1624.8000000000466","memory_test","","","","","","","","","{""Q0"":""Yes""}","[0]","images/stimuli/complex_03_A_b.gif","6","","","","","",""
"","html-keyboard-response","133","284728","0.0-32.0-0.0","SS1627326800508","","null","","","null","","","","","","","","","","","<p><img src= images/blank.png width =""600"" height = ""600"" style=""position:fixed;top:50%; left:50%; transform: translate(-50%, -50%); border:5px solid black"">","","","","",""
"","stimuli-presentation","134","286437","0.0-32.0-1.0","SS1627326800508","","1348.3999999999069","trial","","40","500","1848.3999999999069","images/stimuli/complex_10_A_a.gif","images/stimuli/complex_24_A_a.gif","forced_short","350","","","","","","7","complex_dissimilar","images/stimuli/complex_24_A_a.gif","",""
"","html-keyboard-response","135","287513","0.0-32.0-0.1","SS1627326800508","","null","","","null","","","","","","","","","","","<p><img src= images/blank.png width =""600"" height = ""600"" style=""position:fixed;top:50%; left:50%; transform: translate(-50%, -50%); border:5px solid black"">","","","","",""
"","stimuli-presentation","136","288443","0.0-32.0-1.1","SS1627326800508","","422.5999999998603","trial","","40","500","922.5999999998603","images/stimuli/complex_10_A_a.gif","images/stimuli/complex_24_A_a.gif","forced_short","350","","","","","","7","complex_dissimilar","images/stimuli/complex_24_A_a.gif","",""
"","html-keyboard-response","137","289654","0.0-32.0-0.2","SS1627326800508","","null","","","null","","","","","","","","","","","<p><img src= images/blank.png width =""600"" height = ""600"" style=""position:fixed;top:50%; left:50%; transform: translate(-50%, -50%); border:5px solid black"">","","","","",""
"","stimuli-presentation","138","290946","0.0-32.0-1.2","SS1627326800508","","779.5","trial","","40","500","1279.5","images/stimuli/complex_10_A_a.gif","images/stimuli/complex_24_A_a.gif","forced_short","350","","","","","","7","complex_dissimilar","images/stimuli/complex_24_A_a.gif","",""
"","html-keyboard-response","139","292249","0.0-32.0-0.3","SS1627326800508","","null","","","null","","","","","","","","","","","<p><img src= images/blank.png width =""600"" height = ""600"" style=""position:fixed;top:50%; left:50%; transform: translate(-50%, -50%); border:5px solid black"">","","","","",""
"","stimuli-presentation","140","293624","0.0-32.0-1.3","SS1627326800508","","861.1000000000931","trial","","40","500","1361.1000000000931","images/stimuli/complex_10_A_a.gif","images/stimuli/complex_24_A_a.gif","forced_short","350","","","","","","7","complex_dissimilar","images/stimuli/complex_24_A_a.gif","",""
"","html-keyboard-response","141","294916","0.0-32.0-0.4","SS1627326800508","","null","","","null","","","","","","","","","","","<p><img src= images/blank.png width =""600"" height = ""600"" style=""position:fixed;top:50%; left:50%; transform: translate(-50%, -50%); border:5px solid black"">","","","","",""
"","stimuli-presentation","142","295790","0.0-32.0-1.4","SS1627326800508","","364.19999999995343","trial","","40","500","864.1999999999534","images/stimuli/complex_10_A_a.gif","images/stimuli/complex_24_A_a.gif","forced_short","350","","","","","","7","complex_dissimilar","images/stimuli/complex_24_A_a.gif","",""
"","html-keyboard-response","143","296896","0.0-32.0-0.5","SS1627326800508","","null","","","null","","","","","","","","","","","<p><img src= images/blank.png width =""600"" height = ""600"" style=""position:fixed;top:50%; left:50%; transform: translate(-50%, -50%); border:5px solid black"">","","","","",""
"","stimuli-presentation","144","297593","0.0-32.0-1.5","SS1627326800508","","182.30000000004657","trial","","40","500","682.3000000000466","images/stimuli/complex_10_A_a.gif","images/stimuli/complex_24_A_a.gif","forced_short","350","","","","","","7","complex_dissimilar","images/stimuli/complex_24_A_a.gif","",""
"","html-keyboard-response","145","298775","0.0-32.0-0.6","SS1627326800508","","null","","","null","","","","","","","","","","","<p><img src= images/blank.png width =""600"" height = ""600"" style=""position:fixed;top:50%; left:50%; transform: translate(-50%, -50%); border:5px solid black"">","","","","",""
"","stimuli-presentation","146","299805","0.0-32.0-1.6","SS1627326800508","","517.6999999999534","trial","","40","500","1017.6999999999534","images/stimuli/complex_10_A_a.gif","images/stimuli/complex_24_A_a.gif","forced_short","350","","","","","","7","complex_dissimilar","images/stimuli/complex_24_A_a.gif","",""
"","survey-multi-choice","147","302445","0.0-33.0","SS1627326800508","","2631","memory_test","","","","","","","","","{""Q0"":""No""}","[0]","images/stimuli/complex_11_A_a.gif","7","","","","","",""
"","survey-multi-choice","148","307780","0.0-34.0","SS1627326800508","","5323.699999999953","memory_test","","","","","","","","","{""Q0"":""No""}","[0]","images/stimuli/complex_24_A_a.gif","7","","","","","",""
"","instructions","149","311538","0.0-35.0","SS1627326800508","[{""page_index"":0,""viewing_time"":3747.6999999999534}]","3748.1999999999534","instructions","","","","","","","","","","","","","","","","","",""
"","survey-likert","150","321369","0.0-36.0","SS1627326800508","","9821.800000000047","similarity_question","","","","","","","","","{""Q0"":1}","[0]","","","","","","","images/stimuli/complex_22_A_a.gif","images/stimuli/complex_09_A_b.gif"
"","survey-likert","151","324307","0.0-37.0","SS1627326800508","","2925.2000000001863","similarity_question","","","","","","","","","{""Q0"":0}","[0]","","","","","","","images/stimuli/complex_03_A_b.gif","images/stimuli/complex_17_A_a.gif"
"","survey-likert","152","326293","0.0-38.0","SS1627326800508","","1975.1999999999534","similarity_question","","","","","","","","","{""Q0"":0}","[0]","","","","","","","images/stimuli/complex_06_A_b.gif","images/stimuli/complex_01_A_a.gif"
"","survey-likert","153","328380","0.0-39.0","SS1627326800508","","2074.8000000000466","similarity_question","","","","","","","","","{""Q0"":0}","[0]","","","","","","","images/stimuli/complex_18_A_a.gif","images/stimuli/complex_14_A_b.gif"
"","survey-likert","154","330437","0.0-40.0","SS1627326800508","","2044.5","similarity_question","","","","","","","","","{""Q0"":0}","[0]","","","","","","","images/stimuli/complex_12_A_a.gif","images/stimuli/complex_05_A_a.gif"
"","survey-likert","155","333215","0.0-41.0","SS1627326800508","","2767.3000000000466","similarity_question","","","","","","","","","{""Q0"":0}","[0]","","","","","","","images/stimuli/complex_02_A_a.gif","images/stimuli/complex_04_A_a.gif"
"","survey-likert","156","337644","0.0-42.0","SS1627326800508","","4418.699999999953","similarity_question","","","","","","","","","{""Q0"":4}","[0]","","","","","","","images/stimuli/complex_10_A_a.gif","images/stimuli/complex_24_A_a.gif"
"","survey-likert","157","343240","0.0-43.0","SS1627326800508","","5583.800000000047","similarity_question","","","","","","","","","{""Q0"":0}","[0]","","","","","","","images/stimuli/complex_20_A_b.gif","images/stimuli/complex_16_A_b.gif"
"","instructions","158","346878","0.0-44.0","SS1627326800508","[{""page_index"":0,""viewing_time"":3626.6999999999534}]","3627.399999999907","instructions","","","","","","","","","","","","","","","","","",""
"","survey-likert","159","353151","0.0-45.0","SS1627326800508","","6265.40000000014","","","","","","","","","","{""Q0"":4}","[0]","","","images/stimuli/complex_06_A_b.gif","","","","",""
"","survey-likert","160","360939","0.0-46.0","SS1627326800508","","7776.800000000047","","","","","","","","","","{""Q0"":4}","[0]","","","images/stimuli/complex_04_A_a.gif","","","","",""
"","survey-likert","161","363883","0.0-47.0","SS1627326800508","","2932.5999999998603","","","","","","","","","","{""Q0"":5}","[0]","","","images/stimuli/complex_05_A_a.gif","","","","",""
"","survey-likert","162","367486","0.0-48.0","SS1627326800508","","3591.5","","","","","","","","","","{""Q0"":3}","[0]","","","images/stimuli/complex_16_A_b.gif","","","","",""
"","survey-likert","163","371164","0.0-49.0","SS1627326800508","","3664.8000000000466","","","","","","","","","","{""Q0"":6}","[0]","","","images/stimuli/complex_18_A_a.gif","","","","",""
"","survey-likert","164","376105","0.0-50.0","SS1627326800508","","4928.40000000014","","","","","","","","","","{""Q0"":4}","[0]","","","images/stimuli/complex_17_A_a.gif","","","","",""
"","survey-likert","165","379014","0.0-51.0","SS1627326800508","","2895.5999999998603","","","","","","","","","","{""Q0"":1}","[0]","","","images/stimuli/complex_24_A_a.gif","","","","",""
"","survey-likert","166","381005","0.0-52.0","SS1627326800508","","1978.3999999999069","","","","","","","","","","{""Q0"":1}","[0]","","","images/stimuli/complex_09_A_b.gif","","","","",""
"true","fullscreen","167","382030","0.0-53.0","SS1627326800508","","","","","","","","","","","","","","","","","","","","",""
"","instructions","168","383672","0.0-54.0","SS1627326800508","[{""page_index"":0,""viewing_time"":1635.5999999998603}]","1636.0999999998603","instructions","","","","","","","","","","","","","","","","","",""
"","demog-age","169","386142","0.0-55.0","SS1627326800508","","2446.0999999998603","","","","","","","","","","{""age"":""32""}","","","","","","","","",""
"","demog-ethnic-US","170","390622","0.0-56.0","SS1627326800508","","4466.40000000014","","","","","","","","","","{""ethnicity"":[""White""]}","[0]","","","","","","","",""
"","demog-gender-and-education","171","398099","0.0-57.0","SS1627326800508","","7464.800000000047","","","","","","","","","","{""gender"":""Female"",""education"":""Bachelor's Degree""}","[0,1]","","","","","","","",""
"","survey-text","172","407657","0.0-58.0","SS1627326800508","","9536.90000000014","feedback","","","","","","","","","{""Q0"":""No issues""}","","","","","","","","",""
"","instructions","173","410461","0.0-59.0","SS1627326800508","[{""page_index"":0,""viewing_time"":2797.3000000000466}]","2797.9000000001397","instructions","","","","","","","","","","","","","","","","","",""
