"success","trial_type","trial_index","time_elapsed","internal_node_id","subject","view_history","rt","stimulus_type","trial_stimulus","key_press","minimum_viewing_duration","trial_looking_time","block_deviant","block_background","exposure_type","forced_exposure_time","responses","question_order","memory_question_stimuli","memory_block_index","stimulus","block_number","block_type","stimulus_displayed","stimulus_left","stimulus_right"
"true","fullscreen","0","5564","0.0-0.0","SS1627326596231","","","","","","","","","","","","","","","","","","","","",""
"","instructions","1","9089","0.0-1.0","SS1627326596231","[{""page_index"":0,""viewing_time"":3523.100000023842}]","3523.7000000476837","","","","","","","","","","","","","","","","","","",""
"","instructions","2","30081","0.0-2.0","SS1627326596231","[{""page_index"":0,""viewing_time"":10439.899999976158},{""page_index"":1,""viewing_time"":8536}]","18976.200000047684","instructions","","","","","","","","","","","","","","","","","",""
"","stimuli-presentation","3","42594","0.0-3.0","SS1627326596231","","12008.800000071526","","","40","500","12508.800000071526","null","null","self_paced","0","","","","","","","","","",""
"","instructions","4","51537","0.0-4.0","SS1627326596231","[{""page_index"":0,""viewing_time"":8941.399999976158}]","8941.700000047684","instructions","","","","","","","","","","","","","","","","","",""
"","stimuli-presentation","5","62169","0.0-5.0","SS1627326596231","","10118.5","","","40","500","10618.5","null","null","forced_short","500","","","","","","","","","",""
"","stimuli-presentation","6","66369","0.0-6.0","SS1627326596231","","3697.1999999284744","","","40","500","4197.199999928474","null","null","forced_short","500","","","","","","","","","",""
"","instructions","7","69081","0.0-7.0","SS1627326596231","[{""page_index"":0,""viewing_time"":2711.1999999284744}]","2711.5","instructions","","","","","","","","","","","","","","","","","",""
"","survey-multi-choice","8","72586","0.0-8.0","SS1627326596231","","3502.100000023842","memory_test_practice","","","","","","","","","{""Q0"":""Yes""}","[0]","images/practice/instructions_example_spore2.gif","0","","","","","",""
"","survey-multi-choice","9","76169","0.0-9.0","SS1627326596231","","3579.399999976158","memory_test_practice","","","","","","","","","{""Q0"":""No""}","[0]","images/practice/instructions_example_spore0.gif","0","","","","","",""
"","instructions","10","87073","0.0-10.0","SS1627326596231","[{""page_index"":0,""viewing_time"":9684.100000023842},{""page_index"":1,""viewing_time"":1216}]","10900.400000095367","instructions","","","","","","","","","","","","","","","","","",""
"","html-keyboard-response","11","87895","0.0-11.0-0.0","SS1627326596231","","null","","","null","","","","","","","","","","","<p><img src= images/blank.png width =""600"" height = ""600"" style=""position:fixed;top:50%; left:50%; transform: translate(-50%, -50%); border:5px solid black"">","","","","",""
"","stimuli-presentation","12","90282","0.0-11.0-1.0","SS1627326596231","","1530.7999999523163","trial","","40","500","2030.7999999523163","images/stimuli/complex_14_A_b.gif","images/stimuli/complex_17_A_a.gif","forced_short","840","","","","","","0","complex_dissimilar","images/stimuli/complex_17_A_a.gif","",""
"","html-keyboard-response","13","91178","0.0-11.0-0.1","SS1627326596231","","null","","","null","","","","","","","","","","","<p><img src= images/blank.png width =""600"" height = ""600"" style=""position:fixed;top:50%; left:50%; transform: translate(-50%, -50%); border:5px solid black"">","","","","",""
"","stimuli-presentation","14","102696","0.0-11.0-1.1","SS1627326596231","","11016.399999976158","trial","","40","500","11516.399999976158","images/stimuli/complex_14_A_b.gif","images/stimuli/complex_17_A_a.gif","forced_short","840","","","","","","0","complex_dissimilar","images/stimuli/complex_17_A_a.gif","",""
"","html-keyboard-response","15","103849","0.0-11.0-0.2","SS1627326596231","","null","","","null","","","","","","","","","","","<p><img src= images/blank.png width =""600"" height = ""600"" style=""position:fixed;top:50%; left:50%; transform: translate(-50%, -50%); border:5px solid black"">","","","","",""
"","stimuli-presentation","16","105643","0.0-11.0-1.2","SS1627326596231","","1290.1000000238419","trial","","40","500","1790.1000000238419","images/stimuli/complex_14_A_b.gif","images/stimuli/complex_17_A_a.gif","forced_short","840","","","","","","0","complex_dissimilar","images/stimuli/complex_17_A_a.gif","",""
"","html-keyboard-response","17","106610","0.0-11.0-0.3","SS1627326596231","","null","","","null","","","","","","","","","","","<p><img src= images/blank.png width =""600"" height = ""600"" style=""position:fixed;top:50%; left:50%; transform: translate(-50%, -50%); border:5px solid black"">","","","","",""
"","stimuli-presentation","18","110007","0.0-11.0-1.3","SS1627326596231","","2894.100000023842","trial","","40","500","3394.100000023842","images/stimuli/complex_14_A_b.gif","images/stimuli/complex_17_A_a.gif","forced_short","840","","","","","","0","complex_dissimilar","images/stimuli/complex_17_A_a.gif","",""
"","html-keyboard-response","19","111232","0.0-11.0-0.4","SS1627326596231","","null","","","null","","","","","","","","","","","<p><img src= images/blank.png width =""600"" height = ""600"" style=""position:fixed;top:50%; left:50%; transform: translate(-50%, -50%); border:5px solid black"">","","","","",""
"","stimuli-presentation","20","115353","0.0-11.0-1.4","SS1627326596231","","3617.4000000953674","trial","","40","500","4117.400000095367","images/stimuli/complex_14_A_b.gif","images/stimuli/complex_17_A_a.gif","forced_short","840","","","","","","0","complex_dissimilar","images/stimuli/complex_17_A_a.gif","",""
"","html-keyboard-response","21","116559","0.0-11.0-0.5","SS1627326596231","","null","","","null","","","","","","","","","","","<p><img src= images/blank.png width =""600"" height = ""600"" style=""position:fixed;top:50%; left:50%; transform: translate(-50%, -50%); border:5px solid black"">","","","","",""
"","stimuli-presentation","22","129388","0.0-11.0-1.5","SS1627326596231","","12325.899999976158","trial","","40","500","12825.899999976158","images/stimuli/complex_14_A_b.gif","images/stimuli/complex_17_A_a.gif","forced_short","840","","","","","","0","complex_dissimilar","images/stimuli/complex_17_A_a.gif","",""
"","html-keyboard-response","23","130301","0.0-11.0-0.6","SS1627326596231","","null","","","null","","","","","","","","","","","<p><img src= images/blank.png width =""600"" height = ""600"" style=""position:fixed;top:50%; left:50%; transform: translate(-50%, -50%); border:5px solid black"">","","","","",""
"","stimuli-presentation","24","133286","0.0-11.0-1.6","SS1627326596231","","2481.5999999046326","trial","","40","500","2981.5999999046326","images/stimuli/complex_14_A_b.gif","images/stimuli/complex_17_A_a.gif","forced_short","840","","","","","","0","complex_dissimilar","images/stimuli/complex_17_A_a.gif","",""
"","html-keyboard-response","25","134140","0.0-11.0-0.7","SS1627326596231","","null","","","null","","","","","","","","","","","<p><img src= images/blank.png width =""600"" height = ""600"" style=""position:fixed;top:50%; left:50%; transform: translate(-50%, -50%); border:5px solid black"">","","","","",""
"","stimuli-presentation","26","134736","0.0-11.0-1.7","SS1627326596231","","91.79999995231628","trial","","40","500","591.7999999523163","images/stimuli/complex_14_A_b.gif","images/stimuli/complex_17_A_a.gif","forced_short","840","","","","","","0","complex_dissimilar","images/stimuli/complex_17_A_a.gif","",""
"","survey-multi-choice","27","138393","0.0-12.0","SS1627326596231","","3655.600000023842","memory_test","","","","","","","","","{""Q0"":""No""}","[0]","images/stimuli/complex_10_A_a.gif","0","","","","","",""
"","survey-multi-choice","28","140801","0.0-13.0","SS1627326596231","","2403.600000023842","memory_test","","","","","","","","","{""Q0"":""Yes""}","[0]","images/stimuli/complex_17_A_a.gif","0","","","","","",""
"","html-keyboard-response","29","141818","0.0-14.0-0.0","SS1627326596231","","null","","","null","","","","","","","","","","","<p><img src= images/blank.png width =""600"" height = ""600"" style=""position:fixed;top:50%; left:50%; transform: translate(-50%, -50%); border:5px solid black"">","","","","",""
"","stimuli-presentation","30","147069","0.0-14.0-1.0","SS1627326596231","","4717.799999952316","trial","","40","500","5217.799999952316","images/stimuli/complex_21_A_a.gif","images/stimuli/complex_18_A_a.gif","forced_short","530","","","","","","1","complex_dissimilar","images/stimuli/complex_18_A_a.gif","",""
"","html-keyboard-response","31","148069","0.0-14.0-0.1","SS1627326596231","","null","","","null","","","","","","","","","","","<p><img src= images/blank.png width =""600"" height = ""600"" style=""position:fixed;top:50%; left:50%; transform: translate(-50%, -50%); border:5px solid black"">","","","","",""
"","stimuli-presentation","32","154931","0.0-14.0-1.1","SS1627326596231","","6358.600000023842","trial","","40","500","6858.600000023842","images/stimuli/complex_21_A_a.gif","images/stimuli/complex_18_A_a.gif","forced_short","530","","","","","","1","complex_dissimilar","images/stimuli/complex_18_A_a.gif","",""
"","html-keyboard-response","33","156181","0.0-14.0-0.2","SS1627326596231","","null","","","null","","","","","","","","","","","<p><img src= images/blank.png width =""600"" height = ""600"" style=""position:fixed;top:50%; left:50%; transform: translate(-50%, -50%); border:5px solid black"">","","","","",""
"","stimuli-presentation","34","162553","0.0-14.0-1.2","SS1627326596231","","5863.399999976158","trial","","40","500","6363.399999976158","images/stimuli/complex_21_A_a.gif","images/stimuli/complex_18_A_a.gif","forced_short","530","","","","","","1","complex_dissimilar","images/stimuli/complex_21_A_a.gif","",""
"","html-keyboard-response","35","163503","0.0-14.0-0.3","SS1627326596231","","null","","","null","","","","","","","","","","","<p><img src= images/blank.png width =""600"" height = ""600"" style=""position:fixed;top:50%; left:50%; transform: translate(-50%, -50%); border:5px solid black"">","","","","",""
"","stimuli-presentation","36","167179","0.0-14.0-1.3","SS1627326596231","","3167","trial","","40","500","3667","images/stimuli/complex_21_A_a.gif","images/stimuli/complex_18_A_a.gif","forced_short","530","","","","","","1","complex_dissimilar","images/stimuli/complex_18_A_a.gif","",""
"","html-keyboard-response","37","168344","0.0-14.0-0.4","SS1627326596231","","null","","","null","","","","","","","","","","","<p><img src= images/blank.png width =""600"" height = ""600"" style=""position:fixed;top:50%; left:50%; transform: translate(-50%, -50%); border:5px solid black"">","","","","",""
"","stimuli-presentation","38","171889","0.0-14.0-1.4","SS1627326596231","","3038.7999999523163","trial","","40","500","3538.7999999523163","images/stimuli/complex_21_A_a.gif","images/stimuli/complex_18_A_a.gif","forced_short","530","","","","","","1","complex_dissimilar","images/stimuli/complex_18_A_a.gif","",""
"","html-keyboard-response","39","172697","0.0-14.0-0.5","SS1627326596231","","null","","","null","","","","","","","","","","","<p><img src= images/blank.png width =""600"" height = ""600"" style=""position:fixed;top:50%; left:50%; transform: translate(-50%, -50%); border:5px solid black"">","","","","",""
"","stimuli-presentation","40","177981","0.0-14.0-1.5","SS1627326596231","","4780.800000071526","trial","","40","500","5280.800000071526","images/stimuli/complex_21_A_a.gif","images/stimuli/complex_18_A_a.gif","forced_short","530","","","","","","1","complex_dissimilar","images/stimuli/complex_21_A_a.gif","",""
"","html-keyboard-response","41","179239","0.0-14.0-0.6","SS1627326596231","","null","","","null","","","","","","","","","","","<p><img src= images/blank.png width =""600"" height = ""600"" style=""position:fixed;top:50%; left:50%; transform: translate(-50%, -50%); border:5px solid black"">","","","","",""
"","stimuli-presentation","42","182682","0.0-14.0-1.6","SS1627326596231","","2940","trial","","40","500","3440","images/stimuli/complex_21_A_a.gif","images/stimuli/complex_18_A_a.gif","forced_short","530","","","","","","1","complex_dissimilar","images/stimuli/complex_18_A_a.gif","",""
"","html-keyboard-response","43","183640","0.0-14.0-0.7","SS1627326596231","","null","","","null","","","","","","","","","","","<p><img src= images/blank.png width =""600"" height = ""600"" style=""position:fixed;top:50%; left:50%; transform: translate(-50%, -50%); border:5px solid black"">","","","","",""
"","stimuli-presentation","44","185884","0.0-14.0-1.7","SS1627326596231","","1741.7999999523163","trial","","40","500","2241.7999999523163","images/stimuli/complex_21_A_a.gif","images/stimuli/complex_18_A_a.gif","forced_short","530","","","","","","1","complex_dissimilar","images/stimuli/complex_18_A_a.gif","",""
"","survey-multi-choice","45","188313","0.0-15.0","SS1627326596231","","2426.600000023842","memory_test","","","","","","","","","{""Q0"":""Yes""}","[0]","images/stimuli/complex_18_A_a.gif","1","","","","","",""
"","survey-multi-choice","46","190465","0.0-16.0","SS1627326596231","","2146.899999976158","memory_test","","","","","","","","","{""Q0"":""No""}","[0]","images/stimuli/complex_22_A_b.gif","1","","","","","",""
"","html-keyboard-response","47","191719","0.0-17.0-0.0","SS1627326596231","","null","","","null","","","","","","","","","","","<p><img src= images/blank.png width =""600"" height = ""600"" style=""position:fixed;top:50%; left:50%; transform: translate(-50%, -50%); border:5px solid black"">","","","","",""
"","stimuli-presentation","48","193727","0.0-17.0-1.0","SS1627326596231","","1523.8999999761581","trial","","40","500","2023.8999999761581","images/stimuli/complex_16_A_b.gif","images/stimuli/complex_07_A_b.gif","forced_short","480","","","","","","2","complex_dissimilar","images/stimuli/complex_07_A_b.gif","",""
"","html-keyboard-response","49","194955","0.0-17.0-0.1","SS1627326596231","","null","","","null","","","","","","","","","","","<p><img src= images/blank.png width =""600"" height = ""600"" style=""position:fixed;top:50%; left:50%; transform: translate(-50%, -50%); border:5px solid black"">","","","","",""
"","stimuli-presentation","50","198390","0.0-17.0-1.1","SS1627326596231","","2932.100000023842","trial","","40","500","3432.100000023842","images/stimuli/complex_16_A_b.gif","images/stimuli/complex_07_A_b.gif","forced_short","480","","","","","","2","complex_dissimilar","images/stimuli/complex_16_A_b.gif","",""
"","html-keyboard-response","51","199605","0.0-17.0-0.2","SS1627326596231","","null","","","null","","","","","","","","","","","<p><img src= images/blank.png width =""600"" height = ""600"" style=""position:fixed;top:50%; left:50%; transform: translate(-50%, -50%); border:5px solid black"">","","","","",""
"","stimuli-presentation","52","204341","0.0-17.0-1.2","SS1627326596231","","4232.200000047684","trial","","40","500","4732.200000047684","images/stimuli/complex_16_A_b.gif","images/stimuli/complex_07_A_b.gif","forced_short","480","","","","","","2","complex_dissimilar","images/stimuli/complex_07_A_b.gif","",""
"","html-keyboard-response","53","205246","0.0-17.0-0.3","SS1627326596231","","null","","","null","","","","","","","","","","","<p><img src= images/blank.png width =""600"" height = ""600"" style=""position:fixed;top:50%; left:50%; transform: translate(-50%, -50%); border:5px solid black"">","","","","",""
"","stimuli-presentation","54","208423","0.0-17.0-1.3","SS1627326596231","","2663.7000000476837","trial","","40","500","3163.7000000476837","images/stimuli/complex_16_A_b.gif","images/stimuli/complex_07_A_b.gif","forced_short","480","","","","","","2","complex_dissimilar","images/stimuli/complex_07_A_b.gif","",""
"","html-keyboard-response","55","209696","0.0-17.0-0.4","SS1627326596231","","null","","","null","","","","","","","","","","","<p><img src= images/blank.png width =""600"" height = ""600"" style=""position:fixed;top:50%; left:50%; transform: translate(-50%, -50%); border:5px solid black"">","","","","",""
"","stimuli-presentation","56","210549","0.0-17.0-1.4","SS1627326596231","","350.89999997615814","trial","","40","500","850.8999999761581","images/stimuli/complex_16_A_b.gif","images/stimuli/complex_07_A_b.gif","forced_short","480","","","","","","2","complex_dissimilar","images/stimuli/complex_07_A_b.gif","",""
"","html-keyboard-response","57","211710","0.0-17.0-0.5","SS1627326596231","","null","","","null","","","","","","","","","","","<p><img src= images/blank.png width =""600"" height = ""600"" style=""position:fixed;top:50%; left:50%; transform: translate(-50%, -50%); border:5px solid black"">","","","","",""
"","stimuli-presentation","58","214109","0.0-17.0-1.5","SS1627326596231","","1896.7999999523163","trial","","40","500","2396.7999999523163","images/stimuli/complex_16_A_b.gif","images/stimuli/complex_07_A_b.gif","forced_short","480","","","","","","2","complex_dissimilar","images/stimuli/complex_07_A_b.gif","",""
"","survey-multi-choice","59","217753","0.0-18.0","SS1627326596231","","3641.8000000715256","memory_test","","","","","","","","","{""Q0"":""Yes""}","[0]","images/stimuli/complex_16_A_b.gif","2","","","","","",""
"","survey-multi-choice","60","219608","0.0-19.0","SS1627326596231","","1851.2999999523163","memory_test","","","","","","","","","{""Q0"":""No""}","[0]","images/stimuli/complex_23_A_a.gif","2","","","","","",""
"","html-keyboard-response","61","220769","0.0-20.0-0.0","SS1627326596231","","null","","","null","","","","","","","","","","","<p><img src= images/blank.png width =""600"" height = ""600"" style=""position:fixed;top:50%; left:50%; transform: translate(-50%, -50%); border:5px solid black"">","","","","",""
"","stimuli-presentation","62","222468","0.0-20.0-1.0","SS1627326596231","","946.2999999523163","trial","","40","500","1446.2999999523163","images/stimuli/complex_08_A_a.gif","images/stimuli/complex_01_A_a.gif","forced_short","750","","","","","","3","complex_dissimilar","images/stimuli/complex_01_A_a.gif","",""
"","html-keyboard-response","63","223488","0.0-20.0-0.1","SS1627326596231","","null","","","null","","","","","","","","","","","<p><img src= images/blank.png width =""600"" height = ""600"" style=""position:fixed;top:50%; left:50%; transform: translate(-50%, -50%); border:5px solid black"">","","","","",""
"","stimuli-presentation","64","226862","0.0-20.0-1.1","SS1627326596231","","2871.899999976158","trial","","40","500","3371.899999976158","images/stimuli/complex_08_A_a.gif","images/stimuli/complex_01_A_a.gif","forced_short","750","","","","","","3","complex_dissimilar","images/stimuli/complex_01_A_a.gif","",""
"","html-keyboard-response","65","228156","0.0-20.0-0.2","SS1627326596231","","null","","","null","","","","","","","","","","","<p><img src= images/blank.png width =""600"" height = ""600"" style=""position:fixed;top:50%; left:50%; transform: translate(-50%, -50%); border:5px solid black"">","","","","",""
"","stimuli-presentation","66","234744","0.0-20.0-1.2","SS1627326596231","","6084.200000047684","trial","","40","500","6584.200000047684","images/stimuli/complex_08_A_a.gif","images/stimuli/complex_01_A_a.gif","forced_short","750","","","","","","3","complex_dissimilar","images/stimuli/complex_08_A_a.gif","",""
"","html-keyboard-response","67","235790","0.0-20.0-0.3","SS1627326596231","","null","","","null","","","","","","","","","","","<p><img src= images/blank.png width =""600"" height = ""600"" style=""position:fixed;top:50%; left:50%; transform: translate(-50%, -50%); border:5px solid black"">","","","","",""
"","stimuli-presentation","68","237048","0.0-20.0-1.3","SS1627326596231","","754.7000000476837","trial","","40","500","1254.7000000476837","images/stimuli/complex_08_A_a.gif","images/stimuli/complex_01_A_a.gif","forced_short","750","","","","","","3","complex_dissimilar","images/stimuli/complex_01_A_a.gif","",""
"","html-keyboard-response","69","237964","0.0-20.0-0.4","SS1627326596231","","null","","","null","","","","","","","","","","","<p><img src= images/blank.png width =""600"" height = ""600"" style=""position:fixed;top:50%; left:50%; transform: translate(-50%, -50%); border:5px solid black"">","","","","",""
"","stimuli-presentation","70","238543","0.0-20.0-1.4","SS1627326596231","","76.90000009536743","trial","","40","500","576.9000000953674","images/stimuli/complex_08_A_a.gif","images/stimuli/complex_01_A_a.gif","forced_short","750","","","","","","3","complex_dissimilar","images/stimuli/complex_01_A_a.gif","",""
"","html-keyboard-response","71","239515","0.0-20.0-0.5","SS1627326596231","","null","","","null","","","","","","","","","","","<p><img src= images/blank.png width =""600"" height = ""600"" style=""position:fixed;top:50%; left:50%; transform: translate(-50%, -50%); border:5px solid black"">","","","","",""
"","stimuli-presentation","72","240572","0.0-20.0-1.5","SS1627326596231","","554.3999999761581","trial","","40","500","1054.3999999761581","images/stimuli/complex_08_A_a.gif","images/stimuli/complex_01_A_a.gif","forced_short","750","","","","","","3","complex_dissimilar","images/stimuli/complex_08_A_a.gif","",""
"","survey-multi-choice","73","242505","0.0-21.0","SS1627326596231","","1931.1000000238419","memory_test","","","","","","","","","{""Q0"":""Yes""}","[0]","images/stimuli/complex_08_A_a.gif","3","","","","","",""
"","survey-multi-choice","74","244745","0.0-22.0","SS1627326596231","","2234.7000000476837","memory_test","","","","","","","","","{""Q0"":""No""}","[0]","images/stimuli/complex_13_A_b.gif","3","","","","","",""
"","html-keyboard-response","75","245566","0.0-23.0-0.0","SS1627326596231","","null","","","null","","","","","","","","","","","<p><img src= images/blank.png width =""600"" height = ""600"" style=""position:fixed;top:50%; left:50%; transform: translate(-50%, -50%); border:5px solid black"">","","","","",""
"","stimuli-presentation","76","247391","0.0-23.0-1.0","SS1627326596231","","931.2999999523163","trial","","40","500","1431.2999999523163","images/stimuli/complex_02_A_b.gif","images/stimuli/complex_19_A_b.gif","forced_short","890","","","","","","4","complex_dissimilar","images/stimuli/complex_19_A_b.gif","",""
"","html-keyboard-response","77","248220","0.0-23.0-0.1","SS1627326596231","","null","","","null","","","","","","","","","","","<p><img src= images/blank.png width =""600"" height = ""600"" style=""position:fixed;top:50%; left:50%; transform: translate(-50%, -50%); border:5px solid black"">","","","","",""
"","stimuli-presentation","78","249000","0.0-23.0-1.1","SS1627326596231","","276.7999999523163","trial","","40","500","776.7999999523163","images/stimuli/complex_02_A_b.gif","images/stimuli/complex_19_A_b.gif","forced_short","890","","","","","","4","complex_dissimilar","images/stimuli/complex_19_A_b.gif","",""
"","html-keyboard-response","79","250238","0.0-23.0-0.2","SS1627326596231","","null","","","null","","","","","","","","","","","<p><img src= images/blank.png width =""600"" height = ""600"" style=""position:fixed;top:50%; left:50%; transform: translate(-50%, -50%); border:5px solid black"">","","","","",""
"","stimuli-presentation","80","251470","0.0-23.0-1.2","SS1627326596231","","728.3000000715256","trial","","40","500","1228.3000000715256","images/stimuli/complex_02_A_b.gif","images/stimuli/complex_19_A_b.gif","forced_short","890","","","","","","4","complex_dissimilar","images/stimuli/complex_19_A_b.gif","",""
"","html-keyboard-response","81","252406","0.0-23.0-0.3","SS1627326596231","","null","","","null","","","","","","","","","","","<p><img src= images/blank.png width =""600"" height = ""600"" style=""position:fixed;top:50%; left:50%; transform: translate(-50%, -50%); border:5px solid black"">","","","","",""
"","stimuli-presentation","82","253213","0.0-23.0-1.3","SS1627326596231","","302.60000002384186","trial","","40","500","802.6000000238419","images/stimuli/complex_02_A_b.gif","images/stimuli/complex_19_A_b.gif","forced_short","890","","","","","","4","complex_dissimilar","images/stimuli/complex_19_A_b.gif","",""
"","html-keyboard-response","83","254419","0.0-23.0-0.4","SS1627326596231","","null","","","null","","","","","","","","","","","<p><img src= images/blank.png width =""600"" height = ""600"" style=""position:fixed;top:50%; left:50%; transform: translate(-50%, -50%); border:5px solid black"">","","","","",""
"","stimuli-presentation","84","255643","0.0-23.0-1.4","SS1627326596231","","720.8000000715256","trial","","40","500","1220.8000000715256","images/stimuli/complex_02_A_b.gif","images/stimuli/complex_19_A_b.gif","forced_short","890","","","","","","4","complex_dissimilar","images/stimuli/complex_19_A_b.gif","",""
"","html-keyboard-response","85","256756","0.0-23.0-0.5","SS1627326596231","","null","","","null","","","","","","","","","","","<p><img src= images/blank.png width =""600"" height = ""600"" style=""position:fixed;top:50%; left:50%; transform: translate(-50%, -50%); border:5px solid black"">","","","","",""
"","stimuli-presentation","86","258683","0.0-23.0-1.5","SS1627326596231","","1424.3000000715256","trial","","40","500","1924.3000000715256","images/stimuli/complex_02_A_b.gif","images/stimuli/complex_19_A_b.gif","forced_short","890","","","","","","4","complex_dissimilar","images/stimuli/complex_02_A_b.gif","",""
"","html-keyboard-response","87","259644","0.0-23.0-0.6","SS1627326596231","","null","","","null","","","","","","","","","","","<p><img src= images/blank.png width =""600"" height = ""600"" style=""position:fixed;top:50%; left:50%; transform: translate(-50%, -50%); border:5px solid black"">","","","","",""
"","stimuli-presentation","88","260637","0.0-23.0-1.6","SS1627326596231","","490.1999999284744","trial","","40","500","990.1999999284744","images/stimuli/complex_02_A_b.gif","images/stimuli/complex_19_A_b.gif","forced_short","890","","","","","","4","complex_dissimilar","images/stimuli/complex_19_A_b.gif","",""
"","html-keyboard-response","89","261577","0.0-23.0-0.7","SS1627326596231","","null","","","null","","","","","","","","","","","<p><img src= images/blank.png width =""600"" height = ""600"" style=""position:fixed;top:50%; left:50%; transform: translate(-50%, -50%); border:5px solid black"">","","","","",""
"","stimuli-presentation","90","262617","0.0-23.0-1.7","SS1627326596231","","536.1000000238419","trial","","40","500","1036.1000000238419","images/stimuli/complex_02_A_b.gif","images/stimuli/complex_19_A_b.gif","forced_short","890","","","","","","4","complex_dissimilar","images/stimuli/complex_02_A_b.gif","",""
"","survey-multi-choice","91","265705","0.0-24.0","SS1627326596231","","3085.7000000476837","memory_test","","","","","","","","","{""Q0"":""No""}","[0]","images/stimuli/complex_15_A_a.gif","4","","","","","",""
"","survey-multi-choice","92","267529","0.0-25.0","SS1627326596231","","1819.3000000715256","memory_test","","","","","","","","","{""Q0"":""Yes""}","[0]","images/stimuli/complex_02_A_b.gif","4","","","","","",""
"","html-keyboard-response","93","268532","0.0-26.0-0.0","SS1627326596231","","null","","","null","","","","","","","","","","","<p><img src= images/blank.png width =""600"" height = ""600"" style=""position:fixed;top:50%; left:50%; transform: translate(-50%, -50%); border:5px solid black"">","","","","",""
"","stimuli-presentation","94","269757","0.0-26.0-1.0","SS1627326596231","","932.8999999761581","trial","","40","500","1432.8999999761581","images/stimuli/complex_09_A_b.gif","images/stimuli/complex_24_A_b.gif","forced_short","280","","","","","","5","complex_dissimilar","images/stimuli/complex_24_A_b.gif","",""
"","html-keyboard-response","95","270994","0.0-26.0-0.1","SS1627326596231","","null","","","null","","","","","","","","","","","<p><img src= images/blank.png width =""600"" height = ""600"" style=""position:fixed;top:50%; left:50%; transform: translate(-50%, -50%); border:5px solid black"">","","","","",""
"","stimuli-presentation","96","272563","0.0-26.0-1.1","SS1627326596231","","1065.6999999284744","trial","","40","500","1565.6999999284744","images/stimuli/complex_09_A_b.gif","images/stimuli/complex_24_A_b.gif","forced_short","280","","","","","","5","complex_dissimilar","images/stimuli/complex_24_A_b.gif","",""
"","html-keyboard-response","97","273518","0.0-26.0-0.2","SS1627326596231","","null","","","null","","","","","","","","","","","<p><img src= images/blank.png width =""600"" height = ""600"" style=""position:fixed;top:50%; left:50%; transform: translate(-50%, -50%); border:5px solid black"">","","","","",""
"","stimuli-presentation","98","274839","0.0-26.0-1.2","SS1627326596231","","818.2000000476837","trial","","40","500","1318.2000000476837","images/stimuli/complex_09_A_b.gif","images/stimuli/complex_24_A_b.gif","forced_short","280","","","","","","5","complex_dissimilar","images/stimuli/complex_24_A_b.gif","",""
"","html-keyboard-response","99","275969","0.0-26.0-0.3","SS1627326596231","","null","","","null","","","","","","","","","","","<p><img src= images/blank.png width =""600"" height = ""600"" style=""position:fixed;top:50%; left:50%; transform: translate(-50%, -50%); border:5px solid black"">","","","","",""
"","stimuli-presentation","100","276889","0.0-26.0-1.3","SS1627326596231","","411","trial","","40","500","911","images/stimuli/complex_09_A_b.gif","images/stimuli/complex_24_A_b.gif","forced_short","280","","","","","","5","complex_dissimilar","images/stimuli/complex_24_A_b.gif","",""
"","html-keyboard-response","101","278161","0.0-26.0-0.4","SS1627326596231","","null","","","null","","","","","","","","","","","<p><img src= images/blank.png width =""600"" height = ""600"" style=""position:fixed;top:50%; left:50%; transform: translate(-50%, -50%); border:5px solid black"">","","","","",""
"","stimuli-presentation","102","279314","0.0-26.0-1.4","SS1627326596231","","649.7000000476837","trial","","40","500","1149.7000000476837","images/stimuli/complex_09_A_b.gif","images/stimuli/complex_24_A_b.gif","forced_short","280","","","","","","5","complex_dissimilar","images/stimuli/complex_24_A_b.gif","",""
"","html-keyboard-response","103","280191","0.0-26.0-0.5","SS1627326596231","","null","","","null","","","","","","","","","","","<p><img src= images/blank.png width =""600"" height = ""600"" style=""position:fixed;top:50%; left:50%; transform: translate(-50%, -50%); border:5px solid black"">","","","","",""
"","stimuli-presentation","104","281258","0.0-26.0-1.5","SS1627326596231","","564.1000000238419","trial","","40","500","1064.1000000238419","images/stimuli/complex_09_A_b.gif","images/stimuli/complex_24_A_b.gif","forced_short","280","","","","","","5","complex_dissimilar","images/stimuli/complex_24_A_b.gif","",""
"","html-keyboard-response","105","282360","0.0-26.0-0.6","SS1627326596231","","null","","","null","","","","","","","","","","","<p><img src= images/blank.png width =""600"" height = ""600"" style=""position:fixed;top:50%; left:50%; transform: translate(-50%, -50%); border:5px solid black"">","","","","",""
"","stimuli-presentation","106","283590","0.0-26.0-1.6","SS1627326596231","","726.5","trial","","40","500","1226.5","images/stimuli/complex_09_A_b.gif","images/stimuli/complex_24_A_b.gif","forced_short","280","","","","","","5","complex_dissimilar","images/stimuli/complex_24_A_b.gif","",""
"","survey-multi-choice","107","286769","0.0-27.0","SS1627326596231","","3177.100000023842","memory_test","","","","","","","","","{""Q0"":""No""}","[0]","images/stimuli/complex_12_A_a.gif","5","","","","","",""
"","survey-multi-choice","108","288465","0.0-28.0","SS1627326596231","","1690","memory_test","","","","","","","","","{""Q0"":""Yes""}","[0]","images/stimuli/complex_24_A_b.gif","5","","","","","",""
"","html-keyboard-response","109","289305","0.0-29.0-0.0","SS1627326596231","","null","","","null","","","","","","","","","","","<p><img src= images/blank.png width =""600"" height = ""600"" style=""position:fixed;top:50%; left:50%; transform: translate(-50%, -50%); border:5px solid black"">","","","","",""
"","stimuli-presentation","110","290866","0.0-29.0-1.0","SS1627326596231","","1382.7000000476837","trial","","40","500","1882.7000000476837","images/stimuli/complex_03_A_b.gif","images/stimuli/complex_06_A_b.gif","forced_short","170","","","","","","6","complex_dissimilar","images/stimuli/complex_06_A_b.gif","",""
"","html-keyboard-response","111","291749","0.0-29.0-0.1","SS1627326596231","","null","","","null","","","","","","","","","","","<p><img src= images/blank.png width =""600"" height = ""600"" style=""position:fixed;top:50%; left:50%; transform: translate(-50%, -50%); border:5px solid black"">","","","","",""
"","stimuli-presentation","112","293823","0.0-29.0-1.1","SS1627326596231","","1569.5","trial","","40","500","2069.5","images/stimuli/complex_03_A_b.gif","images/stimuli/complex_06_A_b.gif","forced_short","170","","","","","","6","complex_dissimilar","images/stimuli/complex_06_A_b.gif","",""
"","html-keyboard-response","113","295098","0.0-29.0-0.2","SS1627326596231","","null","","","null","","","","","","","","","","","<p><img src= images/blank.png width =""600"" height = ""600"" style=""position:fixed;top:50%; left:50%; transform: translate(-50%, -50%); border:5px solid black"">","","","","",""
"","stimuli-presentation","114","295768","0.0-29.0-1.2","SS1627326596231","","159.5","trial","","40","500","659.5","images/stimuli/complex_03_A_b.gif","images/stimuli/complex_06_A_b.gif","forced_short","170","","","","","","6","complex_dissimilar","images/stimuli/complex_06_A_b.gif","",""
"","html-keyboard-response","115","297005","0.0-29.0-0.3","SS1627326596231","","null","","","null","","","","","","","","","","","<p><img src= images/blank.png width =""600"" height = ""600"" style=""position:fixed;top:50%; left:50%; transform: translate(-50%, -50%); border:5px solid black"">","","","","",""
"","stimuli-presentation","116","297720","0.0-29.0-1.3","SS1627326596231","","212.69999992847443","trial","","40","500","712.6999999284744","images/stimuli/complex_03_A_b.gif","images/stimuli/complex_06_A_b.gif","forced_short","170","","","","","","6","complex_dissimilar","images/stimuli/complex_06_A_b.gif","",""
"","html-keyboard-response","117","298641","0.0-29.0-0.4","SS1627326596231","","null","","","null","","","","","","","","","","","<p><img src= images/blank.png width =""600"" height = ""600"" style=""position:fixed;top:50%; left:50%; transform: translate(-50%, -50%); border:5px solid black"">","","","","",""
"","stimuli-presentation","118","299236","0.0-29.0-1.4","SS1627326596231","","91.60000002384186","trial","","40","500","591.6000000238419","images/stimuli/complex_03_A_b.gif","images/stimuli/complex_06_A_b.gif","forced_short","170","","","","","","6","complex_dissimilar","images/stimuli/complex_06_A_b.gif","",""
"","html-keyboard-response","119","300190","0.0-29.0-0.5","SS1627326596231","","null","","","null","","","","","","","","","","","<p><img src= images/blank.png width =""600"" height = ""600"" style=""position:fixed;top:50%; left:50%; transform: translate(-50%, -50%); border:5px solid black"">","","","","",""
"","stimuli-presentation","120","300864","0.0-29.0-1.5","SS1627326596231","","170.90000009536743","trial","","40","500","670.9000000953674","images/stimuli/complex_03_A_b.gif","images/stimuli/complex_06_A_b.gif","forced_short","170","","","","","","6","complex_dissimilar","images/stimuli/complex_06_A_b.gif","",""
"","html-keyboard-response","121","302047","0.0-29.0-0.6","SS1627326596231","","null","","","null","","","","","","","","","","","<p><img src= images/blank.png width =""600"" height = ""600"" style=""position:fixed;top:50%; left:50%; transform: translate(-50%, -50%); border:5px solid black"">","","","","",""
"","stimuli-presentation","122","302837","0.0-29.0-1.6","SS1627326596231","","284.60000002384186","trial","","40","500","784.6000000238419","images/stimuli/complex_03_A_b.gif","images/stimuli/complex_06_A_b.gif","forced_short","170","","","","","","6","complex_dissimilar","images/stimuli/complex_06_A_b.gif","",""
"","html-keyboard-response","123","304035","0.0-29.0-0.7","SS1627326596231","","null","","","null","","","","","","","","","","","<p><img src= images/blank.png width =""600"" height = ""600"" style=""position:fixed;top:50%; left:50%; transform: translate(-50%, -50%); border:5px solid black"">","","","","",""
"","stimuli-presentation","124","304733","0.0-29.0-1.7","SS1627326596231","","187.20000004768372","trial","","40","500","687.2000000476837","images/stimuli/complex_03_A_b.gif","images/stimuli/complex_06_A_b.gif","forced_short","170","","","","","","6","complex_dissimilar","images/stimuli/complex_06_A_b.gif","",""
"","survey-multi-choice","125","306969","0.0-30.0","SS1627326596231","","2234","memory_test","","","","","","","","","{""Q0"":""No""}","[0]","images/stimuli/complex_05_A_b.gif","6","","","","","",""
"","survey-multi-choice","126","308521","0.0-31.0","SS1627326596231","","1546.5","memory_test","","","","","","","","","{""Q0"":""Yes""}","[0]","images/stimuli/complex_06_A_b.gif","6","","","","","",""
"","html-keyboard-response","127","309554","0.0-32.0-0.0","SS1627326596231","","null","","","null","","","","","","","","","","","<p><img src= images/blank.png width =""600"" height = ""600"" style=""position:fixed;top:50%; left:50%; transform: translate(-50%, -50%); border:5px solid black"">","","","","",""
"","stimuli-presentation","128","310751","0.0-32.0-1.0","SS1627326596231","","972.2000000476837","trial","","40","500","1472.2000000476837","images/stimuli/complex_11_A_b.gif","images/stimuli/complex_20_A_a.gif","forced_short","220","","","","","","7","complex_dissimilar","images/stimuli/complex_20_A_a.gif","",""
"","html-keyboard-response","129","312029","0.0-32.0-0.1","SS1627326596231","","null","","","null","","","","","","","","","","","<p><img src= images/blank.png width =""600"" height = ""600"" style=""position:fixed;top:50%; left:50%; transform: translate(-50%, -50%); border:5px solid black"">","","","","",""
"","stimuli-presentation","130","313911","0.0-32.0-1.1","SS1627326596231","","1377.5999999046326","trial","","40","500","1877.5999999046326","images/stimuli/complex_11_A_b.gif","images/stimuli/complex_20_A_a.gif","forced_short","220","","","","","","7","complex_dissimilar","images/stimuli/complex_11_A_b.gif","",""
"","html-keyboard-response","131","314830","0.0-32.0-0.2","SS1627326596231","","null","","","null","","","","","","","","","","","<p><img src= images/blank.png width =""600"" height = ""600"" style=""position:fixed;top:50%; left:50%; transform: translate(-50%, -50%); border:5px solid black"">","","","","",""
"","stimuli-presentation","132","316653","0.0-32.0-1.2","SS1627326596231","","1311.5","trial","","40","500","1811.5","images/stimuli/complex_11_A_b.gif","images/stimuli/complex_20_A_a.gif","forced_short","220","","","","","","7","complex_dissimilar","images/stimuli/complex_20_A_a.gif","",""
"","html-keyboard-response","133","317712","0.0-32.0-0.3","SS1627326596231","","null","","","null","","","","","","","","","","","<p><img src= images/blank.png width =""600"" height = ""600"" style=""position:fixed;top:50%; left:50%; transform: translate(-50%, -50%); border:5px solid black"">","","","","",""
"","stimuli-presentation","134","318333","0.0-32.0-1.3","SS1627326596231","","116.5","trial","","40","500","616.5","images/stimuli/complex_11_A_b.gif","images/stimuli/complex_20_A_a.gif","forced_short","220","","","","","","7","complex_dissimilar","images/stimuli/complex_20_A_a.gif","",""
"","html-keyboard-response","135","319181","0.0-32.0-0.4","SS1627326596231","","null","","","null","","","","","","","","","","","<p><img src= images/blank.png width =""600"" height = ""600"" style=""position:fixed;top:50%; left:50%; transform: translate(-50%, -50%); border:5px solid black"">","","","","",""
"","stimuli-presentation","136","319789","0.0-32.0-1.4","SS1627326596231","","99.10000002384186","trial","","40","500","599.1000000238419","images/stimuli/complex_11_A_b.gif","images/stimuli/complex_20_A_a.gif","forced_short","220","","","","","","7","complex_dissimilar","images/stimuli/complex_20_A_a.gif","",""
"","html-keyboard-response","137","320974","0.0-32.0-0.5","SS1627326596231","","null","","","null","","","","","","","","","","","<p><img src= images/blank.png width =""600"" height = ""600"" style=""position:fixed;top:50%; left:50%; transform: translate(-50%, -50%); border:5px solid black"">","","","","",""
"","stimuli-presentation","138","321537","0.0-32.0-1.5","SS1627326596231","","55.39999997615814","trial","","40","500","555.3999999761581","images/stimuli/complex_11_A_b.gif","images/stimuli/complex_20_A_a.gif","forced_short","220","","","","","","7","complex_dissimilar","images/stimuli/complex_20_A_a.gif","",""
"","html-keyboard-response","139","322740","0.0-32.0-0.6","SS1627326596231","","null","","","null","","","","","","","","","","","<p><img src= images/blank.png width =""600"" height = ""600"" style=""position:fixed;top:50%; left:50%; transform: translate(-50%, -50%); border:5px solid black"">","","","","",""
"","stimuli-presentation","140","323499","0.0-32.0-1.6","SS1627326596231","","255.39999997615814","trial","","40","500","755.3999999761581","images/stimuli/complex_11_A_b.gif","images/stimuli/complex_20_A_a.gif","forced_short","220","","","","","","7","complex_dissimilar","images/stimuli/complex_20_A_a.gif","",""
"","html-keyboard-response","141","324689","0.0-32.0-0.7","SS1627326596231","","null","","","null","","","","","","","","","","","<p><img src= images/blank.png width =""600"" height = ""600"" style=""position:fixed;top:50%; left:50%; transform: translate(-50%, -50%); border:5px solid black"">","","","","",""
"","stimuli-presentation","142","325699","0.0-32.0-1.7","SS1627326596231","","496.59999990463257","trial","","40","500","996.5999999046326","images/stimuli/complex_11_A_b.gif","images/stimuli/complex_20_A_a.gif","forced_short","220","","","","","","7","complex_dissimilar","images/stimuli/complex_11_A_b.gif","",""
"","survey-multi-choice","143","329249","0.0-33.0","SS1627326596231","","3546.899999976158","memory_test","","","","","","","","","{""Q0"":""Yes""}","[0]","images/stimuli/complex_20_A_a.gif","7","","","","","",""
"","survey-multi-choice","144","331145","0.0-34.0","SS1627326596231","","1890.8999999761581","memory_test","","","","","","","","","{""Q0"":""No""}","[0]","images/stimuli/complex_04_A_a.gif","7","","","","","",""
"","instructions","145","337113","0.0-35.0","SS1627326596231","[{""page_index"":0,""viewing_time"":5962.100000023842}]","5962.600000023842","instructions","","","","","","","","","","","","","","","","","",""
"","survey-likert","146","356393","0.0-36.0","SS1627326596231","","19276.199999928474","similarity_question","","","","","","","","","{""Q0"":0}","[0]","","","","","","","images/stimuli/complex_11_A_b.gif","images/stimuli/complex_20_A_a.gif"
"","survey-likert","147","375873","0.0-37.0","SS1627326596231","","19473.600000023842","similarity_question","","","","","","","","","{""Q0"":1}","[0]","","","","","","","images/stimuli/complex_09_A_b.gif","images/stimuli/complex_24_A_b.gif"
"","survey-likert","148","400593","0.0-38.0","SS1627326596231","","24714.300000071526","similarity_question","","","","","","","","","{""Q0"":4}","[0]","","","","","","","images/stimuli/complex_16_A_b.gif","images/stimuli/complex_07_A_b.gif"
"","survey-likert","149","418625","0.0-39.0","SS1627326596231","","18025.300000071526","similarity_question","","","","","","","","","{""Q0"":1}","[0]","","","","","","","images/stimuli/complex_06_A_b.gif","images/stimuli/complex_03_A_b.gif"
"","survey-likert","150","438057","0.0-40.0","SS1627326596231","","19426.200000047684","similarity_question","","","","","","","","","{""Q0"":2}","[0]","","","","","","","images/stimuli/complex_21_A_a.gif","images/stimuli/complex_18_A_a.gif"
"","survey-likert","151","455601","0.0-41.0","SS1627326596231","","17538.400000095367","similarity_question","","","","","","","","","{""Q0"":2}","[0]","","","","","","","images/stimuli/complex_14_A_b.gif","images/stimuli/complex_17_A_a.gif"
"","survey-likert","152","468761","0.0-42.0","SS1627326596231","","13153.399999976158","similarity_question","","","","","","","","","{""Q0"":4}","[0]","","","","","","","images/stimuli/complex_02_A_b.gif","images/stimuli/complex_19_A_b.gif"
"","survey-likert","153","481161","0.0-43.0","SS1627326596231","","12393.600000023842","similarity_question","","","","","","","","","{""Q0"":4}","[0]","","","","","","","images/stimuli/complex_08_A_a.gif","images/stimuli/complex_01_A_a.gif"
"","instructions","154","486713","0.0-44.0","SS1627326596231","[{""page_index"":0,""viewing_time"":5546.200000047684}]","5546.600000023842","instructions","","","","","","","","","","","","","","","","","",""
"","survey-likert","155","501465","0.0-45.0","SS1627326596231","","14748.599999904633","","","","","","","","","","{""Q0"":1}","[0]","","","images/stimuli/complex_09_A_b.gif","","","","",""
"","survey-likert","156","514017","0.0-46.0","SS1627326596231","","12545.899999976158","","","","","","","","","","{""Q0"":2}","[0]","","","images/stimuli/complex_21_A_a.gif","","","","",""
"","survey-likert","157","522233","0.0-47.0","SS1627326596231","","8210.100000023842","","","","","","","","","","{""Q0"":3}","[0]","","","images/stimuli/complex_02_A_b.gif","","","","",""
"","survey-likert","158","529049","0.0-48.0","SS1627326596231","","6810.5","","","","","","","","","","{""Q0"":1}","[0]","","","images/stimuli/complex_01_A_a.gif","","","","",""
"","survey-likert","159","535145","0.0-49.0","SS1627326596231","","6090.200000047684","","","","","","","","","","{""Q0"":2}","[0]","","","images/stimuli/complex_03_A_b.gif","","","","",""
"","survey-likert","160","541281","0.0-50.0","SS1627326596231","","6129.300000071526","","","","","","","","","","{""Q0"":4}","[0]","","","images/stimuli/complex_14_A_b.gif","","","","",""
"","survey-likert","161","557593","0.0-51.0","SS1627326596231","","16306.400000095367","","","","","","","","","","{""Q0"":4}","[0]","","","images/stimuli/complex_16_A_b.gif","","","","",""
"","survey-likert","162","563433","0.0-52.0","SS1627326596231","","5833.899999976158","","","","","","","","","","{""Q0"":3}","[0]","","","images/stimuli/complex_11_A_b.gif","","","","",""
"true","fullscreen","163","564440","0.0-53.0","SS1627326596231","","","","","","","","","","","","","","","","","","","","",""
"","instructions","164","567168","0.0-54.0","SS1627326596231","[{""page_index"":0,""viewing_time"":2726.100000023842}]","2726.399999976158","instructions","","","","","","","","","","","","","","","","","",""
"","demog-age","165","569945","0.0-55.0","SS1627326596231","","2771.899999976158","","","","","","","","","","{""age"":""30""}","","","","","","","","",""
"","demog-ethnic-US","166","573321","0.0-56.0","SS1627326596231","","3367.100000023842","","","","","","","","","","{""ethnicity"":[""Hispanic or Latino""]}","[0]","","","","","","","",""
"","demog-gender-and-education","167","582809","0.0-57.0","SS1627326596231","","9481.100000023842","","","","","","","","","","{""gender"":""Male"",""education"":""Bachelor's Degree""}","[0,1]","","","","","","","",""
"","survey-text","168","605113","0.0-58.0","SS1627326596231","","22295.699999928474","feedback","","","","","","","","","{""Q0"":""everything worked just fine.""}","","","","","","","","",""
"","instructions","169","606521","0.0-59.0","SS1627326596231","[{""page_index"":0,""viewing_time"":1405.1000000238419}]","1405.3999999761581","instructions","","","","","","","","","","","","","","","","","",""
