"success","trial_type","trial_index","time_elapsed","internal_node_id","subject","view_history","rt","stimulus_type","trial_stimulus","key_press","minimum_viewing_duration","trial_looking_time","block_deviant","block_background","exposure_type","forced_exposure_time","responses","question_order","memory_question_stimuli","memory_block_index","stimulus","block_number","block_type","stimulus_displayed","stimulus_left","stimulus_right"
"true","fullscreen","0","4162","0.0-0.0","SS1627326747790","","","","","","","","","","","","","","","","","","","","",""
"","instructions","1","32617","0.0-1.0","SS1627326747790","[{""page_index"":0,""viewing_time"":28453.100000023842}]","28453.700000047684","","","","","","","","","","","","","","","","","","",""
"","instructions","2","58019","0.0-2.0","SS1627326747790","[{""page_index"":0,""viewing_time"":19105.799999952316},{""page_index"":1,""viewing_time"":4295}]","23401.100000023842","instructions","","","","","","","","","","","","","","","","","",""
"","stimuli-presentation","3","76123","0.0-3.0","SS1627326747790","","17599.600000023842","","","40","500","18099.600000023842","null","null","self_paced","0","","","","","","","","","",""
"","instructions","4","85986","0.0-4.0","SS1627326747790","[{""page_index"":0,""viewing_time"":9860.600000023842}]","9861","instructions","","","","","","","","","","","","","","","","","",""
"","stimuli-presentation","5","91454","0.0-5.0","SS1627326747790","","4963.200000047684","","","40","500","5463.200000047684","null","null","forced_short","500","","","","","","","","","",""
"","stimuli-presentation","6","95465","0.0-6.0","SS1627326747790","","3491.5","","","40","500","3991.5","null","null","forced_short","500","","","","","","","","","",""
"","instructions","7","107981","0.0-7.0","SS1627326747790","[{""page_index"":0,""viewing_time"":12514.400000095367}]","12514.900000095367","instructions","","","","","","","","","","","","","","","","","",""
"","survey-multi-choice","8","112579","0.0-8.0","SS1627326747790","","4589.900000095367","memory_test_practice","","","","","","","","","{""Q0"":""Yes""}","[0]","images/practice/instructions_example_spore2.gif","0","","","","","",""
"","survey-multi-choice","9","115305","0.0-9.0","SS1627326747790","","2721","memory_test_practice","","","","","","","","","{""Q0"":""No""}","[0]","images/practice/instructions_example_spore0.gif","0","","","","","",""
"","instructions","10","130731","0.0-10.0","SS1627326747790","[{""page_index"":0,""viewing_time"":13697.399999976158},{""page_index"":1,""viewing_time"":1725.3999999761581}]","15423.199999928474","instructions","","","","","","","","","","","","","","","","","",""
"","html-keyboard-response","11","131879","0.0-11.0-0.0","SS1627326747790","","null","","","null","","","","","","","","","","","<p><img src= images/blank.png width =""600"" height = ""600"" style=""position:fixed;top:50%; left:50%; transform: translate(-50%, -50%); border:5px solid black"">","","","","",""
"","stimuli-presentation","12","136062","0.0-11.0-1.0","SS1627326747790","","3980.2999999523163","trial","","40","500","4480.299999952316","images/stimuli/complex_16_A_b.gif","images/stimuli/complex_12_A_a.gif","forced_short","190","","","","","","0","complex_dissimilar","images/stimuli/complex_12_A_a.gif","",""
"","html-keyboard-response","13","137176","0.0-11.0-0.1","SS1627326747790","","null","","","null","","","","","","","","","","","<p><img src= images/blank.png width =""600"" height = ""600"" style=""position:fixed;top:50%; left:50%; transform: translate(-50%, -50%); border:5px solid black"">","","","","",""
"","stimuli-presentation","14","150370","0.0-11.0-1.1","SS1627326747790","","12687.299999952316","trial","","40","500","13187.299999952316","images/stimuli/complex_16_A_b.gif","images/stimuli/complex_12_A_a.gif","forced_short","190","","","","","","0","complex_dissimilar","images/stimuli/complex_16_A_b.gif","",""
"","html-keyboard-response","15","151666","0.0-11.0-0.2","SS1627326747790","","null","","","null","","","","","","","","","","","<p><img src= images/blank.png width =""600"" height = ""600"" style=""position:fixed;top:50%; left:50%; transform: translate(-50%, -50%); border:5px solid black"">","","","","",""
"","stimuli-presentation","16","164162","0.0-11.0-1.2","SS1627326747790","","11982.399999976158","trial","","40","500","12482.399999976158","images/stimuli/complex_16_A_b.gif","images/stimuli/complex_12_A_a.gif","forced_short","190","","","","","","0","complex_dissimilar","images/stimuli/complex_12_A_a.gif","",""
"","html-keyboard-response","17","165089","0.0-11.0-0.3","SS1627326747790","","null","","","null","","","","","","","","","","","<p><img src= images/blank.png width =""600"" height = ""600"" style=""position:fixed;top:50%; left:50%; transform: translate(-50%, -50%); border:5px solid black"">","","","","",""
"","stimuli-presentation","18","174539","0.0-11.0-1.3","SS1627326747790","","8941.199999928474","trial","","40","500","9441.199999928474","images/stimuli/complex_16_A_b.gif","images/stimuli/complex_12_A_a.gif","forced_short","190","","","","","","0","complex_dissimilar","images/stimuli/complex_12_A_a.gif","",""
"","html-keyboard-response","19","175598","0.0-11.0-0.4","SS1627326747790","","null","","","null","","","","","","","","","","","<p><img src= images/blank.png width =""600"" height = ""600"" style=""position:fixed;top:50%; left:50%; transform: translate(-50%, -50%); border:5px solid black"">","","","","",""
"","stimuli-presentation","20","182878","0.0-11.0-1.4","SS1627326747790","","6767.599999904633","trial","","40","500","7267.599999904633","images/stimuli/complex_16_A_b.gif","images/stimuli/complex_12_A_a.gif","forced_short","190","","","","","","0","complex_dissimilar","images/stimuli/complex_12_A_a.gif","",""
"","html-keyboard-response","21","184193","0.0-11.0-0.5","SS1627326747790","","null","","","null","","","","","","","","","","","<p><img src= images/blank.png width =""600"" height = ""600"" style=""position:fixed;top:50%; left:50%; transform: translate(-50%, -50%); border:5px solid black"">","","","","",""
"","stimuli-presentation","22","187987","0.0-11.0-1.5","SS1627326747790","","3282.399999976158","trial","","40","500","3782.399999976158","images/stimuli/complex_16_A_b.gif","images/stimuli/complex_12_A_a.gif","forced_short","190","","","","","","0","complex_dissimilar","images/stimuli/complex_12_A_a.gif","",""
"","html-keyboard-response","23","189296","0.0-11.0-0.6","SS1627326747790","","null","","","null","","","","","","","","","","","<p><img src= images/blank.png width =""600"" height = ""600"" style=""position:fixed;top:50%; left:50%; transform: translate(-50%, -50%); border:5px solid black"">","","","","",""
"","stimuli-presentation","24","193995","0.0-11.0-1.6","SS1627326747790","","4186.100000023842","trial","","40","500","4686.100000023842","images/stimuli/complex_16_A_b.gif","images/stimuli/complex_12_A_a.gif","forced_short","190","","","","","","0","complex_dissimilar","images/stimuli/complex_12_A_a.gif","",""
"","html-keyboard-response","25","195233","0.0-11.0-0.7","SS1627326747790","","null","","","null","","","","","","","","","","","<p><img src= images/blank.png width =""600"" height = ""600"" style=""position:fixed;top:50%; left:50%; transform: translate(-50%, -50%); border:5px solid black"">","","","","",""
"","stimuli-presentation","26","199598","0.0-11.0-1.7","SS1627326747790","","3852.8000000715256","trial","","40","500","4352.800000071526","images/stimuli/complex_16_A_b.gif","images/stimuli/complex_12_A_a.gif","forced_short","190","","","","","","0","complex_dissimilar","images/stimuli/complex_12_A_a.gif","",""
"","survey-multi-choice","27","203539","0.0-12.0","SS1627326747790","","3936.2000000476837","memory_test","","","","","","","","","{""Q0"":""No""}","[0]","images/stimuli/complex_04_A_b.gif","0","","","","","",""
"","survey-multi-choice","28","206363","0.0-13.0","SS1627326747790","","2819.7000000476837","memory_test","","","","","","","","","{""Q0"":""Yes""}","[0]","images/stimuli/complex_16_A_b.gif","0","","","","","",""
"","html-keyboard-response","29","207513","0.0-14.0-0.0","SS1627326747790","","null","","","null","","","","","","","","","","","<p><img src= images/blank.png width =""600"" height = ""600"" style=""position:fixed;top:50%; left:50%; transform: translate(-50%, -50%); border:5px solid black"">","","","","",""
"","stimuli-presentation","30","212502","0.0-14.0-1.0","SS1627326747790","","4479.899999976158","trial","","40","500","4979.899999976158","images/stimuli/complex_11_A_b.gif","images/stimuli/complex_07_A_a.gif","forced_short","500","","","","","","1","complex_dissimilar","images/stimuli/complex_07_A_a.gif","",""
"","html-keyboard-response","31","213647","0.0-14.0-0.1","SS1627326747790","","null","","","null","","","","","","","","","","","<p><img src= images/blank.png width =""600"" height = ""600"" style=""position:fixed;top:50%; left:50%; transform: translate(-50%, -50%); border:5px solid black"">","","","","",""
"","stimuli-presentation","32","221734","0.0-14.0-1.1","SS1627326747790","","7578.900000095367","trial","","40","500","8078.900000095367","images/stimuli/complex_11_A_b.gif","images/stimuli/complex_07_A_a.gif","forced_short","500","","","","","","1","complex_dissimilar","images/stimuli/complex_11_A_b.gif","",""
"","html-keyboard-response","33","222660","0.0-14.0-0.2","SS1627326747790","","null","","","null","","","","","","","","","","","<p><img src= images/blank.png width =""600"" height = ""600"" style=""position:fixed;top:50%; left:50%; transform: translate(-50%, -50%); border:5px solid black"">","","","","",""
"","stimuli-presentation","34","230794","0.0-14.0-1.2","SS1627326747790","","7623","trial","","40","500","8123","images/stimuli/complex_11_A_b.gif","images/stimuli/complex_07_A_a.gif","forced_short","500","","","","","","1","complex_dissimilar","images/stimuli/complex_07_A_a.gif","",""
"","html-keyboard-response","35","231724","0.0-14.0-0.3","SS1627326747790","","null","","","null","","","","","","","","","","","<p><img src= images/blank.png width =""600"" height = ""600"" style=""position:fixed;top:50%; left:50%; transform: translate(-50%, -50%); border:5px solid black"">","","","","",""
"","stimuli-presentation","36","237015","0.0-14.0-1.3","SS1627326747790","","4778","trial","","40","500","5278","images/stimuli/complex_11_A_b.gif","images/stimuli/complex_07_A_a.gif","forced_short","500","","","","","","1","complex_dissimilar","images/stimuli/complex_07_A_a.gif","",""
"","html-keyboard-response","37","237901","0.0-14.0-0.4","SS1627326747790","","null","","","null","","","","","","","","","","","<p><img src= images/blank.png width =""600"" height = ""600"" style=""position:fixed;top:50%; left:50%; transform: translate(-50%, -50%); border:5px solid black"">","","","","",""
"","stimuli-presentation","38","242482","0.0-14.0-1.4","SS1627326747790","","4073.5","trial","","40","500","4573.5","images/stimuli/complex_11_A_b.gif","images/stimuli/complex_07_A_a.gif","forced_short","500","","","","","","1","complex_dissimilar","images/stimuli/complex_11_A_b.gif","",""
"","html-keyboard-response","39","243467","0.0-14.0-0.5","SS1627326747790","","null","","","null","","","","","","","","","","","<p><img src= images/blank.png width =""600"" height = ""600"" style=""position:fixed;top:50%; left:50%; transform: translate(-50%, -50%); border:5px solid black"">","","","","",""
"","stimuli-presentation","40","249942","0.0-14.0-1.5","SS1627326747790","","5964.100000023842","trial","","40","500","6464.100000023842","images/stimuli/complex_11_A_b.gif","images/stimuli/complex_07_A_a.gif","forced_short","500","","","","","","1","complex_dissimilar","images/stimuli/complex_07_A_a.gif","",""
"","survey-multi-choice","41","252527","0.0-15.0","SS1627326747790","","2580.6999999284744","memory_test","","","","","","","","","{""Q0"":""Yes""}","[0]","images/stimuli/complex_11_A_b.gif","1","","","","","",""
"","survey-multi-choice","42","256641","0.0-16.0","SS1627326747790","","4109.300000071526","memory_test","","","","","","","","","{""Q0"":""No""}","[0]","images/stimuli/complex_14_A_a.gif","1","","","","","",""
"","html-keyboard-response","43","257723","0.0-17.0-0.0","SS1627326747790","","null","","","null","","","","","","","","","","","<p><img src= images/blank.png width =""600"" height = ""600"" style=""position:fixed;top:50%; left:50%; transform: translate(-50%, -50%); border:5px solid black"">","","","","",""
"","stimuli-presentation","44","264910","0.0-17.0-1.0","SS1627326747790","","6611","trial","","40","500","7111","images/stimuli/complex_13_A_b.gif","images/stimuli/complex_20_A_a.gif","forced_short","560","","","","","","2","complex_dissimilar","images/stimuli/complex_20_A_a.gif","",""
"","html-keyboard-response","45","266133","0.0-17.0-0.1","SS1627326747790","","null","","","null","","","","","","","","","","","<p><img src= images/blank.png width =""600"" height = ""600"" style=""position:fixed;top:50%; left:50%; transform: translate(-50%, -50%); border:5px solid black"">","","","","",""
"","stimuli-presentation","46","275507","0.0-17.0-1.1","SS1627326747790","","8867.600000023842","trial","","40","500","9367.600000023842","images/stimuli/complex_13_A_b.gif","images/stimuli/complex_20_A_a.gif","forced_short","560","","","","","","2","complex_dissimilar","images/stimuli/complex_13_A_b.gif","",""
"","html-keyboard-response","47","276376","0.0-17.0-0.2","SS1627326747790","","null","","","null","","","","","","","","","","","<p><img src= images/blank.png width =""600"" height = ""600"" style=""position:fixed;top:50%; left:50%; transform: translate(-50%, -50%); border:5px solid black"">","","","","",""
"","stimuli-presentation","48","283750","0.0-17.0-1.2","SS1627326747790","","6862.100000023842","trial","","40","500","7362.100000023842","images/stimuli/complex_13_A_b.gif","images/stimuli/complex_20_A_a.gif","forced_short","560","","","","","","2","complex_dissimilar","images/stimuli/complex_20_A_a.gif","",""
"","html-keyboard-response","49","284951","0.0-17.0-0.3","SS1627326747790","","null","","","null","","","","","","","","","","","<p><img src= images/blank.png width =""600"" height = ""600"" style=""position:fixed;top:50%; left:50%; transform: translate(-50%, -50%); border:5px solid black"">","","","","",""
"","stimuli-presentation","50","287630","0.0-17.0-1.3","SS1627326747790","","2170","trial","","40","500","2670","images/stimuli/complex_13_A_b.gif","images/stimuli/complex_20_A_a.gif","forced_short","560","","","","","","2","complex_dissimilar","images/stimuli/complex_20_A_a.gif","",""
"","html-keyboard-response","51","288644","0.0-17.0-0.4","SS1627326747790","","null","","","null","","","","","","","","","","","<p><img src= images/blank.png width =""600"" height = ""600"" style=""position:fixed;top:50%; left:50%; transform: translate(-50%, -50%); border:5px solid black"">","","","","",""
"","stimuli-presentation","52","292305","0.0-17.0-1.4","SS1627326747790","","3150.2000000476837","trial","","40","500","3650.2000000476837","images/stimuli/complex_13_A_b.gif","images/stimuli/complex_20_A_a.gif","forced_short","560","","","","","","2","complex_dissimilar","images/stimuli/complex_20_A_a.gif","",""
"","html-keyboard-response","53","293445","0.0-17.0-0.5","SS1627326747790","","null","","","null","","","","","","","","","","","<p><img src= images/blank.png width =""600"" height = ""600"" style=""position:fixed;top:50%; left:50%; transform: translate(-50%, -50%); border:5px solid black"">","","","","",""
"","stimuli-presentation","54","297850","0.0-17.0-1.5","SS1627326747790","","3898.0999999046326","trial","","40","500","4398.099999904633","images/stimuli/complex_13_A_b.gif","images/stimuli/complex_20_A_a.gif","forced_short","560","","","","","","2","complex_dissimilar","images/stimuli/complex_13_A_b.gif","",""
"","survey-multi-choice","55","300653","0.0-18.0","SS1627326747790","","2796.5","memory_test","","","","","","","","","{""Q0"":""Yes""}","[0]","images/stimuli/complex_20_A_a.gif","2","","","","","",""
"","survey-multi-choice","56","304524","0.0-19.0","SS1627326747790","","3863.5999999046326","memory_test","","","","","","","","","{""Q0"":""No""}","[0]","images/stimuli/complex_19_A_a.gif","2","","","","","",""
"","html-keyboard-response","57","305769","0.0-20.0-0.0","SS1627326747790","","null","","","null","","","","","","","","","","","<p><img src= images/blank.png width =""600"" height = ""600"" style=""position:fixed;top:50%; left:50%; transform: translate(-50%, -50%); border:5px solid black"">","","","","",""
"","stimuli-presentation","58","310295","0.0-20.0-1.0","SS1627326747790","","4217.199999928474","trial","","40","500","4717.199999928474","images/stimuli/complex_09_A_a.gif","images/stimuli/complex_23_A_a.gif","forced_short","300","","","","","","3","complex_dissimilar","images/stimuli/complex_23_A_a.gif","",""
"","html-keyboard-response","59","311131","0.0-20.0-0.1","SS1627326747790","","null","","","null","","","","","","","","","","","<p><img src= images/blank.png width =""600"" height = ""600"" style=""position:fixed;top:50%; left:50%; transform: translate(-50%, -50%); border:5px solid black"">","","","","",""
"","stimuli-presentation","60","317503","0.0-20.0-1.1","SS1627326747790","","5860.100000023842","trial","","40","500","6360.100000023842","images/stimuli/complex_09_A_a.gif","images/stimuli/complex_23_A_a.gif","forced_short","300","","","","","","3","complex_dissimilar","images/stimuli/complex_23_A_a.gif","",""
"","html-keyboard-response","61","318364","0.0-20.0-0.2","SS1627326747790","","null","","","null","","","","","","","","","","","<p><img src= images/blank.png width =""600"" height = ""600"" style=""position:fixed;top:50%; left:50%; transform: translate(-50%, -50%); border:5px solid black"">","","","","",""
"","stimuli-presentation","62","324042","0.0-20.0-1.2","SS1627326747790","","5167.5","trial","","40","500","5667.5","images/stimuli/complex_09_A_a.gif","images/stimuli/complex_23_A_a.gif","forced_short","300","","","","","","3","complex_dissimilar","images/stimuli/complex_23_A_a.gif","",""
"","html-keyboard-response","63","325198","0.0-20.0-0.3","SS1627326747790","","null","","","null","","","","","","","","","","","<p><img src= images/blank.png width =""600"" height = ""600"" style=""position:fixed;top:50%; left:50%; transform: translate(-50%, -50%); border:5px solid black"">","","","","",""
"","stimuli-presentation","64","329562","0.0-20.0-1.3","SS1627326747790","","3855.6999999284744","trial","","40","500","4355.699999928474","images/stimuli/complex_09_A_a.gif","images/stimuli/complex_23_A_a.gif","forced_short","300","","","","","","3","complex_dissimilar","images/stimuli/complex_23_A_a.gif","",""
"","html-keyboard-response","65","330434","0.0-20.0-0.4","SS1627326747790","","null","","","null","","","","","","","","","","","<p><img src= images/blank.png width =""600"" height = ""600"" style=""position:fixed;top:50%; left:50%; transform: translate(-50%, -50%); border:5px solid black"">","","","","",""
"","stimuli-presentation","66","336423","0.0-20.0-1.4","SS1627326747790","","5475.299999952316","trial","","40","500","5975.299999952316","images/stimuli/complex_09_A_a.gif","images/stimuli/complex_23_A_a.gif","forced_short","300","","","","","","3","complex_dissimilar","images/stimuli/complex_09_A_a.gif","",""
"","html-keyboard-response","67","337354","0.0-20.0-0.5","SS1627326747790","","null","","","null","","","","","","","","","","","<p><img src= images/blank.png width =""600"" height = ""600"" style=""position:fixed;top:50%; left:50%; transform: translate(-50%, -50%); border:5px solid black"">","","","","",""
"","stimuli-presentation","68","340910","0.0-20.0-1.5","SS1627326747790","","3047.1999999284744","trial","","40","500","3547.1999999284744","images/stimuli/complex_09_A_a.gif","images/stimuli/complex_23_A_a.gif","forced_short","300","","","","","","3","complex_dissimilar","images/stimuli/complex_23_A_a.gif","",""
"","html-keyboard-response","69","342166","0.0-20.0-0.6","SS1627326747790","","null","","","null","","","","","","","","","","","<p><img src= images/blank.png width =""600"" height = ""600"" style=""position:fixed;top:50%; left:50%; transform: translate(-50%, -50%); border:5px solid black"">","","","","",""
"","stimuli-presentation","70","345318","0.0-20.0-1.6","SS1627326747790","","2635","trial","","40","500","3135","images/stimuli/complex_09_A_a.gif","images/stimuli/complex_23_A_a.gif","forced_short","300","","","","","","3","complex_dissimilar","images/stimuli/complex_23_A_a.gif","",""
"","survey-multi-choice","71","348350","0.0-21.0","SS1627326747790","","3025.600000023842","memory_test","","","","","","","","","{""Q0"":""No""}","[0]","images/stimuli/complex_22_A_b.gif","3","","","","","",""
"","survey-multi-choice","72","350288","0.0-22.0","SS1627326747790","","1931.2000000476837","memory_test","","","","","","","","","{""Q0"":""Yes""}","[0]","images/stimuli/complex_23_A_a.gif","3","","","","","",""
"","html-keyboard-response","73","351203","0.0-23.0-0.0","SS1627326747790","","null","","","null","","","","","","","","","","","<p><img src= images/blank.png width =""600"" height = ""600"" style=""position:fixed;top:50%; left:50%; transform: translate(-50%, -50%); border:5px solid black"">","","","","",""
"","stimuli-presentation","74","354090","0.0-23.0-1.0","SS1627326747790","","2635.2999999523163","trial","","40","500","3135.2999999523163","images/stimuli/complex_02_A_a.gif","images/stimuli/complex_08_A_b.gif","forced_short","240","","","","","","4","complex_dissimilar","images/stimuli/complex_08_A_b.gif","",""
"","html-keyboard-response","75","355205","0.0-23.0-0.1","SS1627326747790","","null","","","null","","","","","","","","","","","<p><img src= images/blank.png width =""600"" height = ""600"" style=""position:fixed;top:50%; left:50%; transform: translate(-50%, -50%); border:5px solid black"">","","","","",""
"","stimuli-presentation","76","363523","0.0-23.0-1.1","SS1627326747790","","7803.600000023842","trial","","40","500","8303.600000023842","images/stimuli/complex_02_A_a.gif","images/stimuli/complex_08_A_b.gif","forced_short","240","","","","","","4","complex_dissimilar","images/stimuli/complex_08_A_b.gif","",""
"","html-keyboard-response","77","364805","0.0-23.0-0.2","SS1627326747790","","null","","","null","","","","","","","","","","","<p><img src= images/blank.png width =""600"" height = ""600"" style=""position:fixed;top:50%; left:50%; transform: translate(-50%, -50%); border:5px solid black"">","","","","",""
"","stimuli-presentation","78","369974","0.0-23.0-1.2","SS1627326747790","","4657","trial","","40","500","5157","images/stimuli/complex_02_A_a.gif","images/stimuli/complex_08_A_b.gif","forced_short","240","","","","","","4","complex_dissimilar","images/stimuli/complex_08_A_b.gif","",""
"","html-keyboard-response","79","371143","0.0-23.0-0.3","SS1627326747790","","null","","","null","","","","","","","","","","","<p><img src= images/blank.png width =""600"" height = ""600"" style=""position:fixed;top:50%; left:50%; transform: translate(-50%, -50%); border:5px solid black"">","","","","",""
"","stimuli-presentation","80","374420","0.0-23.0-1.3","SS1627326747790","","2762.600000023842","trial","","40","500","3262.600000023842","images/stimuli/complex_02_A_a.gif","images/stimuli/complex_08_A_b.gif","forced_short","240","","","","","","4","complex_dissimilar","images/stimuli/complex_08_A_b.gif","",""
"","html-keyboard-response","81","375544","0.0-23.0-0.4","SS1627326747790","","null","","","null","","","","","","","","","","","<p><img src= images/blank.png width =""600"" height = ""600"" style=""position:fixed;top:50%; left:50%; transform: translate(-50%, -50%); border:5px solid black"">","","","","",""
"","stimuli-presentation","82","378346","0.0-23.0-1.4","SS1627326747790","","2292.9000000953674","trial","","40","500","2792.9000000953674","images/stimuli/complex_02_A_a.gif","images/stimuli/complex_08_A_b.gif","forced_short","240","","","","","","4","complex_dissimilar","images/stimuli/complex_08_A_b.gif","",""
"","html-keyboard-response","83","379217","0.0-23.0-0.5","SS1627326747790","","null","","","null","","","","","","","","","","","<p><img src= images/blank.png width =""600"" height = ""600"" style=""position:fixed;top:50%; left:50%; transform: translate(-50%, -50%); border:5px solid black"">","","","","",""
"","stimuli-presentation","84","381670","0.0-23.0-1.5","SS1627326747790","","1938","trial","","40","500","2438","images/stimuli/complex_02_A_a.gif","images/stimuli/complex_08_A_b.gif","forced_short","240","","","","","","4","complex_dissimilar","images/stimuli/complex_08_A_b.gif","",""
"","html-keyboard-response","85","382874","0.0-23.0-0.6","SS1627326747790","","null","","","null","","","","","","","","","","","<p><img src= images/blank.png width =""600"" height = ""600"" style=""position:fixed;top:50%; left:50%; transform: translate(-50%, -50%); border:5px solid black"">","","","","",""
"","stimuli-presentation","86","384490","0.0-23.0-1.6","SS1627326747790","","1100.5","trial","","40","500","1600.5","images/stimuli/complex_02_A_a.gif","images/stimuli/complex_08_A_b.gif","forced_short","240","","","","","","4","complex_dissimilar","images/stimuli/complex_08_A_b.gif","",""
"","survey-multi-choice","87","387351","0.0-24.0","SS1627326747790","","2854.5","memory_test","","","","","","","","","{""Q0"":""No""}","[0]","images/stimuli/complex_01_A_b.gif","4","","","","","",""
"","survey-multi-choice","88","389332","0.0-25.0","SS1627326747790","","1973.6999999284744","memory_test","","","","","","","","","{""Q0"":""Yes""}","[0]","images/stimuli/complex_08_A_b.gif","4","","","","","",""
"","html-keyboard-response","89","390261","0.0-26.0-0.0","SS1627326747790","","null","","","null","","","","","","","","","","","<p><img src= images/blank.png width =""600"" height = ""600"" style=""position:fixed;top:50%; left:50%; transform: translate(-50%, -50%); border:5px solid black"">","","","","",""
"","stimuli-presentation","90","397217","0.0-26.0-1.0","SS1627326747790","","6010.699999928474","trial","","40","500","6510.699999928474","images/stimuli/complex_21_A_b.gif","images/stimuli/complex_05_A_b.gif","forced_short","930","","","","","","5","complex_dissimilar","images/stimuli/complex_05_A_b.gif","",""
"","html-keyboard-response","91","398499","0.0-26.0-0.1","SS1627326747790","","null","","","null","","","","","","","","","","","<p><img src= images/blank.png width =""600"" height = ""600"" style=""position:fixed;top:50%; left:50%; transform: translate(-50%, -50%); border:5px solid black"">","","","","",""
"","stimuli-presentation","92","403905","0.0-26.0-1.1","SS1627326747790","","4893","trial","","40","500","5393","images/stimuli/complex_21_A_b.gif","images/stimuli/complex_05_A_b.gif","forced_short","930","","","","","","5","complex_dissimilar","images/stimuli/complex_05_A_b.gif","",""
"","html-keyboard-response","93","404827","0.0-26.0-0.2","SS1627326747790","","null","","","null","","","","","","","","","","","<p><img src= images/blank.png width =""600"" height = ""600"" style=""position:fixed;top:50%; left:50%; transform: translate(-50%, -50%); border:5px solid black"">","","","","",""
"","stimuli-presentation","94","407930","0.0-26.0-1.2","SS1627326747790","","2588.100000023842","trial","","40","500","3088.100000023842","images/stimuli/complex_21_A_b.gif","images/stimuli/complex_05_A_b.gif","forced_short","930","","","","","","5","complex_dissimilar","images/stimuli/complex_05_A_b.gif","",""
"","html-keyboard-response","95","408989","0.0-26.0-0.3","SS1627326747790","","null","","","null","","","","","","","","","","","<p><img src= images/blank.png width =""600"" height = ""600"" style=""position:fixed;top:50%; left:50%; transform: translate(-50%, -50%); border:5px solid black"">","","","","",""
"","stimuli-presentation","96","411373","0.0-26.0-1.3","SS1627326747790","","1874.7999999523163","trial","","40","500","2374.7999999523163","images/stimuli/complex_21_A_b.gif","images/stimuli/complex_05_A_b.gif","forced_short","930","","","","","","5","complex_dissimilar","images/stimuli/complex_05_A_b.gif","",""
"","html-keyboard-response","97","412595","0.0-26.0-0.4","SS1627326747790","","null","","","null","","","","","","","","","","","<p><img src= images/blank.png width =""600"" height = ""600"" style=""position:fixed;top:50%; left:50%; transform: translate(-50%, -50%); border:5px solid black"">","","","","",""
"","stimuli-presentation","98","415324","0.0-26.0-1.4","SS1627326747790","","2219.9000000953674","trial","","40","500","2719.9000000953674","images/stimuli/complex_21_A_b.gif","images/stimuli/complex_05_A_b.gif","forced_short","930","","","","","","5","complex_dissimilar","images/stimuli/complex_05_A_b.gif","",""
"","html-keyboard-response","99","416382","0.0-26.0-0.5","SS1627326747790","","null","","","null","","","","","","","","","","","<p><img src= images/blank.png width =""600"" height = ""600"" style=""position:fixed;top:50%; left:50%; transform: translate(-50%, -50%); border:5px solid black"">","","","","",""
"","stimuli-presentation","100","419715","0.0-26.0-1.5","SS1627326747790","","2817.399999976158","trial","","40","500","3317.399999976158","images/stimuli/complex_21_A_b.gif","images/stimuli/complex_05_A_b.gif","forced_short","930","","","","","","5","complex_dissimilar","images/stimuli/complex_05_A_b.gif","",""
"","html-keyboard-response","101","420735","0.0-26.0-0.6","SS1627326747790","","null","","","null","","","","","","","","","","","<p><img src= images/blank.png width =""600"" height = ""600"" style=""position:fixed;top:50%; left:50%; transform: translate(-50%, -50%); border:5px solid black"">","","","","",""
"","stimuli-presentation","102","423389","0.0-26.0-1.6","SS1627326747790","","2139.399999976158","trial","","40","500","2639.399999976158","images/stimuli/complex_21_A_b.gif","images/stimuli/complex_05_A_b.gif","forced_short","930","","","","","","5","complex_dissimilar","images/stimuli/complex_05_A_b.gif","",""
"","survey-multi-choice","103","427870","0.0-27.0","SS1627326747790","","4472.600000023842","memory_test","","","","","","","","","{""Q0"":""No""}","[0]","images/stimuli/complex_18_A_b.gif","5","","","","","",""
"","survey-multi-choice","104","429921","0.0-28.0","SS1627326747790","","2044.2999999523163","memory_test","","","","","","","","","{""Q0"":""Yes""}","[0]","images/stimuli/complex_05_A_b.gif","5","","","","","",""
"","html-keyboard-response","105","430959","0.0-29.0-0.0","SS1627326747790","","null","","","null","","","","","","","","","","","<p><img src= images/blank.png width =""600"" height = ""600"" style=""position:fixed;top:50%; left:50%; transform: translate(-50%, -50%); border:5px solid black"">","","","","",""
"","stimuli-presentation","106","434533","0.0-29.0-1.0","SS1627326747790","","2689.2000000476837","trial","","40","500","3189.2000000476837","images/stimuli/complex_06_A_b.gif","images/stimuli/complex_15_A_a.gif","forced_short","870","","","","","","6","complex_dissimilar","images/stimuli/complex_15_A_a.gif","",""
"","html-keyboard-response","107","435412","0.0-29.0-0.1","SS1627326747790","","null","","","null","","","","","","","","","","","<p><img src= images/blank.png width =""600"" height = ""600"" style=""position:fixed;top:50%; left:50%; transform: translate(-50%, -50%); border:5px solid black"">","","","","",""
"","stimuli-presentation","108","441002","0.0-29.0-1.1","SS1627326747790","","5078.100000023842","trial","","40","500","5578.100000023842","images/stimuli/complex_06_A_b.gif","images/stimuli/complex_15_A_a.gif","forced_short","870","","","","","","6","complex_dissimilar","images/stimuli/complex_15_A_a.gif","",""
"","html-keyboard-response","109","442283","0.0-29.0-0.2","SS1627326747790","","null","","","null","","","","","","","","","","","<p><img src= images/blank.png width =""600"" height = ""600"" style=""position:fixed;top:50%; left:50%; transform: translate(-50%, -50%); border:5px solid black"">","","","","",""
"","stimuli-presentation","110","445178","0.0-29.0-1.2","SS1627326747790","","2380.8000000715256","trial","","40","500","2880.8000000715256","images/stimuli/complex_06_A_b.gif","images/stimuli/complex_15_A_a.gif","forced_short","870","","","","","","6","complex_dissimilar","images/stimuli/complex_15_A_a.gif","",""
"","html-keyboard-response","111","446430","0.0-29.0-0.3","SS1627326747790","","null","","","null","","","","","","","","","","","<p><img src= images/blank.png width =""600"" height = ""600"" style=""position:fixed;top:50%; left:50%; transform: translate(-50%, -50%); border:5px solid black"">","","","","",""
"","stimuli-presentation","112","448311","0.0-29.0-1.3","SS1627326747790","","1368.1999999284744","trial","","40","500","1868.1999999284744","images/stimuli/complex_06_A_b.gif","images/stimuli/complex_15_A_a.gif","forced_short","870","","","","","","6","complex_dissimilar","images/stimuli/complex_15_A_a.gif","",""
"","html-keyboard-response","113","449528","0.0-29.0-0.4","SS1627326747790","","null","","","null","","","","","","","","","","","<p><img src= images/blank.png width =""600"" height = ""600"" style=""position:fixed;top:50%; left:50%; transform: translate(-50%, -50%); border:5px solid black"">","","","","",""
"","stimuli-presentation","114","451277","0.0-29.0-1.4","SS1627326747790","","1230.2999999523163","trial","","40","500","1730.2999999523163","images/stimuli/complex_06_A_b.gif","images/stimuli/complex_15_A_a.gif","forced_short","870","","","","","","6","complex_dissimilar","images/stimuli/complex_15_A_a.gif","",""
"","html-keyboard-response","115","452500","0.0-29.0-0.5","SS1627326747790","","null","","","null","","","","","","","","","","","<p><img src= images/blank.png width =""600"" height = ""600"" style=""position:fixed;top:50%; left:50%; transform: translate(-50%, -50%); border:5px solid black"">","","","","",""
"","stimuli-presentation","116","454305","0.0-29.0-1.5","SS1627326747790","","1290.9000000953674","trial","","40","500","1790.9000000953674","images/stimuli/complex_06_A_b.gif","images/stimuli/complex_15_A_a.gif","forced_short","870","","","","","","6","complex_dissimilar","images/stimuli/complex_15_A_a.gif","",""
"","survey-multi-choice","117","457298","0.0-30.0","SS1627326747790","","2986.5","memory_test","","","","","","","","","{""Q0"":""No""}","[0]","images/stimuli/complex_03_A_b.gif","6","","","","","",""
"","survey-multi-choice","118","458856","0.0-31.0","SS1627326747790","","1548.6999999284744","memory_test","","","","","","","","","{""Q0"":""Yes""}","[0]","images/stimuli/complex_15_A_a.gif","6","","","","","",""
"","html-keyboard-response","119","460150","0.0-32.0-0.0","SS1627326747790","","null","","","null","","","","","","","","","","","<p><img src= images/blank.png width =""600"" height = ""600"" style=""position:fixed;top:50%; left:50%; transform: translate(-50%, -50%); border:5px solid black"">","","","","",""
"","stimuli-presentation","120","462358","0.0-32.0-1.0","SS1627326747790","","1295","trial","","40","500","1795","images/stimuli/complex_17_A_a.gif","images/stimuli/complex_24_A_b.gif","forced_short","900","","","","","","7","complex_dissimilar","images/stimuli/complex_24_A_b.gif","",""
"","html-keyboard-response","121","463482","0.0-32.0-0.1","SS1627326747790","","null","","","null","","","","","","","","","","","<p><img src= images/blank.png width =""600"" height = ""600"" style=""position:fixed;top:50%; left:50%; transform: translate(-50%, -50%); border:5px solid black"">","","","","",""
"","stimuli-presentation","122","466433","0.0-32.0-1.1","SS1627326747790","","2438.1999999284744","trial","","40","500","2938.1999999284744","images/stimuli/complex_17_A_a.gif","images/stimuli/complex_24_A_b.gif","forced_short","900","","","","","","7","complex_dissimilar","images/stimuli/complex_24_A_b.gif","",""
"","html-keyboard-response","123","467455","0.0-32.0-0.2","SS1627326747790","","null","","","null","","","","","","","","","","","<p><img src= images/blank.png width =""600"" height = ""600"" style=""position:fixed;top:50%; left:50%; transform: translate(-50%, -50%); border:5px solid black"">","","","","",""
"","stimuli-presentation","124","473710","0.0-32.0-1.2","SS1627326747790","","5740.600000023842","trial","","40","500","6240.600000023842","images/stimuli/complex_17_A_a.gif","images/stimuli/complex_24_A_b.gif","forced_short","900","","","","","","7","complex_dissimilar","images/stimuli/complex_17_A_a.gif","",""
"","html-keyboard-response","125","474603","0.0-32.0-0.3","SS1627326747790","","null","","","null","","","","","","","","","","","<p><img src= images/blank.png width =""600"" height = ""600"" style=""position:fixed;top:50%; left:50%; transform: translate(-50%, -50%); border:5px solid black"">","","","","",""
"","stimuli-presentation","126","478609","0.0-32.0-1.3","SS1627326747790","","3490.7000000476837","trial","","40","500","3990.7000000476837","images/stimuli/complex_17_A_a.gif","images/stimuli/complex_24_A_b.gif","forced_short","900","","","","","","7","complex_dissimilar","images/stimuli/complex_17_A_a.gif","",""
"","html-keyboard-response","127","479430","0.0-32.0-0.4","SS1627326747790","","null","","","null","","","","","","","","","","","<p><img src= images/blank.png width =""600"" height = ""600"" style=""position:fixed;top:50%; left:50%; transform: translate(-50%, -50%); border:5px solid black"">","","","","",""
"","stimuli-presentation","128","484290","0.0-32.0-1.4","SS1627326747790","","4344.300000071526","trial","","40","500","4844.300000071526","images/stimuli/complex_17_A_a.gif","images/stimuli/complex_24_A_b.gif","forced_short","900","","","","","","7","complex_dissimilar","images/stimuli/complex_24_A_b.gif","",""
"","html-keyboard-response","129","485122","0.0-32.0-0.5","SS1627326747790","","null","","","null","","","","","","","","","","","<p><img src= images/blank.png width =""600"" height = ""600"" style=""position:fixed;top:50%; left:50%; transform: translate(-50%, -50%); border:5px solid black"">","","","","",""
"","stimuli-presentation","130","487241","0.0-32.0-1.5","SS1627326747790","","1601.6999999284744","trial","","40","500","2101.6999999284744","images/stimuli/complex_17_A_a.gif","images/stimuli/complex_24_A_b.gif","forced_short","900","","","","","","7","complex_dissimilar","images/stimuli/complex_24_A_b.gif","",""
"","html-keyboard-response","131","488168","0.0-32.0-0.6","SS1627326747790","","null","","","null","","","","","","","","","","","<p><img src= images/blank.png width =""600"" height = ""600"" style=""position:fixed;top:50%; left:50%; transform: translate(-50%, -50%); border:5px solid black"">","","","","",""
"","stimuli-presentation","132","490201","0.0-32.0-1.6","SS1627326747790","","1510.8000000715256","trial","","40","500","2010.8000000715256","images/stimuli/complex_17_A_a.gif","images/stimuli/complex_24_A_b.gif","forced_short","900","","","","","","7","complex_dissimilar","images/stimuli/complex_24_A_b.gif","",""
"","html-keyboard-response","133","491328","0.0-32.0-0.7","SS1627326747790","","null","","","null","","","","","","","","","","","<p><img src= images/blank.png width =""600"" height = ""600"" style=""position:fixed;top:50%; left:50%; transform: translate(-50%, -50%); border:5px solid black"">","","","","",""
"","stimuli-presentation","134","493322","0.0-32.0-1.7","SS1627326747790","","1483.1000000238419","trial","","40","500","1983.1000000238419","images/stimuli/complex_17_A_a.gif","images/stimuli/complex_24_A_b.gif","forced_short","900","","","","","","7","complex_dissimilar","images/stimuli/complex_24_A_b.gif","",""
"","survey-multi-choice","135","497459","0.0-33.0","SS1627326747790","","4127","memory_test","","","","","","","","","{""Q0"":""No""}","[0]","images/stimuli/complex_10_A_b.gif","7","","","","","",""
"","survey-multi-choice","136","499145","0.0-34.0","SS1627326747790","","1675","memory_test","","","","","","","","","{""Q0"":""Yes""}","[0]","images/stimuli/complex_24_A_b.gif","7","","","","","",""
"","instructions","137","505016","0.0-35.0","SS1627326747790","[{""page_index"":0,""viewing_time"":5864.899999976158}]","5865.5","instructions","","","","","","","","","","","","","","","","","",""
"","survey-likert","138","521944","0.0-36.0","SS1627326747790","","16917.600000023842","similarity_question","","","","","","","","","{""Q0"":2}","[0]","","","","","","","images/stimuli/complex_02_A_a.gif","images/stimuli/complex_08_A_b.gif"
"","survey-likert","139","528240","0.0-37.0","SS1627326747790","","6285.5","similarity_question","","","","","","","","","{""Q0"":1}","[0]","","","","","","","images/stimuli/complex_16_A_b.gif","images/stimuli/complex_12_A_a.gif"
"","survey-likert","140","538123","0.0-38.0","SS1627326747790","","9871.699999928474","similarity_question","","","","","","","","","{""Q0"":4}","[0]","","","","","","","images/stimuli/complex_09_A_a.gif","images/stimuli/complex_23_A_a.gif"
"","survey-likert","141","548122","0.0-39.0","SS1627326747790","","9988.299999952316","similarity_question","","","","","","","","","{""Q0"":4}","[0]","","","","","","","images/stimuli/complex_24_A_b.gif","images/stimuli/complex_17_A_a.gif"
"","survey-likert","142","555326","0.0-40.0","SS1627326747790","","7194.600000023842","similarity_question","","","","","","","","","{""Q0"":5}","[0]","","","","","","","images/stimuli/complex_13_A_b.gif","images/stimuli/complex_20_A_a.gif"
"","survey-likert","143","565777","0.0-41.0","SS1627326747790","","10442","similarity_question","","","","","","","","","{""Q0"":3}","[0]","","","","","","","images/stimuli/complex_07_A_a.gif","images/stimuli/complex_11_A_b.gif"
"","survey-likert","144","581708","0.0-42.0","SS1627326747790","","15921.299999952316","similarity_question","","","","","","","","","{""Q0"":4}","[0]","","","","","","","images/stimuli/complex_05_A_b.gif","images/stimuli/complex_21_A_b.gif"
"","survey-likert","145","589409","0.0-43.0","SS1627326747790","","7690.299999952316","similarity_question","","","","","","","","","{""Q0"":5}","[0]","","","","","","","images/stimuli/complex_06_A_b.gif","images/stimuli/complex_15_A_a.gif"
"","instructions","146","604802","0.0-44.0","SS1627326747790","[{""page_index"":0,""viewing_time"":15385.100000023842}]","15386","instructions","","","","","","","","","","","","","","","","","",""
"","survey-likert","147","612443","0.0-45.0","SS1627326747790","","7631.600000023842","","","","","","","","","","{""Q0"":3}","[0]","","","images/stimuli/complex_23_A_a.gif","","","","",""
"","survey-likert","148","622568","0.0-46.0","SS1627326747790","","10113","","","","","","","","","","{""Q0"":4}","[0]","","","images/stimuli/complex_16_A_b.gif","","","","",""
"","survey-likert","149","627068","0.0-47.0","SS1627326747790","","4488.799999952316","","","","","","","","","","{""Q0"":2}","[0]","","","images/stimuli/complex_08_A_b.gif","","","","",""
"","survey-likert","150","632801","0.0-48.0","SS1627326747790","","5722.399999976158","","","","","","","","","","{""Q0"":2}","[0]","","","images/stimuli/complex_20_A_a.gif","","","","",""
"","survey-likert","151","639684","0.0-49.0","SS1627326747790","","6872.800000071526","","","","","","","","","","{""Q0"":1}","[0]","","","images/stimuli/complex_05_A_b.gif","","","","",""
"","survey-likert","152","643927","0.0-50.0","SS1627326747790","","4231.200000047684","","","","","","","","","","{""Q0"":3}","[0]","","","images/stimuli/complex_07_A_a.gif","","","","",""
"","survey-likert","153","647903","0.0-51.0","SS1627326747790","","3963.100000023842","","","","","","","","","","{""Q0"":3}","[0]","","","images/stimuli/complex_06_A_b.gif","","","","",""
"","survey-likert","154","650937","0.0-52.0","SS1627326747790","","3021.2999999523163","","","","","","","","","","{""Q0"":2}","[0]","","","images/stimuli/complex_24_A_b.gif","","","","",""
"true","fullscreen","155","651956","0.0-53.0","SS1627326747790","","","","","","","","","","","","","","","","","","","","",""
"","instructions","156","654869","0.0-54.0","SS1627326747790","[{""page_index"":0,""viewing_time"":2906}]","2906.399999976158","instructions","","","","","","","","","","","","","","","","","",""
"","demog-age","157","661708","0.0-55.0","SS1627326747790","","6828.700000047684","","","","","","","","","","{""age"":""19""}","","","","","","","","",""
"","demog-ethnic-US","158","667075","0.0-56.0","SS1627326747790","","5351.299999952316","","","","","","","","","","{""ethnicity"":[""White""]}","[0]","","","","","","","",""
"","demog-gender-and-education","159","685062","0.0-57.0","SS1627326747790","","17975.100000023842","","","","","","","","","","{""gender"":""Female"",""education"":""High school diploma""}","[0,1]","","","","","","","",""
"","survey-text","160","694664","0.0-58.0","SS1627326747790","","9589.100000023842","feedback","","","","","","","","","{""Q0"":""Nope! all good""}","","","","","","","","",""
"","instructions","161","697248","0.0-59.0","SS1627326747790","[{""page_index"":0,""viewing_time"":2573.6999999284744}]","2574.399999976158","instructions","","","","","","","","","","","","","","","","","",""
