"success","trial_type","trial_index","time_elapsed","internal_node_id","subject","view_history","rt","stimulus_type","trial_stimulus","key_press","minimum_viewing_duration","trial_looking_time","block_deviant","block_background","exposure_type","forced_exposure_time","responses","question_order","memory_question_stimuli","memory_block_index","stimulus","block_number","block_type","stimulus_displayed","stimulus_left","stimulus_right"
"true","fullscreen","0","3408","0.0-0.0","SS1627326624115","","","","","","","","","","","","","","","","","","","","",""
"","instructions","1","29977","0.0-1.0","SS1627326624115","[{""page_index"":0,""viewing_time"":26566}]","26566","","","","","","","","","","","","","","","","","","",""
"","instructions","2","46042","0.0-2.0","SS1627326624115","[{""page_index"":0,""viewing_time"":10383.000000000007},{""page_index"":1,""viewing_time"":3678.9999999999927}]","14062","instructions","","","","","","","","","","","","","","","","","",""
"","stimuli-presentation","3","57008","0.0-3.0","SS1627326624115","","10464.000000000015","","","40","500","10964.000000000015","null","null","self_paced","0","","","","","","","","","",""
"","instructions","4","64507","0.0-4.0","SS1627326624115","[{""page_index"":0,""viewing_time"":7495}]","7495","instructions","","","","","","","","","","","","","","","","","",""
"","stimuli-presentation","5","71635","0.0-5.0","SS1627326624115","","6625","","","40","500","7125","null","null","forced_short","500","","","","","","","","","",""
"","stimuli-presentation","6","74279","0.0-6.0","SS1627326624115","","2141","","","40","500","2641","null","null","forced_short","500","","","","","","","","","",""
"","instructions","7","96493","0.0-7.0","SS1627326624115","[{""page_index"":0,""viewing_time"":22212}]","22212","instructions","","","","","","","","","","","","","","","","","",""
"","survey-multi-choice","8","99489","0.0-8.0","SS1627326624115","","2993","memory_test_practice","","","","","","","","","{""Q0"":""Yes""}","[0]","images/practice/instructions_example_spore2.gif","0","","","","","",""
"","survey-multi-choice","9","102626","0.0-9.0","SS1627326624115","","3136","memory_test_practice","","","","","","","","","{""Q0"":""No""}","[0]","images/practice/instructions_example_spore0.gif","0","","","","","",""
"","instructions","10","119037","0.0-10.0","SS1627326624115","[{""page_index"":0,""viewing_time"":15330},{""page_index"":1,""viewing_time"":1079}]","16409","instructions","","","","","","","","","","","","","","","","","",""
"","html-keyboard-response","11","120229","0.0-11.0-0.0","SS1627326624115","","null","","","null","","","","","","","","","","","<p><img src= images/blank.png width =""600"" height = ""600"" style=""position:fixed;top:50%; left:50%; transform: translate(-50%, -50%); border:5px solid black"">","","","","",""
"","stimuli-presentation","12","122764","0.0-11.0-1.0","SS1627326624115","","2183.000000000029","trial","","40","500","2683.000000000029","images/stimuli/complex_23_A_b.gif","images/stimuli/complex_04_A_a.gif","forced_short","350","","","","","","0","complex_dissimilar","images/stimuli/complex_04_A_a.gif","",""
"","html-keyboard-response","13","123868","0.0-11.0-0.1","SS1627326624115","","null","","","null","","","","","","","","","","","<p><img src= images/blank.png width =""600"" height = ""600"" style=""position:fixed;top:50%; left:50%; transform: translate(-50%, -50%); border:5px solid black"">","","","","",""
"","stimuli-presentation","14","131937","0.0-11.0-1.1","SS1627326624115","","7565.999999999971","trial","","40","500","8065.999999999971","images/stimuli/complex_23_A_b.gif","images/stimuli/complex_04_A_a.gif","forced_short","350","","","","","","0","complex_dissimilar","images/stimuli/complex_04_A_a.gif","",""
"","html-keyboard-response","15","132853","0.0-11.0-0.2","SS1627326624115","","null","","","null","","","","","","","","","","","<p><img src= images/blank.png width =""600"" height = ""600"" style=""position:fixed;top:50%; left:50%; transform: translate(-50%, -50%); border:5px solid black"">","","","","",""
"","stimuli-presentation","16","143775","0.0-11.0-1.2","SS1627326624115","","10416","trial","","40","500","10916","images/stimuli/complex_23_A_b.gif","images/stimuli/complex_04_A_a.gif","forced_short","350","","","","","","0","complex_dissimilar","images/stimuli/complex_04_A_a.gif","",""
"","html-keyboard-response","17","144775","0.0-11.0-0.3","SS1627326624115","","null","","","null","","","","","","","","","","","<p><img src= images/blank.png width =""600"" height = ""600"" style=""position:fixed;top:50%; left:50%; transform: translate(-50%, -50%); border:5px solid black"">","","","","",""
"","stimuli-presentation","18","147402","0.0-11.0-1.3","SS1627326624115","","2125.999999999971","trial","","40","500","2625.999999999971","images/stimuli/complex_23_A_b.gif","images/stimuli/complex_04_A_a.gif","forced_short","350","","","","","","0","complex_dissimilar","images/stimuli/complex_04_A_a.gif","",""
"","html-keyboard-response","19","148530","0.0-11.0-0.4","SS1627326624115","","null","","","null","","","","","","","","","","","<p><img src= images/blank.png width =""600"" height = ""600"" style=""position:fixed;top:50%; left:50%; transform: translate(-50%, -50%); border:5px solid black"">","","","","",""
"","stimuli-presentation","20","151617","0.0-11.0-1.4","SS1627326624115","","2584","trial","","40","500","3084","images/stimuli/complex_23_A_b.gif","images/stimuli/complex_04_A_a.gif","forced_short","350","","","","","","0","complex_dissimilar","images/stimuli/complex_04_A_a.gif","",""
"","html-keyboard-response","21","152626","0.0-11.0-0.5","SS1627326624115","","null","","","null","","","","","","","","","","","<p><img src= images/blank.png width =""600"" height = ""600"" style=""position:fixed;top:50%; left:50%; transform: translate(-50%, -50%); border:5px solid black"">","","","","",""
"","stimuli-presentation","22","155957","0.0-11.0-1.5","SS1627326624115","","2828","trial","","40","500","3328","images/stimuli/complex_23_A_b.gif","images/stimuli/complex_04_A_a.gif","forced_short","350","","","","","","0","complex_dissimilar","images/stimuli/complex_04_A_a.gif","",""
"","html-keyboard-response","23","156781","0.0-11.0-0.6","SS1627326624115","","null","","","null","","","","","","","","","","","<p><img src= images/blank.png width =""600"" height = ""600"" style=""position:fixed;top:50%; left:50%; transform: translate(-50%, -50%); border:5px solid black"">","","","","",""
"","stimuli-presentation","24","157870","0.0-11.0-1.6","SS1627326624115","","586","trial","","40","500","1086","images/stimuli/complex_23_A_b.gif","images/stimuli/complex_04_A_a.gif","forced_short","350","","","","","","0","complex_dissimilar","images/stimuli/complex_04_A_a.gif","",""
"","html-keyboard-response","25","158909","0.0-11.0-0.7","SS1627326624115","","null","","","null","","","","","","","","","","","<p><img src= images/blank.png width =""600"" height = ""600"" style=""position:fixed;top:50%; left:50%; transform: translate(-50%, -50%); border:5px solid black"">","","","","",""
"","stimuli-presentation","26","159809","0.0-11.0-1.7","SS1627326624115","","396","trial","","40","500","896","images/stimuli/complex_23_A_b.gif","images/stimuli/complex_04_A_a.gif","forced_short","350","","","","","","0","complex_dissimilar","images/stimuli/complex_04_A_a.gif","",""
"","survey-multi-choice","27","162875","0.0-12.0","SS1627326624115","","3064","memory_test","","","","","","","","","{""Q0"":""Yes""}","[0]","images/stimuli/complex_04_A_a.gif","0","","","","","",""
"","survey-multi-choice","28","164670","0.0-13.0","SS1627326624115","","1793","memory_test","","","","","","","","","{""Q0"":""No""}","[0]","images/stimuli/complex_21_A_a.gif","0","","","","","",""
"","html-keyboard-response","29","165678","0.0-14.0-0.0","SS1627326624115","","null","","","null","","","","","","","","","","","<p><img src= images/blank.png width =""600"" height = ""600"" style=""position:fixed;top:50%; left:50%; transform: translate(-50%, -50%); border:5px solid black"">","","","","",""
"","stimuli-presentation","30","168430","0.0-14.0-1.0","SS1627326624115","","1958","trial","","40","500","2458","images/stimuli/complex_22_A_b.gif","images/stimuli/complex_13_A_a.gif","forced_short","790","","","","","","1","complex_dissimilar","images/stimuli/complex_13_A_a.gif","",""
"","html-keyboard-response","31","169502","0.0-14.0-0.1","SS1627326624115","","null","","","null","","","","","","","","","","","<p><img src= images/blank.png width =""600"" height = ""600"" style=""position:fixed;top:50%; left:50%; transform: translate(-50%, -50%); border:5px solid black"">","","","","",""
"","stimuli-presentation","32","172171","0.0-14.0-1.1","SS1627326624115","","2166","trial","","40","500","2666","images/stimuli/complex_22_A_b.gif","images/stimuli/complex_13_A_a.gif","forced_short","790","","","","","","1","complex_dissimilar","images/stimuli/complex_13_A_a.gif","",""
"","html-keyboard-response","33","173059","0.0-14.0-0.2","SS1627326624115","","null","","","null","","","","","","","","","","","<p><img src= images/blank.png width =""600"" height = ""600"" style=""position:fixed;top:50%; left:50%; transform: translate(-50%, -50%); border:5px solid black"">","","","","",""
"","stimuli-presentation","34","175286","0.0-14.0-1.2","SS1627326624115","","1723","trial","","40","500","2223","images/stimuli/complex_22_A_b.gif","images/stimuli/complex_13_A_a.gif","forced_short","790","","","","","","1","complex_dissimilar","images/stimuli/complex_13_A_a.gif","",""
"","html-keyboard-response","35","176110","0.0-14.0-0.3","SS1627326624115","","null","","","null","","","","","","","","","","","<p><img src= images/blank.png width =""600"" height = ""600"" style=""position:fixed;top:50%; left:50%; transform: translate(-50%, -50%); border:5px solid black"">","","","","",""
"","stimuli-presentation","36","179680","0.0-14.0-1.3","SS1627326624115","","3067","trial","","40","500","3567","images/stimuli/complex_22_A_b.gif","images/stimuli/complex_13_A_a.gif","forced_short","790","","","","","","1","complex_dissimilar","images/stimuli/complex_22_A_b.gif","",""
"","html-keyboard-response","37","180796","0.0-14.0-0.4","SS1627326624115","","null","","","null","","","","","","","","","","","<p><img src= images/blank.png width =""600"" height = ""600"" style=""position:fixed;top:50%; left:50%; transform: translate(-50%, -50%); border:5px solid black"">","","","","",""
"","stimuli-presentation","38","182231","0.0-14.0-1.4","SS1627326624115","","931","trial","","40","500","1431","images/stimuli/complex_22_A_b.gif","images/stimuli/complex_13_A_a.gif","forced_short","790","","","","","","1","complex_dissimilar","images/stimuli/complex_13_A_a.gif","",""
"","html-keyboard-response","39","183525","0.0-14.0-0.5","SS1627326624115","","null","","","null","","","","","","","","","","","<p><img src= images/blank.png width =""600"" height = ""600"" style=""position:fixed;top:50%; left:50%; transform: translate(-50%, -50%); border:5px solid black"">","","","","",""
"","stimuli-presentation","40","184724","0.0-14.0-1.5","SS1627326624115","","695","trial","","40","500","1195","images/stimuli/complex_22_A_b.gif","images/stimuli/complex_13_A_a.gif","forced_short","790","","","","","","1","complex_dissimilar","images/stimuli/complex_13_A_a.gif","",""
"","html-keyboard-response","41","185587","0.0-14.0-0.6","SS1627326624115","","null","","","null","","","","","","","","","","","<p><img src= images/blank.png width =""600"" height = ""600"" style=""position:fixed;top:50%; left:50%; transform: translate(-50%, -50%); border:5px solid black"">","","","","",""
"","stimuli-presentation","42","187494","0.0-14.0-1.6","SS1627326624115","","1402","trial","","40","500","1902","images/stimuli/complex_22_A_b.gif","images/stimuli/complex_13_A_a.gif","forced_short","790","","","","","","1","complex_dissimilar","images/stimuli/complex_13_A_a.gif","",""
"","survey-multi-choice","43","190072","0.0-15.0","SS1627326624115","","2577","memory_test","","","","","","","","","{""Q0"":""Yes""}","[0]","images/stimuli/complex_13_A_a.gif","1","","","","","",""
"","survey-multi-choice","44","191811","0.0-16.0","SS1627326624115","","1736","memory_test","","","","","","","","","{""Q0"":""No""}","[0]","images/stimuli/complex_16_A_b.gif","1","","","","","",""
"","html-keyboard-response","45","192666","0.0-17.0-0.0","SS1627326624115","","null","","","null","","","","","","","","","","","<p><img src= images/blank.png width =""600"" height = ""600"" style=""position:fixed;top:50%; left:50%; transform: translate(-50%, -50%); border:5px solid black"">","","","","",""
"","stimuli-presentation","46","194331","0.0-17.0-1.0","SS1627326624115","","1232","trial","","40","500","1732","images/stimuli/complex_11_A_b.gif","images/stimuli/complex_15_A_b.gif","forced_short","430","","","","","","2","complex_dissimilar","images/stimuli/complex_15_A_b.gif","",""
"","html-keyboard-response","47","195362","0.0-17.0-0.1","SS1627326624115","","null","","","null","","","","","","","","","","","<p><img src= images/blank.png width =""600"" height = ""600"" style=""position:fixed;top:50%; left:50%; transform: translate(-50%, -50%); border:5px solid black"">","","","","",""
"","stimuli-presentation","48","196829","0.0-17.0-1.1","SS1627326624115","","963","trial","","40","500","1463","images/stimuli/complex_11_A_b.gif","images/stimuli/complex_15_A_b.gif","forced_short","430","","","","","","2","complex_dissimilar","images/stimuli/complex_15_A_b.gif","",""
"","html-keyboard-response","49","197951","0.0-17.0-0.2","SS1627326624115","","null","","","null","","","","","","","","","","","<p><img src= images/blank.png width =""600"" height = ""600"" style=""position:fixed;top:50%; left:50%; transform: translate(-50%, -50%); border:5px solid black"">","","","","",""
"","stimuli-presentation","50","201642","0.0-17.0-1.2","SS1627326624115","","3188","trial","","40","500","3688","images/stimuli/complex_11_A_b.gif","images/stimuli/complex_15_A_b.gif","forced_short","430","","","","","","2","complex_dissimilar","images/stimuli/complex_11_A_b.gif","",""
"","html-keyboard-response","51","202575","0.0-17.0-0.3","SS1627326624115","","null","","","null","","","","","","","","","","","<p><img src= images/blank.png width =""600"" height = ""600"" style=""position:fixed;top:50%; left:50%; transform: translate(-50%, -50%); border:5px solid black"">","","","","",""
"","stimuli-presentation","52","204936","0.0-17.0-1.3","SS1627326624115","","1857","trial","","40","500","2357","images/stimuli/complex_11_A_b.gif","images/stimuli/complex_15_A_b.gif","forced_short","430","","","","","","2","complex_dissimilar","images/stimuli/complex_15_A_b.gif","",""
"","html-keyboard-response","53","205821","0.0-17.0-0.4","SS1627326624115","","null","","","null","","","","","","","","","","","<p><img src= images/blank.png width =""600"" height = ""600"" style=""position:fixed;top:50%; left:50%; transform: translate(-50%, -50%); border:5px solid black"">","","","","",""
"","stimuli-presentation","54","208645","0.0-17.0-1.4","SS1627326624115","","2320","trial","","40","500","2820","images/stimuli/complex_11_A_b.gif","images/stimuli/complex_15_A_b.gif","forced_short","430","","","","","","2","complex_dissimilar","images/stimuli/complex_11_A_b.gif","",""
"","html-keyboard-response","55","209738","0.0-17.0-0.5","SS1627326624115","","null","","","null","","","","","","","","","","","<p><img src= images/blank.png width =""600"" height = ""600"" style=""position:fixed;top:50%; left:50%; transform: translate(-50%, -50%); border:5px solid black"">","","","","",""
"","stimuli-presentation","56","211262","0.0-17.0-1.5","SS1627326624115","","1019.9999999999709","trial","","40","500","1519.999999999971","images/stimuli/complex_11_A_b.gif","images/stimuli/complex_15_A_b.gif","forced_short","430","","","","","","2","complex_dissimilar","images/stimuli/complex_15_A_b.gif","",""
"","html-keyboard-response","57","212548","0.0-17.0-0.6","SS1627326624115","","null","","","null","","","","","","","","","","","<p><img src= images/blank.png width =""600"" height = ""600"" style=""position:fixed;top:50%; left:50%; transform: translate(-50%, -50%); border:5px solid black"">","","","","",""
"","stimuli-presentation","58","213187","0.0-17.0-1.6","SS1627326624115","","135","trial","","40","500","635","images/stimuli/complex_11_A_b.gif","images/stimuli/complex_15_A_b.gif","forced_short","430","","","","","","2","complex_dissimilar","images/stimuli/complex_15_A_b.gif","",""
"","html-keyboard-response","59","214052","0.0-17.0-0.7","SS1627326624115","","null","","","null","","","","","","","","","","","<p><img src= images/blank.png width =""600"" height = ""600"" style=""position:fixed;top:50%; left:50%; transform: translate(-50%, -50%); border:5px solid black"">","","","","",""
"","stimuli-presentation","60","215135","0.0-17.0-1.7","SS1627326624115","","577","trial","","40","500","1077","images/stimuli/complex_11_A_b.gif","images/stimuli/complex_15_A_b.gif","forced_short","430","","","","","","2","complex_dissimilar","images/stimuli/complex_15_A_b.gif","",""
"","survey-multi-choice","61","218260","0.0-18.0","SS1627326624115","","3122.000000000029","memory_test","","","","","","","","","{""Q0"":""Yes""}","[0]","images/stimuli/complex_11_A_b.gif","2","","","","","",""
"","survey-multi-choice","62","219798","0.0-19.0","SS1627326624115","","1537","memory_test","","","","","","","","","{""Q0"":""No""}","[0]","images/stimuli/complex_03_A_a.gif","2","","","","","",""
"","html-keyboard-response","63","221023","0.0-20.0-0.0","SS1627326624115","","null","","","null","","","","","","","","","","","<p><img src= images/blank.png width =""600"" height = ""600"" style=""position:fixed;top:50%; left:50%; transform: translate(-50%, -50%); border:5px solid black"">","","","","",""
"","stimuli-presentation","64","222989","0.0-20.0-1.0","SS1627326624115","","1113","trial","","40","500","1613","images/stimuli/complex_06_A_a.gif","images/stimuli/complex_02_A_b.gif","forced_short","850","","","","","","3","complex_dissimilar","images/stimuli/complex_02_A_b.gif","",""
"","html-keyboard-response","65","223804","0.0-20.0-0.1","SS1627326624115","","null","","","null","","","","","","","","","","","<p><img src= images/blank.png width =""600"" height = ""600"" style=""position:fixed;top:50%; left:50%; transform: translate(-50%, -50%); border:5px solid black"">","","","","",""
"","stimuli-presentation","66","225165","0.0-20.0-1.1","SS1627326624115","","857","trial","","40","500","1357","images/stimuli/complex_06_A_a.gif","images/stimuli/complex_02_A_b.gif","forced_short","850","","","","","","3","complex_dissimilar","images/stimuli/complex_02_A_b.gif","",""
"","html-keyboard-response","67","226021","0.0-20.0-0.2","SS1627326624115","","null","","","null","","","","","","","","","","","<p><img src= images/blank.png width =""600"" height = ""600"" style=""position:fixed;top:50%; left:50%; transform: translate(-50%, -50%); border:5px solid black"">","","","","",""
"","stimuli-presentation","68","226683","0.0-20.0-1.2","SS1627326624115","","158.0000000000291","trial","","40","500","658.0000000000291","images/stimuli/complex_06_A_a.gif","images/stimuli/complex_02_A_b.gif","forced_short","850","","","","","","3","complex_dissimilar","images/stimuli/complex_02_A_b.gif","",""
"","html-keyboard-response","69","227983","0.0-20.0-0.3","SS1627326624115","","null","","","null","","","","","","","","","","","<p><img src= images/blank.png width =""600"" height = ""600"" style=""position:fixed;top:50%; left:50%; transform: translate(-50%, -50%); border:5px solid black"">","","","","",""
"","stimuli-presentation","70","228563","0.0-20.0-1.3","SS1627326624115","","76.9999999999709","trial","","40","500","576.9999999999709","images/stimuli/complex_06_A_a.gif","images/stimuli/complex_02_A_b.gif","forced_short","850","","","","","","3","complex_dissimilar","images/stimuli/complex_02_A_b.gif","",""
"","html-keyboard-response","71","229855","0.0-20.0-0.4","SS1627326624115","","null","","","null","","","","","","","","","","","<p><img src= images/blank.png width =""600"" height = ""600"" style=""position:fixed;top:50%; left:50%; transform: translate(-50%, -50%); border:5px solid black"">","","","","",""
"","stimuli-presentation","72","230841","0.0-20.0-1.4","SS1627326624115","","482","trial","","40","500","982","images/stimuli/complex_06_A_a.gif","images/stimuli/complex_02_A_b.gif","forced_short","850","","","","","","3","complex_dissimilar","images/stimuli/complex_02_A_b.gif","",""
"","html-keyboard-response","73","231886","0.0-20.0-0.5","SS1627326624115","","null","","","null","","","","","","","","","","","<p><img src= images/blank.png width =""600"" height = ""600"" style=""position:fixed;top:50%; left:50%; transform: translate(-50%, -50%); border:5px solid black"">","","","","",""
"","stimuli-presentation","74","233010","0.0-20.0-1.5","SS1627326624115","","620.0000000000291","trial","","40","500","1120.000000000029","images/stimuli/complex_06_A_a.gif","images/stimuli/complex_02_A_b.gif","forced_short","850","","","","","","3","complex_dissimilar","images/stimuli/complex_02_A_b.gif","",""
"","html-keyboard-response","75","233863","0.0-20.0-0.6","SS1627326624115","","null","","","null","","","","","","","","","","","<p><img src= images/blank.png width =""600"" height = ""600"" style=""position:fixed;top:50%; left:50%; transform: translate(-50%, -50%); border:5px solid black"">","","","","",""
"","stimuli-presentation","76","236482","0.0-20.0-1.6","SS1627326624115","","2116","trial","","40","500","2616","images/stimuli/complex_06_A_a.gif","images/stimuli/complex_02_A_b.gif","forced_short","850","","","","","","3","complex_dissimilar","images/stimuli/complex_06_A_a.gif","",""
"","html-keyboard-response","77","237619","0.0-20.0-0.7","SS1627326624115","","null","","","null","","","","","","","","","","","<p><img src= images/blank.png width =""600"" height = ""600"" style=""position:fixed;top:50%; left:50%; transform: translate(-50%, -50%); border:5px solid black"">","","","","",""
"","stimuli-presentation","78","238946","0.0-20.0-1.7","SS1627326624115","","822.9999999999709","trial","","40","500","1322.999999999971","images/stimuli/complex_06_A_a.gif","images/stimuli/complex_02_A_b.gif","forced_short","850","","","","","","3","complex_dissimilar","images/stimuli/complex_02_A_b.gif","",""
"","survey-multi-choice","79","241882","0.0-21.0","SS1627326624115","","2933","memory_test","","","","","","","","","{""Q0"":""Yes""}","[0]","images/stimuli/complex_06_A_a.gif","3","","","","","",""
"","survey-multi-choice","80","243853","0.0-22.0","SS1627326624115","","1969","memory_test","","","","","","","","","{""Q0"":""No""}","[0]","images/stimuli/complex_05_A_a.gif","3","","","","","",""
"","html-keyboard-response","81","244694","0.0-23.0-0.0","SS1627326624115","","null","","","null","","","","","","","","","","","<p><img src= images/blank.png width =""600"" height = ""600"" style=""position:fixed;top:50%; left:50%; transform: translate(-50%, -50%); border:5px solid black"">","","","","",""
"","stimuli-presentation","82","246361","0.0-23.0-1.0","SS1627326624115","","1403.000000000029","trial","","40","500","1903.000000000029","images/stimuli/complex_08_A_b.gif","images/stimuli/complex_20_A_a.gif","forced_short","260","","","","","","4","complex_dissimilar","images/stimuli/complex_20_A_a.gif","",""
"","html-keyboard-response","83","247537","0.0-23.0-0.1","SS1627326624115","","null","","","null","","","","","","","","","","","<p><img src= images/blank.png width =""600"" height = ""600"" style=""position:fixed;top:50%; left:50%; transform: translate(-50%, -50%); border:5px solid black"">","","","","",""
"","stimuli-presentation","84","249640","0.0-23.0-1.1","SS1627326624115","","1601","trial","","40","500","2101","images/stimuli/complex_08_A_b.gif","images/stimuli/complex_20_A_a.gif","forced_short","260","","","","","","4","complex_dissimilar","images/stimuli/complex_20_A_a.gif","",""
"","html-keyboard-response","85","250504","0.0-23.0-0.2","SS1627326624115","","null","","","null","","","","","","","","","","","<p><img src= images/blank.png width =""600"" height = ""600"" style=""position:fixed;top:50%; left:50%; transform: translate(-50%, -50%); border:5px solid black"">","","","","",""
"","stimuli-presentation","86","252340","0.0-23.0-1.2","SS1627326624115","","1331","trial","","40","500","1831","images/stimuli/complex_08_A_b.gif","images/stimuli/complex_20_A_a.gif","forced_short","260","","","","","","4","complex_dissimilar","images/stimuli/complex_20_A_a.gif","",""
"","html-keyboard-response","87","253581","0.0-23.0-0.3","SS1627326624115","","null","","","null","","","","","","","","","","","<p><img src= images/blank.png width =""600"" height = ""600"" style=""position:fixed;top:50%; left:50%; transform: translate(-50%, -50%); border:5px solid black"">","","","","",""
"","stimuli-presentation","88","254957","0.0-23.0-1.3","SS1627326624115","","871","trial","","40","500","1371","images/stimuli/complex_08_A_b.gif","images/stimuli/complex_20_A_a.gif","forced_short","260","","","","","","4","complex_dissimilar","images/stimuli/complex_20_A_a.gif","",""
"","html-keyboard-response","89","255967","0.0-23.0-0.4","SS1627326624115","","null","","","null","","","","","","","","","","","<p><img src= images/blank.png width =""600"" height = ""600"" style=""position:fixed;top:50%; left:50%; transform: translate(-50%, -50%); border:5px solid black"">","","","","",""
"","stimuli-presentation","90","257013","0.0-23.0-1.4","SS1627326624115","","542","trial","","40","500","1042","images/stimuli/complex_08_A_b.gif","images/stimuli/complex_20_A_a.gif","forced_short","260","","","","","","4","complex_dissimilar","images/stimuli/complex_20_A_a.gif","",""
"","html-keyboard-response","91","258219","0.0-23.0-0.5","SS1627326624115","","null","","","null","","","","","","","","","","","<p><img src= images/blank.png width =""600"" height = ""600"" style=""position:fixed;top:50%; left:50%; transform: translate(-50%, -50%); border:5px solid black"">","","","","",""
"","stimuli-presentation","92","259033","0.0-23.0-1.5","SS1627326624115","","310","trial","","40","500","810","images/stimuli/complex_08_A_b.gif","images/stimuli/complex_20_A_a.gif","forced_short","260","","","","","","4","complex_dissimilar","images/stimuli/complex_20_A_a.gif","",""
"","html-keyboard-response","93","259854","0.0-23.0-0.6","SS1627326624115","","null","","","null","","","","","","","","","","","<p><img src= images/blank.png width =""600"" height = ""600"" style=""position:fixed;top:50%; left:50%; transform: translate(-50%, -50%); border:5px solid black"">","","","","",""
"","stimuli-presentation","94","260776","0.0-23.0-1.6","SS1627326624115","","418","trial","","40","500","918","images/stimuli/complex_08_A_b.gif","images/stimuli/complex_20_A_a.gif","forced_short","260","","","","","","4","complex_dissimilar","images/stimuli/complex_20_A_a.gif","",""
"","html-keyboard-response","95","261798","0.0-23.0-0.7","SS1627326624115","","null","","","null","","","","","","","","","","","<p><img src= images/blank.png width =""600"" height = ""600"" style=""position:fixed;top:50%; left:50%; transform: translate(-50%, -50%); border:5px solid black"">","","","","",""
"","stimuli-presentation","96","262405","0.0-23.0-1.7","SS1627326624115","","103","trial","","40","500","603","images/stimuli/complex_08_A_b.gif","images/stimuli/complex_20_A_a.gif","forced_short","260","","","","","","4","complex_dissimilar","images/stimuli/complex_20_A_a.gif","",""
"","survey-multi-choice","97","266316","0.0-24.0","SS1627326624115","","3909","memory_test","","","","","","","","","{""Q0"":""Yes""}","[0]","images/stimuli/complex_20_A_a.gif","4","","","","","",""
"","survey-multi-choice","98","278383","0.0-25.0","SS1627326624115","","12064.000000000058","memory_test","","","","","","","","","{""Q0"":""Yes""}","[0]","images/stimuli/complex_14_A_b.gif","4","","","","","",""
"","html-keyboard-response","99","279525","0.0-26.0-0.0","SS1627326624115","","null","","","null","","","","","","","","","","","<p><img src= images/blank.png width =""600"" height = ""600"" style=""position:fixed;top:50%; left:50%; transform: translate(-50%, -50%); border:5px solid black"">","","","","",""
"","stimuli-presentation","100","280903","0.0-26.0-1.0","SS1627326624115","","1124","trial","","40","500","1624","images/stimuli/complex_24_A_b.gif","images/stimuli/complex_01_A_a.gif","forced_short","250","","","","","","5","complex_dissimilar","images/stimuli/complex_01_A_a.gif","",""
"","html-keyboard-response","101","282021","0.0-26.0-0.1","SS1627326624115","","null","","","null","","","","","","","","","","","<p><img src= images/blank.png width =""600"" height = ""600"" style=""position:fixed;top:50%; left:50%; transform: translate(-50%, -50%); border:5px solid black"">","","","","",""
"","stimuli-presentation","102","284140","0.0-26.0-1.1","SS1627326624115","","1616","trial","","40","500","2116","images/stimuli/complex_24_A_b.gif","images/stimuli/complex_01_A_a.gif","forced_short","250","","","","","","5","complex_dissimilar","images/stimuli/complex_01_A_a.gif","",""
"","html-keyboard-response","103","285179","0.0-26.0-0.2","SS1627326624115","","null","","","null","","","","","","","","","","","<p><img src= images/blank.png width =""600"" height = ""600"" style=""position:fixed;top:50%; left:50%; transform: translate(-50%, -50%); border:5px solid black"">","","","","",""
"","stimuli-presentation","104","287373","0.0-26.0-1.2","SS1627326624115","","1687","trial","","40","500","2187","images/stimuli/complex_24_A_b.gif","images/stimuli/complex_01_A_a.gif","forced_short","250","","","","","","5","complex_dissimilar","images/stimuli/complex_24_A_b.gif","",""
"","html-keyboard-response","105","288318","0.0-26.0-0.3","SS1627326624115","","null","","","null","","","","","","","","","","","<p><img src= images/blank.png width =""600"" height = ""600"" style=""position:fixed;top:50%; left:50%; transform: translate(-50%, -50%); border:5px solid black"">","","","","",""
"","stimuli-presentation","106","289373","0.0-26.0-1.3","SS1627326624115","","549","trial","","40","500","1049","images/stimuli/complex_24_A_b.gif","images/stimuli/complex_01_A_a.gif","forced_short","250","","","","","","5","complex_dissimilar","images/stimuli/complex_01_A_a.gif","",""
"","html-keyboard-response","107","290371","0.0-26.0-0.4","SS1627326624115","","null","","","null","","","","","","","","","","","<p><img src= images/blank.png width =""600"" height = ""600"" style=""position:fixed;top:50%; left:50%; transform: translate(-50%, -50%); border:5px solid black"">","","","","",""
"","stimuli-presentation","108","291557","0.0-26.0-1.4","SS1627326624115","","683","trial","","40","500","1183","images/stimuli/complex_24_A_b.gif","images/stimuli/complex_01_A_a.gif","forced_short","250","","","","","","5","complex_dissimilar","images/stimuli/complex_01_A_a.gif","",""
"","html-keyboard-response","109","292642","0.0-26.0-0.5","SS1627326624115","","null","","","null","","","","","","","","","","","<p><img src= images/blank.png width =""600"" height = ""600"" style=""position:fixed;top:50%; left:50%; transform: translate(-50%, -50%); border:5px solid black"">","","","","",""
"","stimuli-presentation","110","293928","0.0-26.0-1.5","SS1627326624115","","782","trial","","40","500","1282","images/stimuli/complex_24_A_b.gif","images/stimuli/complex_01_A_a.gif","forced_short","250","","","","","","5","complex_dissimilar","images/stimuli/complex_01_A_a.gif","",""
"","html-keyboard-response","111","295203","0.0-26.0-0.6","SS1627326624115","","null","","","null","","","","","","","","","","","<p><img src= images/blank.png width =""600"" height = ""600"" style=""position:fixed;top:50%; left:50%; transform: translate(-50%, -50%); border:5px solid black"">","","","","",""
"","stimuli-presentation","112","295920","0.0-26.0-1.6","SS1627326624115","","214","trial","","40","500","714","images/stimuli/complex_24_A_b.gif","images/stimuli/complex_01_A_a.gif","forced_short","250","","","","","","5","complex_dissimilar","images/stimuli/complex_01_A_a.gif","",""
"","html-keyboard-response","113","297072","0.0-26.0-0.7","SS1627326624115","","null","","","null","","","","","","","","","","","<p><img src= images/blank.png width =""600"" height = ""600"" style=""position:fixed;top:50%; left:50%; transform: translate(-50%, -50%); border:5px solid black"">","","","","",""
"","stimuli-presentation","114","298067","0.0-26.0-1.7","SS1627326624115","","491","trial","","40","500","991","images/stimuli/complex_24_A_b.gif","images/stimuli/complex_01_A_a.gif","forced_short","250","","","","","","5","complex_dissimilar","images/stimuli/complex_01_A_a.gif","",""
"","survey-multi-choice","115","300331","0.0-27.0","SS1627326624115","","2262","memory_test","","","","","","","","","{""Q0"":""Yes""}","[0]","images/stimuli/complex_01_A_a.gif","5","","","","","",""
"","survey-multi-choice","116","303842","0.0-28.0","SS1627326624115","","3508","memory_test","","","","","","","","","{""Q0"":""No""}","[0]","images/stimuli/complex_19_A_b.gif","5","","","","","",""
"","html-keyboard-response","117","304811","0.0-29.0-0.0","SS1627326624115","","null","","","null","","","","","","","","","","","<p><img src= images/blank.png width =""600"" height = ""600"" style=""position:fixed;top:50%; left:50%; transform: translate(-50%, -50%); border:5px solid black"">","","","","",""
"","stimuli-presentation","118","306403","0.0-29.0-1.0","SS1627326624115","","708","trial","","40","500","1208","images/stimuli/complex_07_A_a.gif","images/stimuli/complex_09_A_a.gif","forced_short","880","","","","","","6","complex_dissimilar","images/stimuli/complex_09_A_a.gif","",""
"","html-keyboard-response","119","307532","0.0-29.0-0.1","SS1627326624115","","null","","","null","","","","","","","","","","","<p><img src= images/blank.png width =""600"" height = ""600"" style=""position:fixed;top:50%; left:50%; transform: translate(-50%, -50%); border:5px solid black"">","","","","",""
"","stimuli-presentation","120","310180","0.0-29.0-1.1","SS1627326624115","","2142","trial","","40","500","2642","images/stimuli/complex_07_A_a.gif","images/stimuli/complex_09_A_a.gif","forced_short","880","","","","","","6","complex_dissimilar","images/stimuli/complex_09_A_a.gif","",""
"","html-keyboard-response","121","311256","0.0-29.0-0.2","SS1627326624115","","null","","","null","","","","","","","","","","","<p><img src= images/blank.png width =""600"" height = ""600"" style=""position:fixed;top:50%; left:50%; transform: translate(-50%, -50%); border:5px solid black"">","","","","",""
"","stimuli-presentation","122","312209","0.0-29.0-1.2","SS1627326624115","","449","trial","","40","500","949","images/stimuli/complex_07_A_a.gif","images/stimuli/complex_09_A_a.gif","forced_short","880","","","","","","6","complex_dissimilar","images/stimuli/complex_09_A_a.gif","",""
"","html-keyboard-response","123","313363","0.0-29.0-0.3","SS1627326624115","","null","","","null","","","","","","","","","","","<p><img src= images/blank.png width =""600"" height = ""600"" style=""position:fixed;top:50%; left:50%; transform: translate(-50%, -50%); border:5px solid black"">","","","","",""
"","stimuli-presentation","124","318013","0.0-29.0-1.3","SS1627326624115","","4145","trial","","40","500","4645","images/stimuli/complex_07_A_a.gif","images/stimuli/complex_09_A_a.gif","forced_short","880","","","","","","6","complex_dissimilar","images/stimuli/complex_07_A_a.gif","",""
"","html-keyboard-response","125","319022","0.0-29.0-0.4","SS1627326624115","","null","","","null","","","","","","","","","","","<p><img src= images/blank.png width =""600"" height = ""600"" style=""position:fixed;top:50%; left:50%; transform: translate(-50%, -50%); border:5px solid black"">","","","","",""
"","stimuli-presentation","126","321913","0.0-29.0-1.4","SS1627326624115","","2385","trial","","40","500","2885","images/stimuli/complex_07_A_a.gif","images/stimuli/complex_09_A_a.gif","forced_short","880","","","","","","6","complex_dissimilar","images/stimuli/complex_09_A_a.gif","",""
"","html-keyboard-response","127","322745","0.0-29.0-0.5","SS1627326624115","","null","","","null","","","","","","","","","","","<p><img src= images/blank.png width =""600"" height = ""600"" style=""position:fixed;top:50%; left:50%; transform: translate(-50%, -50%); border:5px solid black"">","","","","",""
"","stimuli-presentation","128","326907","0.0-29.0-1.5","SS1627326624115","","3658","trial","","40","500","4158","images/stimuli/complex_07_A_a.gif","images/stimuli/complex_09_A_a.gif","forced_short","880","","","","","","6","complex_dissimilar","images/stimuli/complex_09_A_a.gif","",""
"","html-keyboard-response","129","328077","0.0-29.0-0.6","SS1627326624115","","null","","","null","","","","","","","","","","","<p><img src= images/blank.png width =""600"" height = ""600"" style=""position:fixed;top:50%; left:50%; transform: translate(-50%, -50%); border:5px solid black"">","","","","",""
"","stimuli-presentation","130","331515","0.0-29.0-1.6","SS1627326624115","","2935","trial","","40","500","3435","images/stimuli/complex_07_A_a.gif","images/stimuli/complex_09_A_a.gif","forced_short","880","","","","","","6","complex_dissimilar","images/stimuli/complex_09_A_a.gif","",""
"","html-keyboard-response","131","332485","0.0-29.0-0.7","SS1627326624115","","null","","","null","","","","","","","","","","","<p><img src= images/blank.png width =""600"" height = ""600"" style=""position:fixed;top:50%; left:50%; transform: translate(-50%, -50%); border:5px solid black"">","","","","",""
"","stimuli-presentation","132","333607","0.0-29.0-1.7","SS1627326624115","","617","trial","","40","500","1117","images/stimuli/complex_07_A_a.gif","images/stimuli/complex_09_A_a.gif","forced_short","880","","","","","","6","complex_dissimilar","images/stimuli/complex_09_A_a.gif","",""
"","survey-multi-choice","133","336667","0.0-30.0","SS1627326624115","","3058","memory_test","","","","","","","","","{""Q0"":""No""}","[0]","images/stimuli/complex_17_A_b.gif","6","","","","","",""
"","survey-multi-choice","134","338054","0.0-31.0","SS1627326624115","","1383.9999999999418","memory_test","","","","","","","","","{""Q0"":""Yes""}","[0]","images/stimuli/complex_07_A_a.gif","6","","","","","",""
"","html-keyboard-response","135","338959","0.0-32.0-0.0","SS1627326624115","","null","","","null","","","","","","","","","","","<p><img src= images/blank.png width =""600"" height = ""600"" style=""position:fixed;top:50%; left:50%; transform: translate(-50%, -50%); border:5px solid black"">","","","","",""
"","stimuli-presentation","136","341241","0.0-32.0-1.0","SS1627326624115","","1597","trial","","40","500","2097","images/stimuli/complex_10_A_b.gif","images/stimuli/complex_18_A_a.gif","forced_short","680","","","","","","7","complex_dissimilar","images/stimuli/complex_18_A_a.gif","",""
"","html-keyboard-response","137","342166","0.0-32.0-0.1","SS1627326624115","","null","","","null","","","","","","","","","","","<p><img src= images/blank.png width =""600"" height = ""600"" style=""position:fixed;top:50%; left:50%; transform: translate(-50%, -50%); border:5px solid black"">","","","","",""
"","stimuli-presentation","138","344718","0.0-32.0-1.1","SS1627326624115","","2045.0000000000582","trial","","40","500","2545.000000000058","images/stimuli/complex_10_A_b.gif","images/stimuli/complex_18_A_a.gif","forced_short","680","","","","","","7","complex_dissimilar","images/stimuli/complex_18_A_a.gif","",""
"","html-keyboard-response","139","345736","0.0-32.0-0.2","SS1627326624115","","null","","","null","","","","","","","","","","","<p><img src= images/blank.png width =""600"" height = ""600"" style=""position:fixed;top:50%; left:50%; transform: translate(-50%, -50%); border:5px solid black"">","","","","",""
"","stimuli-presentation","140","348470","0.0-32.0-1.2","SS1627326624115","","2229","trial","","40","500","2729","images/stimuli/complex_10_A_b.gif","images/stimuli/complex_18_A_a.gif","forced_short","680","","","","","","7","complex_dissimilar","images/stimuli/complex_18_A_a.gif","",""
"","html-keyboard-response","141","349487","0.0-32.0-0.3","SS1627326624115","","null","","","null","","","","","","","","","","","<p><img src= images/blank.png width =""600"" height = ""600"" style=""position:fixed;top:50%; left:50%; transform: translate(-50%, -50%); border:5px solid black"">","","","","",""
"","stimuli-presentation","142","350414","0.0-32.0-1.3","SS1627326624115","","423","trial","","40","500","923","images/stimuli/complex_10_A_b.gif","images/stimuli/complex_18_A_a.gif","forced_short","680","","","","","","7","complex_dissimilar","images/stimuli/complex_18_A_a.gif","",""
"","html-keyboard-response","143","351536","0.0-32.0-0.4","SS1627326624115","","null","","","null","","","","","","","","","","","<p><img src= images/blank.png width =""600"" height = ""600"" style=""position:fixed;top:50%; left:50%; transform: translate(-50%, -50%); border:5px solid black"">","","","","",""
"","stimuli-presentation","144","352481","0.0-32.0-1.4","SS1627326624115","","441","trial","","40","500","941","images/stimuli/complex_10_A_b.gif","images/stimuli/complex_18_A_a.gif","forced_short","680","","","","","","7","complex_dissimilar","images/stimuli/complex_18_A_a.gif","",""
"","html-keyboard-response","145","353525","0.0-32.0-0.5","SS1627326624115","","null","","","null","","","","","","","","","","","<p><img src= images/blank.png width =""600"" height = ""600"" style=""position:fixed;top:50%; left:50%; transform: translate(-50%, -50%); border:5px solid black"">","","","","",""
"","stimuli-presentation","146","354858","0.0-32.0-1.5","SS1627326624115","","829","trial","","40","500","1329","images/stimuli/complex_10_A_b.gif","images/stimuli/complex_18_A_a.gif","forced_short","680","","","","","","7","complex_dissimilar","images/stimuli/complex_10_A_b.gif","",""
"","html-keyboard-response","147","355989","0.0-32.0-0.6","SS1627326624115","","null","","","null","","","","","","","","","","","<p><img src= images/blank.png width =""600"" height = ""600"" style=""position:fixed;top:50%; left:50%; transform: translate(-50%, -50%); border:5px solid black"">","","","","",""
"","stimuli-presentation","148","356947","0.0-32.0-1.6","SS1627326624115","","454","trial","","40","500","954","images/stimuli/complex_10_A_b.gif","images/stimuli/complex_18_A_a.gif","forced_short","680","","","","","","7","complex_dissimilar","images/stimuli/complex_18_A_a.gif","",""
"","html-keyboard-response","149","357830","0.0-32.0-0.7","SS1627326624115","","null","","","null","","","","","","","","","","","<p><img src= images/blank.png width =""600"" height = ""600"" style=""position:fixed;top:50%; left:50%; transform: translate(-50%, -50%); border:5px solid black"">","","","","",""
"","stimuli-presentation","150","358749","0.0-32.0-1.7","SS1627326624115","","415","trial","","40","500","915","images/stimuli/complex_10_A_b.gif","images/stimuli/complex_18_A_a.gif","forced_short","680","","","","","","7","complex_dissimilar","images/stimuli/complex_18_A_a.gif","",""
"","survey-multi-choice","151","362587","0.0-33.0","SS1627326624115","","3835","memory_test","","","","","","","","","{""Q0"":""Yes""}","[0]","images/stimuli/complex_12_A_a.gif","7","","","","","",""
"","survey-multi-choice","152","367676","0.0-34.0","SS1627326624115","","5085","memory_test","","","","","","","","","{""Q0"":""Yes""}","[0]","images/stimuli/complex_10_A_b.gif","7","","","","","",""
"","instructions","153","374624","0.0-35.0","SS1627326624115","[{""page_index"":0,""viewing_time"":6945}]","6946","instructions","","","","","","","","","","","","","","","","","",""
"","survey-likert","154","381648","0.0-36.0","SS1627326624115","","7020","similarity_question","","","","","","","","","{""Q0"":5}","[0]","","","","","","","images/stimuli/complex_07_A_a.gif","images/stimuli/complex_09_A_a.gif"
"","survey-likert","155","388989","0.0-37.0","SS1627326624115","","7337","similarity_question","","","","","","","","","{""Q0"":4}","[0]","","","","","","","images/stimuli/complex_04_A_a.gif","images/stimuli/complex_23_A_b.gif"
"","survey-likert","156","393988","0.0-38.0","SS1627326624115","","4995","similarity_question","","","","","","","","","{""Q0"":2}","[0]","","","","","","","images/stimuli/complex_13_A_a.gif","images/stimuli/complex_22_A_b.gif"
"","survey-likert","157","399218","0.0-39.0","SS1627326624115","","5227","similarity_question","","","","","","","","","{""Q0"":4}","[0]","","","","","","","images/stimuli/complex_06_A_a.gif","images/stimuli/complex_02_A_b.gif"
"","survey-likert","158","408100","0.0-40.0","SS1627326624115","","8877.000000000058","similarity_question","","","","","","","","","{""Q0"":4}","[0]","","","","","","","images/stimuli/complex_01_A_a.gif","images/stimuli/complex_24_A_b.gif"
"","survey-likert","159","410844","0.0-41.0","SS1627326624115","","2742.000000000058","similarity_question","","","","","","","","","{""Q0"":2}","[0]","","","","","","","images/stimuli/complex_11_A_b.gif","images/stimuli/complex_15_A_b.gif"
"","survey-likert","160","415635","0.0-42.0","SS1627326624115","","4786","similarity_question","","","","","","","","","{""Q0"":2}","[0]","","","","","","","images/stimuli/complex_18_A_a.gif","images/stimuli/complex_10_A_b.gif"
"","survey-likert","161","419682","0.0-43.0","SS1627326624115","","4044","similarity_question","","","","","","","","","{""Q0"":4}","[0]","","","","","","","images/stimuli/complex_08_A_b.gif","images/stimuli/complex_20_A_a.gif"
"","instructions","162","423993","0.0-44.0","SS1627326624115","[{""page_index"":0,""viewing_time"":4308.000000000058}]","4308.000000000058","instructions","","","","","","","","","","","","","","","","","",""
"","survey-likert","163","450460","0.0-45.0","SS1627326624115","","26463","","","","","","","","","","{""Q0"":1}","[0]","","","images/stimuli/complex_01_A_a.gif","","","","",""
"","survey-likert","164","454813","0.0-46.0","SS1627326624115","","4349","","","","","","","","","","{""Q0"":4}","[0]","","","images/stimuli/complex_08_A_b.gif","","","","",""
"","survey-likert","165","458484","0.0-47.0","SS1627326624115","","3667","","","","","","","","","","{""Q0"":5}","[0]","","","images/stimuli/complex_18_A_a.gif","","","","",""
"","survey-likert","166","464928","0.0-48.0","SS1627326624115","","6440.999999999942","","","","","","","","","","{""Q0"":4}","[0]","","","images/stimuli/complex_15_A_b.gif","","","","",""
"","survey-likert","167","469770","0.0-49.0","SS1627326624115","","4837","","","","","","","","","","{""Q0"":4}","[0]","","","images/stimuli/complex_04_A_a.gif","","","","",""
"","survey-likert","168","473265","0.0-50.0","SS1627326624115","","3490","","","","","","","","","","{""Q0"":2}","[0]","","","images/stimuli/complex_02_A_b.gif","","","","",""
"","survey-likert","169","479422","0.0-51.0","SS1627326624115","","6152.999999999942","","","","","","","","","","{""Q0"":5}","[0]","","","images/stimuli/complex_13_A_a.gif","","","","",""
"","survey-likert","170","490305","0.0-52.0","SS1627326624115","","10879.000000000058","","","","","","","","","","{""Q0"":4}","[0]","","","images/stimuli/complex_07_A_a.gif","","","","",""
"true","fullscreen","171","491310","0.0-53.0","SS1627326624115","","","","","","","","","","","","","","","","","","","","",""
"","instructions","172","495858","0.0-54.0","SS1627326624115","[{""page_index"":0,""viewing_time"":4545.000000000058}]","4545.000000000058","instructions","","","","","","","","","","","","","","","","","",""
"","demog-age","173","498994","0.0-55.0","SS1627326624115","","3122","","","","","","","","","","{""age"":""22""}","","","","","","","","",""
"","demog-ethnic-US","174","508441","0.0-56.0","SS1627326624115","","9438","","","","","","","","","","{""ethnicity"":[""White""]}","[0]","","","","","","","",""
"","demog-gender-and-education","175","521684","0.0-57.0","SS1627326624115","","13239.999999999942","","","","","","","","","","{""gender"":""Female"",""education"":""Bachelor's Degree""}","[0,1]","","","","","","","",""
"","survey-text","176","526856","0.0-58.0","SS1627326624115","","5162","feedback","","","","","","","","","{""Q0"":""no""}","","","","","","","","",""
"","instructions","177","528171","0.0-59.0","SS1627326624115","[{""page_index"":0,""viewing_time"":1310}]","1312","instructions","","","","","","","","","","","","","","","","","",""
