"success","trial_type","trial_index","time_elapsed","internal_node_id","subject","view_history","rt","stimulus_type","trial_stimulus","key_press","minimum_viewing_duration","trial_looking_time","block_deviant","block_background","exposure_type","forced_exposure_time","responses","question_order","memory_question_stimuli","memory_block_index","stimulus","block_number","block_type","stimulus_displayed","stimulus_left","stimulus_right"
"true","fullscreen","0","3452","0.0-0.0","SS1627327008681","","","","","","","","","","","","","","","","","","","","",""
"","instructions","1","16842","0.0-1.0","SS1627327008681","[{""page_index"":0,""viewing_time"":13386.08500000555}]","13387.054999999236","","","","","","","","","","","","","","","","","","",""
"","instructions","2","77160","0.0-2.0","SS1627327008681","[{""page_index"":0,""viewing_time"":55340.380000008736},{""page_index"":1,""viewing_time"":2972.239999973681}]","58313.10500000836","instructions","","","","","","","","","","","","","","","","","",""
"","stimuli-presentation","3","89769","0.0-3.0","SS1627327008681","","12105.449999973644","","","40","500","12605.449999973644","null","null","self_paced","0","","","","","","","","","",""
"","instructions","4","97075","0.0-4.0","SS1627327008681","[{""page_index"":0,""viewing_time"":7303.955000010319}]","7304.319999995641","instructions","","","","","","","","","","","","","","","","","",""
"","stimuli-presentation","5","99807","0.0-5.0","SS1627327008681","","2228.034999978263","","","40","500","2728.034999978263","null","null","forced_short","500","","","","","","","","","",""
"","stimuli-presentation","6","102294","0.0-6.0","SS1627327008681","","1983.6249999934807","","","40","500","2483.6249999934807","null","null","forced_short","500","","","","","","","","","",""
"","instructions","7","118979","0.0-7.0","SS1627327008681","[{""page_index"":0,""viewing_time"":16683.28499997733}]","16683.65000002086","instructions","","","","","","","","","","","","","","","","","",""
"","survey-multi-choice","8","121768","0.0-8.0","SS1627327008681","","2784.0399999986403","memory_test_practice","","","","","","","","","{""Q0"":""Yes""}","[0]","images/practice/instructions_example_spore2.gif","0","","","","","",""
"","survey-multi-choice","9","124217","0.0-9.0","SS1627327008681","","2446.055000007618","memory_test_practice","","","","","","","","","{""Q0"":""No""}","[0]","images/practice/instructions_example_spore0.gif","0","","","","","",""
"","instructions","10","132029","0.0-10.0","SS1627327008681","[{""page_index"":0,""viewing_time"":6713.120000029448},{""page_index"":1,""viewing_time"":1096.5049999649636}]","7810.135000036098","instructions","","","","","","","","","","","","","","","","","",""
"","html-keyboard-response","11","133298","0.0-11.0-0.0","SS1627327008681","","null","","","null","","","","","","","","","","","<p><img src= images/blank.png width =""600"" height = ""600"" style=""position:fixed;top:50%; left:50%; transform: translate(-50%, -50%); border:5px solid black"">","","","","",""
"","stimuli-presentation","12","135634","0.0-11.0-1.0","SS1627327008681","","2066.915000032168","trial","","40","500","2566.915000032168","images/stimuli/complex_17_A_b.gif","images/stimuli/complex_03_A_a.gif","forced_short","260","","","","","","0","complex_dissimilar","images/stimuli/complex_03_A_a.gif","",""
"","html-keyboard-response","13","136490","0.0-11.0-0.1","SS1627327008681","","null","","","null","","","","","","","","","","","<p><img src= images/blank.png width =""600"" height = ""600"" style=""position:fixed;top:50%; left:50%; transform: translate(-50%, -50%); border:5px solid black"">","","","","",""
"","stimuli-presentation","14","146093","0.0-11.0-1.1","SS1627327008681","","9099.385000008624","trial","","40","500","9599.385000008624","images/stimuli/complex_17_A_b.gif","images/stimuli/complex_03_A_a.gif","forced_short","260","","","","","","0","complex_dissimilar","images/stimuli/complex_03_A_a.gif","",""
"","html-keyboard-response","15","147129","0.0-11.0-0.2","SS1627327008681","","null","","","null","","","","","","","","","","","<p><img src= images/blank.png width =""600"" height = ""600"" style=""position:fixed;top:50%; left:50%; transform: translate(-50%, -50%); border:5px solid black"">","","","","",""
"","stimuli-presentation","16","148685","0.0-11.0-1.2","SS1627327008681","","1051.4449999900535","trial","","40","500","1551.4449999900535","images/stimuli/complex_17_A_b.gif","images/stimuli/complex_03_A_a.gif","forced_short","260","","","","","","0","complex_dissimilar","images/stimuli/complex_03_A_a.gif","",""
"","html-keyboard-response","17","149722","0.0-11.0-0.3","SS1627327008681","","null","","","null","","","","","","","","","","","<p><img src= images/blank.png width =""600"" height = ""600"" style=""position:fixed;top:50%; left:50%; transform: translate(-50%, -50%); border:5px solid black"">","","","","",""
"","stimuli-presentation","18","152908","0.0-11.0-1.3","SS1627327008681","","2679.1749999974854","trial","","40","500","3179.1749999974854","images/stimuli/complex_17_A_b.gif","images/stimuli/complex_03_A_a.gif","forced_short","260","","","","","","0","complex_dissimilar","images/stimuli/complex_03_A_a.gif","",""
"","html-keyboard-response","19","154058","0.0-11.0-0.4","SS1627327008681","","null","","","null","","","","","","","","","","","<p><img src= images/blank.png width =""600"" height = ""600"" style=""position:fixed;top:50%; left:50%; transform: translate(-50%, -50%); border:5px solid black"">","","","","",""
"","stimuli-presentation","20","160244","0.0-11.0-1.4","SS1627327008681","","5676.769999961834","trial","","40","500","6176.769999961834","images/stimuli/complex_17_A_b.gif","images/stimuli/complex_03_A_a.gif","forced_short","260","","","","","","0","complex_dissimilar","images/stimuli/complex_03_A_a.gif","",""
"","html-keyboard-response","21","161260","0.0-11.0-0.5","SS1627327008681","","null","","","null","","","","","","","","","","","<p><img src= images/blank.png width =""600"" height = ""600"" style=""position:fixed;top:50%; left:50%; transform: translate(-50%, -50%); border:5px solid black"">","","","","",""
"","stimuli-presentation","22","163179","0.0-11.0-1.5","SS1627327008681","","1412.3850000323728","trial","","40","500","1912.3850000323728","images/stimuli/complex_17_A_b.gif","images/stimuli/complex_03_A_a.gif","forced_short","260","","","","","","0","complex_dissimilar","images/stimuli/complex_03_A_a.gif","",""
"","html-keyboard-response","23","164142","0.0-11.0-0.6","SS1627327008681","","null","","","null","","","","","","","","","","","<p><img src= images/blank.png width =""600"" height = ""600"" style=""position:fixed;top:50%; left:50%; transform: translate(-50%, -50%); border:5px solid black"">","","","","",""
"","stimuli-presentation","24","170318","0.0-11.0-1.6","SS1627327008681","","5673.8100000075065","trial","","40","500","6173.8100000075065","images/stimuli/complex_17_A_b.gif","images/stimuli/complex_03_A_a.gif","forced_short","260","","","","","","0","complex_dissimilar","images/stimuli/complex_17_A_b.gif","",""
"","survey-multi-choice","25","172282","0.0-12.0","SS1627327008681","","1962.4250000342727","memory_test","","","","","","","","","{""Q0"":""No""}","[0]","images/stimuli/complex_06_A_a.gif","0","","","","","",""
"","survey-multi-choice","26","173947","0.0-13.0","SS1627327008681","","1660.604999982752","memory_test","","","","","","","","","{""Q0"":""Yes""}","[0]","images/stimuli/complex_03_A_a.gif","0","","","","","",""
"","html-keyboard-response","27","174878","0.0-14.0-0.0","SS1627327008681","","null","","","null","","","","","","","","","","","<p><img src= images/blank.png width =""600"" height = ""600"" style=""position:fixed;top:50%; left:50%; transform: translate(-50%, -50%); border:5px solid black"">","","","","",""
"","stimuli-presentation","28","177163","0.0-14.0-1.0","SS1627327008681","","1686.6399999707937","trial","","40","500","2186.6399999707937","images/stimuli/complex_16_A_b.gif","images/stimuli/complex_24_A_a.gif","forced_short","590","","","","","","1","complex_dissimilar","images/stimuli/complex_24_A_a.gif","",""
"","html-keyboard-response","29","178077","0.0-14.0-0.1","SS1627327008681","","null","","","null","","","","","","","","","","","<p><img src= images/blank.png width =""600"" height = ""600"" style=""position:fixed;top:50%; left:50%; transform: translate(-50%, -50%); border:5px solid black"">","","","","",""
"","stimuli-presentation","30","181700","0.0-14.0-1.1","SS1627327008681","","3121.0549999959767","trial","","40","500","3621.0549999959767","images/stimuli/complex_16_A_b.gif","images/stimuli/complex_24_A_a.gif","forced_short","590","","","","","","1","complex_dissimilar","images/stimuli/complex_24_A_a.gif","",""
"","html-keyboard-response","31","182844","0.0-14.0-0.2","SS1627327008681","","null","","","null","","","","","","","","","","","<p><img src= images/blank.png width =""600"" height = ""600"" style=""position:fixed;top:50%; left:50%; transform: translate(-50%, -50%); border:5px solid black"">","","","","",""
"","stimuli-presentation","32","184532","0.0-14.0-1.2","SS1627327008681","","1182.6500000315718","trial","","40","500","1682.6500000315718","images/stimuli/complex_16_A_b.gif","images/stimuli/complex_24_A_a.gif","forced_short","590","","","","","","1","complex_dissimilar","images/stimuli/complex_24_A_a.gif","",""
"","html-keyboard-response","33","185490","0.0-14.0-0.3","SS1627327008681","","null","","","null","","","","","","","","","","","<p><img src= images/blank.png width =""600"" height = ""600"" style=""position:fixed;top:50%; left:50%; transform: translate(-50%, -50%); border:5px solid black"">","","","","",""
"","stimuli-presentation","34","186539","0.0-14.0-1.3","SS1627327008681","","544.579999987036","trial","","40","500","1044.579999987036","images/stimuli/complex_16_A_b.gif","images/stimuli/complex_24_A_a.gif","forced_short","590","","","","","","1","complex_dissimilar","images/stimuli/complex_24_A_a.gif","",""
"","html-keyboard-response","35","187828","0.0-14.0-0.4","SS1627327008681","","null","","","null","","","","","","","","","","","<p><img src= images/blank.png width =""600"" height = ""600"" style=""position:fixed;top:50%; left:50%; transform: translate(-50%, -50%); border:5px solid black"">","","","","",""
"","stimuli-presentation","36","188515","0.0-14.0-1.4","SS1627327008681","","178.11000003712252","trial","","40","500","678.1100000371225","images/stimuli/complex_16_A_b.gif","images/stimuli/complex_24_A_a.gif","forced_short","590","","","","","","1","complex_dissimilar","images/stimuli/complex_24_A_a.gif","",""
"","html-keyboard-response","37","189766","0.0-14.0-0.5","SS1627327008681","","null","","","null","","","","","","","","","","","<p><img src= images/blank.png width =""600"" height = ""600"" style=""position:fixed;top:50%; left:50%; transform: translate(-50%, -50%); border:5px solid black"">","","","","",""
"","stimuli-presentation","38","191299","0.0-14.0-1.5","SS1627327008681","","1028.7999999709427","trial","","40","500","1528.7999999709427","images/stimuli/complex_16_A_b.gif","images/stimuli/complex_24_A_a.gif","forced_short","590","","","","","","1","complex_dissimilar","images/stimuli/complex_24_A_a.gif","",""
"","survey-multi-choice","39","193089","0.0-15.0","SS1627327008681","","1787.4099999899045","memory_test","","","","","","","","","{""Q0"":""Yes""}","[0]","images/stimuli/complex_24_A_a.gif","1","","","","","",""
"","survey-multi-choice","40","194930","0.0-16.0","SS1627327008681","","1837.0299999951385","memory_test","","","","","","","","","{""Q0"":""No""}","[0]","images/stimuli/complex_19_A_b.gif","1","","","","","",""
"","html-keyboard-response","41","196019","0.0-17.0-0.0","SS1627327008681","","null","","","null","","","","","","","","","","","<p><img src= images/blank.png width =""600"" height = ""600"" style=""position:fixed;top:50%; left:50%; transform: translate(-50%, -50%); border:5px solid black"">","","","","",""
"","stimuli-presentation","42","198131","0.0-17.0-1.0","SS1627327008681","","1488.1249999743886","trial","","40","500","1988.1249999743886","images/stimuli/complex_23_A_b.gif","images/stimuli/complex_02_A_a.gif","forced_short","620","","","","","","2","complex_dissimilar","images/stimuli/complex_02_A_a.gif","",""
"","html-keyboard-response","43","199072","0.0-17.0-0.1","SS1627327008681","","null","","","null","","","","","","","","","","","<p><img src= images/blank.png width =""600"" height = ""600"" style=""position:fixed;top:50%; left:50%; transform: translate(-50%, -50%); border:5px solid black"">","","","","",""
"","stimuli-presentation","44","201747","0.0-17.0-1.1","SS1627327008681","","2170.2199999708682","trial","","40","500","2670.2199999708682","images/stimuli/complex_23_A_b.gif","images/stimuli/complex_02_A_a.gif","forced_short","620","","","","","","2","complex_dissimilar","images/stimuli/complex_02_A_a.gif","",""
"","html-keyboard-response","45","202821","0.0-17.0-0.2","SS1627327008681","","null","","","null","","","","","","","","","","","<p><img src= images/blank.png width =""600"" height = ""600"" style=""position:fixed;top:50%; left:50%; transform: translate(-50%, -50%); border:5px solid black"">","","","","",""
"","stimuli-presentation","46","203699","0.0-17.0-1.2","SS1627327008681","","373.4249999979511","trial","","40","500","873.4249999979511","images/stimuli/complex_23_A_b.gif","images/stimuli/complex_02_A_a.gif","forced_short","620","","","","","","2","complex_dissimilar","images/stimuli/complex_02_A_a.gif","",""
"","html-keyboard-response","47","204809","0.0-17.0-0.3","SS1627327008681","","null","","","null","","","","","","","","","","","<p><img src= images/blank.png width =""600"" height = ""600"" style=""position:fixed;top:50%; left:50%; transform: translate(-50%, -50%); border:5px solid black"">","","","","",""
"","stimuli-presentation","48","206003","0.0-17.0-1.3","SS1627327008681","","688.4150000405498","trial","","40","500","1188.4150000405498","images/stimuli/complex_23_A_b.gif","images/stimuli/complex_02_A_a.gif","forced_short","620","","","","","","2","complex_dissimilar","images/stimuli/complex_02_A_a.gif","",""
"","html-keyboard-response","49","206989","0.0-17.0-0.4","SS1627327008681","","null","","","null","","","","","","","","","","","<p><img src= images/blank.png width =""600"" height = ""600"" style=""position:fixed;top:50%; left:50%; transform: translate(-50%, -50%); border:5px solid black"">","","","","",""
"","stimuli-presentation","50","208659","0.0-17.0-1.4","SS1627327008681","","1165.0900000240654","trial","","40","500","1665.0900000240654","images/stimuli/complex_23_A_b.gif","images/stimuli/complex_02_A_a.gif","forced_short","620","","","","","","2","complex_dissimilar","images/stimuli/complex_02_A_a.gif","",""
"","html-keyboard-response","51","209790","0.0-17.0-0.5","SS1627327008681","","null","","","null","","","","","","","","","","","<p><img src= images/blank.png width =""600"" height = ""600"" style=""position:fixed;top:50%; left:50%; transform: translate(-50%, -50%); border:5px solid black"">","","","","",""
"","stimuli-presentation","52","210659","0.0-17.0-1.5","SS1627327008681","","361.9699999690056","trial","","40","500","861.9699999690056","images/stimuli/complex_23_A_b.gif","images/stimuli/complex_02_A_a.gif","forced_short","620","","","","","","2","complex_dissimilar","images/stimuli/complex_02_A_a.gif","",""
"","html-keyboard-response","53","211558","0.0-17.0-0.6","SS1627327008681","","null","","","null","","","","","","","","","","","<p><img src= images/blank.png width =""600"" height = ""600"" style=""position:fixed;top:50%; left:50%; transform: translate(-50%, -50%); border:5px solid black"">","","","","",""
"","stimuli-presentation","54","212675","0.0-17.0-1.6","SS1627327008681","","610.7300000148825","trial","","40","500","1110.7300000148825","images/stimuli/complex_23_A_b.gif","images/stimuli/complex_02_A_a.gif","forced_short","620","","","","","","2","complex_dissimilar","images/stimuli/complex_02_A_a.gif","",""
"","survey-multi-choice","55","214396","0.0-18.0","SS1627327008681","","1717.9550000000745","memory_test","","","","","","","","","{""Q0"":""No""}","[0]","images/stimuli/complex_20_A_a.gif","2","","","","","",""
"","survey-multi-choice","56","215660","0.0-19.0","SS1627327008681","","1260.1249999715947","memory_test","","","","","","","","","{""Q0"":""Yes""}","[0]","images/stimuli/complex_02_A_a.gif","2","","","","","",""
"","html-keyboard-response","57","216621","0.0-20.0-0.0","SS1627327008681","","null","","","null","","","","","","","","","","","<p><img src= images/blank.png width =""600"" height = ""600"" style=""position:fixed;top:50%; left:50%; transform: translate(-50%, -50%); border:5px solid black"">","","","","",""
"","stimuli-presentation","58","218258","0.0-20.0-1.0","SS1627327008681","","1150.0050000031479","trial","","40","500","1650.0050000031479","images/stimuli/complex_22_A_b.gif","images/stimuli/complex_07_A_a.gif","forced_short","480","","","","","","3","complex_dissimilar","images/stimuli/complex_07_A_a.gif","",""
"","html-keyboard-response","59","219429","0.0-20.0-0.1","SS1627327008681","","null","","","null","","","","","","","","","","","<p><img src= images/blank.png width =""600"" height = ""600"" style=""position:fixed;top:50%; left:50%; transform: translate(-50%, -50%); border:5px solid black"">","","","","",""
"","stimuli-presentation","60","220602","0.0-20.0-1.1","SS1627327008681","","668.2950000395067","trial","","40","500","1168.2950000395067","images/stimuli/complex_22_A_b.gif","images/stimuli/complex_07_A_a.gif","forced_short","480","","","","","","3","complex_dissimilar","images/stimuli/complex_07_A_a.gif","",""
"","html-keyboard-response","61","221811","0.0-20.0-0.2","SS1627327008681","","null","","","null","","","","","","","","","","","<p><img src= images/blank.png width =""600"" height = ""600"" style=""position:fixed;top:50%; left:50%; transform: translate(-50%, -50%); border:5px solid black"">","","","","",""
"","stimuli-presentation","62","222858","0.0-20.0-1.2","SS1627327008681","","542.090000002645","trial","","40","500","1042.090000002645","images/stimuli/complex_22_A_b.gif","images/stimuli/complex_07_A_a.gif","forced_short","480","","","","","","3","complex_dissimilar","images/stimuli/complex_07_A_a.gif","",""
"","html-keyboard-response","63","224003","0.0-20.0-0.3","SS1627327008681","","null","","","null","","","","","","","","","","","<p><img src= images/blank.png width =""600"" height = ""600"" style=""position:fixed;top:50%; left:50%; transform: translate(-50%, -50%); border:5px solid black"">","","","","",""
"","stimuli-presentation","64","224643","0.0-20.0-1.3","SS1627327008681","","135.8100000070408","trial","","40","500","635.8100000070408","images/stimuli/complex_22_A_b.gif","images/stimuli/complex_07_A_a.gif","forced_short","480","","","","","","3","complex_dissimilar","images/stimuli/complex_07_A_a.gif","",""
"","html-keyboard-response","65","225935","0.0-20.0-0.4","SS1627327008681","","null","","","null","","","","","","","","","","","<p><img src= images/blank.png width =""600"" height = ""600"" style=""position:fixed;top:50%; left:50%; transform: translate(-50%, -50%); border:5px solid black"">","","","","",""
"","stimuli-presentation","66","226947","0.0-20.0-1.4","SS1627327008681","","506.74000004073605","trial","","40","500","1006.740000040736","images/stimuli/complex_22_A_b.gif","images/stimuli/complex_07_A_a.gif","forced_short","480","","","","","","3","complex_dissimilar","images/stimuli/complex_07_A_a.gif","",""
"","html-keyboard-response","67","227917","0.0-20.0-0.5","SS1627327008681","","null","","","null","","","","","","","","","","","<p><img src= images/blank.png width =""600"" height = ""600"" style=""position:fixed;top:50%; left:50%; transform: translate(-50%, -50%); border:5px solid black"">","","","","",""
"","stimuli-presentation","68","228506","0.0-20.0-1.5","SS1627327008681","","85.03000001655892","trial","","40","500","585.0300000165589","images/stimuli/complex_22_A_b.gif","images/stimuli/complex_07_A_a.gif","forced_short","480","","","","","","3","complex_dissimilar","images/stimuli/complex_07_A_a.gif","",""
"","survey-multi-choice","69","230254","0.0-21.0","SS1627327008681","","1742.0899999560788","memory_test","","","","","","","","","{""Q0"":""Yes""}","[0]","images/stimuli/complex_07_A_a.gif","3","","","","","",""
"","survey-multi-choice","70","231723","0.0-22.0","SS1627327008681","","1464.8699999670498","memory_test","","","","","","","","","{""Q0"":""No""}","[0]","images/stimuli/complex_04_A_b.gif","3","","","","","",""
"","html-keyboard-response","71","232752","0.0-23.0-0.0","SS1627327008681","","null","","","null","","","","","","","","","","","<p><img src= images/blank.png width =""600"" height = ""600"" style=""position:fixed;top:50%; left:50%; transform: translate(-50%, -50%); border:5px solid black"">","","","","",""
"","stimuli-presentation","72","234514","0.0-23.0-1.0","SS1627327008681","","1486.9650000473484","trial","","40","500","1986.9650000473484","images/stimuli/complex_10_A_a.gif","images/stimuli/complex_01_A_b.gif","forced_short","270","","","","","","4","complex_dissimilar","images/stimuli/complex_01_A_b.gif","",""
"","html-keyboard-response","73","235722","0.0-23.0-0.1","SS1627327008681","","null","","","null","","","","","","","","","","","<p><img src= images/blank.png width =""600"" height = ""600"" style=""position:fixed;top:50%; left:50%; transform: translate(-50%, -50%); border:5px solid black"">","","","","",""
"","stimuli-presentation","74","239033","0.0-23.0-1.1","SS1627327008681","","2807.090000016615","trial","","40","500","3307.090000016615","images/stimuli/complex_10_A_a.gif","images/stimuli/complex_01_A_b.gif","forced_short","270","","","","","","4","complex_dissimilar","images/stimuli/complex_01_A_b.gif","",""
"","html-keyboard-response","75","239905","0.0-23.0-0.2","SS1627327008681","","null","","","null","","","","","","","","","","","<p><img src= images/blank.png width =""600"" height = ""600"" style=""position:fixed;top:50%; left:50%; transform: translate(-50%, -50%); border:5px solid black"">","","","","",""
"","stimuli-presentation","76","240625","0.0-23.0-1.2","SS1627327008681","","213.8899999554269","trial","","40","500","713.8899999554269","images/stimuli/complex_10_A_a.gif","images/stimuli/complex_01_A_b.gif","forced_short","270","","","","","","4","complex_dissimilar","images/stimuli/complex_01_A_b.gif","",""
"","html-keyboard-response","77","241577","0.0-23.0-0.3","SS1627327008681","","null","","","null","","","","","","","","","","","<p><img src= images/blank.png width =""600"" height = ""600"" style=""position:fixed;top:50%; left:50%; transform: translate(-50%, -50%); border:5px solid black"">","","","","",""
"","stimuli-presentation","78","242656","0.0-23.0-1.3","SS1627327008681","","575.8499999647029","trial","","40","500","1075.8499999647029","images/stimuli/complex_10_A_a.gif","images/stimuli/complex_01_A_b.gif","forced_short","270","","","","","","4","complex_dissimilar","images/stimuli/complex_01_A_b.gif","",""
"","html-keyboard-response","79","243898","0.0-23.0-0.4","SS1627327008681","","null","","","null","","","","","","","","","","","<p><img src= images/blank.png width =""600"" height = ""600"" style=""position:fixed;top:50%; left:50%; transform: translate(-50%, -50%); border:5px solid black"">","","","","",""
"","stimuli-presentation","80","244448","0.0-23.0-1.4","SS1627327008681","","45.84499995689839","trial","","40","500","545.8449999568984","images/stimuli/complex_10_A_a.gif","images/stimuli/complex_01_A_b.gif","forced_short","270","","","","","","4","complex_dissimilar","images/stimuli/complex_01_A_b.gif","",""
"","html-keyboard-response","81","245389","0.0-23.0-0.5","SS1627327008681","","null","","","null","","","","","","","","","","","<p><img src= images/blank.png width =""600"" height = ""600"" style=""position:fixed;top:50%; left:50%; transform: translate(-50%, -50%); border:5px solid black"">","","","","",""
"","stimuli-presentation","82","246176","0.0-23.0-1.5","SS1627327008681","","280.0550000392832","trial","","40","500","780.0550000392832","images/stimuli/complex_10_A_a.gif","images/stimuli/complex_01_A_b.gif","forced_short","270","","","","","","4","complex_dissimilar","images/stimuli/complex_01_A_b.gif","",""
"","html-keyboard-response","83","247159","0.0-23.0-0.6","SS1627327008681","","null","","","null","","","","","","","","","","","<p><img src= images/blank.png width =""600"" height = ""600"" style=""position:fixed;top:50%; left:50%; transform: translate(-50%, -50%); border:5px solid black"">","","","","",""
"","stimuli-presentation","84","247808","0.0-23.0-1.6","SS1627327008681","","144.62500001536682","trial","","40","500","644.6250000153668","images/stimuli/complex_10_A_a.gif","images/stimuli/complex_01_A_b.gif","forced_short","270","","","","","","4","complex_dissimilar","images/stimuli/complex_01_A_b.gif","",""
"","html-keyboard-response","85","248696","0.0-23.0-0.7","SS1627327008681","","null","","","null","","","","","","","","","","","<p><img src= images/blank.png width =""600"" height = ""600"" style=""position:fixed;top:50%; left:50%; transform: translate(-50%, -50%); border:5px solid black"">","","","","",""
"","stimuli-presentation","86","249616","0.0-23.0-1.7","SS1627327008681","","415.6150000053458","trial","","40","500","915.6150000053458","images/stimuli/complex_10_A_a.gif","images/stimuli/complex_01_A_b.gif","forced_short","270","","","","","","4","complex_dissimilar","images/stimuli/complex_01_A_b.gif","",""
"","survey-multi-choice","87","251313","0.0-24.0","SS1627327008681","","1695.000000006985","memory_test","","","","","","","","","{""Q0"":""No""}","[0]","images/stimuli/complex_08_A_a.gif","4","","","","","",""
"","survey-multi-choice","88","252486","0.0-25.0","SS1627327008681","","1167.7200000267476","memory_test","","","","","","","","","{""Q0"":""Yes""}","[0]","images/stimuli/complex_01_A_b.gif","4","","","","","",""
"","html-keyboard-response","89","253720","0.0-26.0-0.0","SS1627327008681","","null","","","null","","","","","","","","","","","<p><img src= images/blank.png width =""600"" height = ""600"" style=""position:fixed;top:50%; left:50%; transform: translate(-50%, -50%); border:5px solid black"">","","","","",""
"","stimuli-presentation","90","255008","0.0-26.0-1.0","SS1627327008681","","1032.9299999866635","trial","","40","500","1532.9299999866635","images/stimuli/complex_13_A_a.gif","images/stimuli/complex_14_A_a.gif","forced_short","250","","","","","","5","complex_dissimilar","images/stimuli/complex_14_A_a.gif","",""
"","html-keyboard-response","91","255970","0.0-26.0-0.1","SS1627327008681","","null","","","null","","","","","","","","","","","<p><img src= images/blank.png width =""600"" height = ""600"" style=""position:fixed;top:50%; left:50%; transform: translate(-50%, -50%); border:5px solid black"">","","","","",""
"","stimuli-presentation","92","258264","0.0-26.0-1.1","SS1627327008681","","1789.2899999860674","trial","","40","500","2289.2899999860674","images/stimuli/complex_13_A_a.gif","images/stimuli/complex_14_A_a.gif","forced_short","250","","","","","","5","complex_dissimilar","images/stimuli/complex_14_A_a.gif","",""
"","html-keyboard-response","93","259485","0.0-26.0-0.2","SS1627327008681","","null","","","null","","","","","","","","","","","<p><img src= images/blank.png width =""600"" height = ""600"" style=""position:fixed;top:50%; left:50%; transform: translate(-50%, -50%); border:5px solid black"">","","","","",""
"","stimuli-presentation","94","260481","0.0-26.0-1.2","SS1627327008681","","490.71000004187226","trial","","40","500","990.7100000418723","images/stimuli/complex_13_A_a.gif","images/stimuli/complex_14_A_a.gif","forced_short","250","","","","","","5","complex_dissimilar","images/stimuli/complex_14_A_a.gif","",""
"","html-keyboard-response","95","261388","0.0-26.0-0.3","SS1627327008681","","null","","","null","","","","","","","","","","","<p><img src= images/blank.png width =""600"" height = ""600"" style=""position:fixed;top:50%; left:50%; transform: translate(-50%, -50%); border:5px solid black"">","","","","",""
"","stimuli-presentation","96","270047","0.0-26.0-1.3","SS1627327008681","","8151.83500002604","trial","","40","500","8651.83500002604","images/stimuli/complex_13_A_a.gif","images/stimuli/complex_14_A_a.gif","forced_short","250","","","","","","5","complex_dissimilar","images/stimuli/complex_14_A_a.gif","",""
"","html-keyboard-response","97","271273","0.0-26.0-0.4","SS1627327008681","","null","","","null","","","","","","","","","","","<p><img src= images/blank.png width =""600"" height = ""600"" style=""position:fixed;top:50%; left:50%; transform: translate(-50%, -50%); border:5px solid black"">","","","","",""
"","stimuli-presentation","98","272209","0.0-26.0-1.4","SS1627327008681","","426.1949999490753","trial","","40","500","926.1949999490753","images/stimuli/complex_13_A_a.gif","images/stimuli/complex_14_A_a.gif","forced_short","250","","","","","","5","complex_dissimilar","images/stimuli/complex_14_A_a.gif","",""
"","html-keyboard-response","99","273017","0.0-26.0-0.5","SS1627327008681","","null","","","null","","","","","","","","","","","<p><img src= images/blank.png width =""600"" height = ""600"" style=""position:fixed;top:50%; left:50%; transform: translate(-50%, -50%); border:5px solid black"">","","","","",""
"","stimuli-presentation","100","276912","0.0-26.0-1.5","SS1627327008681","","3389.924999966752","trial","","40","500","3889.924999966752","images/stimuli/complex_13_A_a.gif","images/stimuli/complex_14_A_a.gif","forced_short","250","","","","","","5","complex_dissimilar","images/stimuli/complex_13_A_a.gif","",""
"","html-keyboard-response","101","277836","0.0-26.0-0.6","SS1627327008681","","null","","","null","","","","","","","","","","","<p><img src= images/blank.png width =""600"" height = ""600"" style=""position:fixed;top:50%; left:50%; transform: translate(-50%, -50%); border:5px solid black"">","","","","",""
"","stimuli-presentation","102","278896","0.0-26.0-1.6","SS1627327008681","","554.9400000018068","trial","","40","500","1054.9400000018068","images/stimuli/complex_13_A_a.gif","images/stimuli/complex_14_A_a.gif","forced_short","250","","","","","","5","complex_dissimilar","images/stimuli/complex_14_A_a.gif","",""
"","html-keyboard-response","103","279853","0.0-26.0-0.7","SS1627327008681","","null","","","null","","","","","","","","","","","<p><img src= images/blank.png width =""600"" height = ""600"" style=""position:fixed;top:50%; left:50%; transform: translate(-50%, -50%); border:5px solid black"">","","","","",""
"","stimuli-presentation","104","280968","0.0-26.0-1.7","SS1627327008681","","611.1650000093505","trial","","40","500","1111.1650000093505","images/stimuli/complex_13_A_a.gif","images/stimuli/complex_14_A_a.gif","forced_short","250","","","","","","5","complex_dissimilar","images/stimuli/complex_13_A_a.gif","",""
"","survey-multi-choice","105","282887","0.0-27.0","SS1627327008681","","1914.664999989327","memory_test","","","","","","","","","{""Q0"":""No""}","[0]","images/stimuli/complex_05_A_a.gif","5","","","","","",""
"","survey-multi-choice","106","284408","0.0-28.0","SS1627327008681","","1515.7950000138953","memory_test","","","","","","","","","{""Q0"":""Yes""}","[0]","images/stimuli/complex_13_A_a.gif","5","","","","","",""
"","html-keyboard-response","107","285435","0.0-29.0-0.0","SS1627327008681","","null","","","null","","","","","","","","","","","<p><img src= images/blank.png width =""600"" height = ""600"" style=""position:fixed;top:50%; left:50%; transform: translate(-50%, -50%); border:5px solid black"">","","","","",""
"","stimuli-presentation","108","286656","0.0-29.0-1.0","SS1627327008681","","754.6950000105426","trial","","40","500","1254.6950000105426","images/stimuli/complex_11_A_b.gif","images/stimuli/complex_15_A_a.gif","forced_short","460","","","","","","6","complex_dissimilar","images/stimuli/complex_15_A_a.gif","",""
"","html-keyboard-response","109","287519","0.0-29.0-0.1","SS1627327008681","","null","","","null","","","","","","","","","","","<p><img src= images/blank.png width =""600"" height = ""600"" style=""position:fixed;top:50%; left:50%; transform: translate(-50%, -50%); border:5px solid black"">","","","","",""
"","stimuli-presentation","110","288472","0.0-29.0-1.1","SS1627327008681","","449.045000015758","trial","","40","500","949.045000015758","images/stimuli/complex_11_A_b.gif","images/stimuli/complex_15_A_a.gif","forced_short","460","","","","","","6","complex_dissimilar","images/stimuli/complex_15_A_a.gif","",""
"","html-keyboard-response","111","289430","0.0-29.0-0.2","SS1627327008681","","null","","","null","","","","","","","","","","","<p><img src= images/blank.png width =""600"" height = ""600"" style=""position:fixed;top:50%; left:50%; transform: translate(-50%, -50%); border:5px solid black"">","","","","",""
"","stimuli-presentation","112","290376","0.0-29.0-1.2","SS1627327008681","","441.4000000106171","trial","","40","500","941.4000000106171","images/stimuli/complex_11_A_b.gif","images/stimuli/complex_15_A_a.gif","forced_short","460","","","","","","6","complex_dissimilar","images/stimuli/complex_15_A_a.gif","",""
"","html-keyboard-response","113","291296","0.0-29.0-0.3","SS1627327008681","","null","","","null","","","","","","","","","","","<p><img src= images/blank.png width =""600"" height = ""600"" style=""position:fixed;top:50%; left:50%; transform: translate(-50%, -50%); border:5px solid black"">","","","","",""
"","stimuli-presentation","114","292280","0.0-29.0-1.3","SS1627327008681","","479.92499999236315","trial","","40","500","979.9249999923632","images/stimuli/complex_11_A_b.gif","images/stimuli/complex_15_A_a.gif","forced_short","460","","","","","","6","complex_dissimilar","images/stimuli/complex_15_A_a.gif","",""
"","html-keyboard-response","115","293199","0.0-29.0-0.4","SS1627327008681","","null","","","null","","","","","","","","","","","<p><img src= images/blank.png width =""600"" height = ""600"" style=""position:fixed;top:50%; left:50%; transform: translate(-50%, -50%); border:5px solid black"">","","","","",""
"","stimuli-presentation","116","293809","0.0-29.0-1.4","SS1627327008681","","104.90500001469627","trial","","40","500","604.9050000146963","images/stimuli/complex_11_A_b.gif","images/stimuli/complex_15_A_a.gif","forced_short","460","","","","","","6","complex_dissimilar","images/stimuli/complex_15_A_a.gif","",""
"","html-keyboard-response","117","294651","0.0-29.0-0.5","SS1627327008681","","null","","","null","","","","","","","","","","","<p><img src= images/blank.png width =""600"" height = ""600"" style=""position:fixed;top:50%; left:50%; transform: translate(-50%, -50%); border:5px solid black"">","","","","",""
"","stimuli-presentation","118","295208","0.0-29.0-1.5","SS1627327008681","","52.58999997749925","trial","","40","500","552.5899999774992","images/stimuli/complex_11_A_b.gif","images/stimuli/complex_15_A_a.gif","forced_short","460","","","","","","6","complex_dissimilar","images/stimuli/complex_15_A_a.gif","",""
"","survey-multi-choice","119","296946","0.0-30.0","SS1627327008681","","1733.5999999777414","memory_test","","","","","","","","","{""Q0"":""Yes""}","[0]","images/stimuli/complex_15_A_a.gif","6","","","","","",""
"","survey-multi-choice","120","299281","0.0-31.0","SS1627327008681","","2329.310000000987","memory_test","","","","","","","","","{""Q0"":""No""}","[0]","images/stimuli/complex_09_A_b.gif","6","","","","","",""
"","html-keyboard-response","121","300584","0.0-32.0-0.0","SS1627327008681","","null","","","null","","","","","","","","","","","<p><img src= images/blank.png width =""600"" height = ""600"" style=""position:fixed;top:50%; left:50%; transform: translate(-50%, -50%); border:5px solid black"">","","","","",""
"","stimuli-presentation","122","301592","0.0-32.0-1.0","SS1627327008681","","361.1399999936111","trial","","40","500","861.1399999936111","images/stimuli/complex_21_A_b.gif","images/stimuli/complex_18_A_a.gif","forced_short","640","","","","","","7","complex_dissimilar","images/stimuli/complex_18_A_a.gif","",""
"","html-keyboard-response","123","302715","0.0-32.0-0.1","SS1627327008681","","null","","","null","","","","","","","","","","","<p><img src= images/blank.png width =""600"" height = ""600"" style=""position:fixed;top:50%; left:50%; transform: translate(-50%, -50%); border:5px solid black"">","","","","",""
"","stimuli-presentation","124","303616","0.0-32.0-1.1","SS1627327008681","","395.46500000869855","trial","","40","500","895.4650000086986","images/stimuli/complex_21_A_b.gif","images/stimuli/complex_18_A_a.gif","forced_short","640","","","","","","7","complex_dissimilar","images/stimuli/complex_18_A_a.gif","",""
"","html-keyboard-response","125","304625","0.0-32.0-0.2","SS1627327008681","","null","","","null","","","","","","","","","","","<p><img src= images/blank.png width =""600"" height = ""600"" style=""position:fixed;top:50%; left:50%; transform: translate(-50%, -50%); border:5px solid black"">","","","","",""
"","stimuli-presentation","126","306672","0.0-32.0-1.2","SS1627327008681","","1541.4200000232086","trial","","40","500","2041.4200000232086","images/stimuli/complex_21_A_b.gif","images/stimuli/complex_18_A_a.gif","forced_short","640","","","","","","7","complex_dissimilar","images/stimuli/complex_21_A_b.gif","",""
"","html-keyboard-response","127","307966","0.0-32.0-0.3","SS1627327008681","","null","","","null","","","","","","","","","","","<p><img src= images/blank.png width =""600"" height = ""600"" style=""position:fixed;top:50%; left:50%; transform: translate(-50%, -50%); border:5px solid black"">","","","","",""
"","stimuli-presentation","128","309985","0.0-32.0-1.3","SS1627327008681","","1514.4599999766797","trial","","40","500","2014.4599999766797","images/stimuli/complex_21_A_b.gif","images/stimuli/complex_18_A_a.gif","forced_short","640","","","","","","7","complex_dissimilar","images/stimuli/complex_18_A_a.gif","",""
"","html-keyboard-response","129","310977","0.0-32.0-0.4","SS1627327008681","","null","","","null","","","","","","","","","","","<p><img src= images/blank.png width =""600"" height = ""600"" style=""position:fixed;top:50%; left:50%; transform: translate(-50%, -50%); border:5px solid black"">","","","","",""
"","stimuli-presentation","130","311815","0.0-32.0-1.4","SS1627327008681","","333.76000000862405","trial","","40","500","833.760000008624","images/stimuli/complex_21_A_b.gif","images/stimuli/complex_18_A_a.gif","forced_short","640","","","","","","7","complex_dissimilar","images/stimuli/complex_21_A_b.gif","",""
"","html-keyboard-response","131","312986","0.0-32.0-0.5","SS1627327008681","","null","","","null","","","","","","","","","","","<p><img src= images/blank.png width =""600"" height = ""600"" style=""position:fixed;top:50%; left:50%; transform: translate(-50%, -50%); border:5px solid black"">","","","","",""
"","stimuli-presentation","132","313743","0.0-32.0-1.5","SS1627327008681","","253.32000001799315","trial","","40","500","753.3200000179932","images/stimuli/complex_21_A_b.gif","images/stimuli/complex_18_A_a.gif","forced_short","640","","","","","","7","complex_dissimilar","images/stimuli/complex_18_A_a.gif","",""
"","html-keyboard-response","133","314904","0.0-32.0-0.6","SS1627327008681","","null","","","null","","","","","","","","","","","<p><img src= images/blank.png width =""600"" height = ""600"" style=""position:fixed;top:50%; left:50%; transform: translate(-50%, -50%); border:5px solid black"">","","","","",""
"","stimuli-presentation","134","315423","0.0-32.0-1.6","SS1627327008681","","14.08999995328486","trial","","40","500","514.0899999532849","images/stimuli/complex_21_A_b.gif","images/stimuli/complex_18_A_a.gif","forced_short","640","","","","","","7","complex_dissimilar","images/stimuli/complex_18_A_a.gif","",""
"","html-keyboard-response","135","316437","0.0-32.0-0.7","SS1627327008681","","null","","","null","","","","","","","","","","","<p><img src= images/blank.png width =""600"" height = ""600"" style=""position:fixed;top:50%; left:50%; transform: translate(-50%, -50%); border:5px solid black"">","","","","",""
"","stimuli-presentation","136","317264","0.0-32.0-1.7","SS1627327008681","","319.32000000961125","trial","","40","500","819.3200000096112","images/stimuli/complex_21_A_b.gif","images/stimuli/complex_18_A_a.gif","forced_short","640","","","","","","7","complex_dissimilar","images/stimuli/complex_18_A_a.gif","",""
"","survey-multi-choice","137","319627","0.0-33.0","SS1627327008681","","2359.534999995958","memory_test","","","","","","","","","{""Q0"":""No""}","[0]","images/stimuli/complex_12_A_a.gif","7","","","","","",""
"","survey-multi-choice","138","321217","0.0-34.0","SS1627327008681","","1583.7700000265613","memory_test","","","","","","","","","{""Q0"":""Yes""}","[0]","images/stimuli/complex_21_A_b.gif","7","","","","","",""
"","instructions","139","325292","0.0-35.0","SS1627327008681","[{""page_index"":0,""viewing_time"":4068.0450000218116}]","4068.410000007134","instructions","","","","","","","","","","","","","","","","","",""
"","survey-likert","140","331255","0.0-36.0","SS1627327008681","","5956.460000015795","similarity_question","","","","","","","","","{""Q0"":1}","[0]","","","","","","","images/stimuli/complex_13_A_a.gif","images/stimuli/complex_14_A_a.gif"
"","survey-likert","141","342035","0.0-37.0","SS1627327008681","","10773.389999987558","similarity_question","","","","","","","","","{""Q0"":3}","[0]","","","","","","","images/stimuli/complex_24_A_a.gif","images/stimuli/complex_16_A_b.gif"
"","survey-likert","142","348293","0.0-38.0","SS1627327008681","","6252.310000010766","similarity_question","","","","","","","","","{""Q0"":1}","[0]","","","","","","","images/stimuli/complex_11_A_b.gif","images/stimuli/complex_15_A_a.gif"
"","survey-likert","143","351126","0.0-39.0","SS1627327008681","","2827.564999985043","similarity_question","","","","","","","","","{""Q0"":0}","[0]","","","","","","","images/stimuli/complex_17_A_b.gif","images/stimuli/complex_03_A_a.gif"
"","survey-likert","144","355632","0.0-40.0","SS1627327008681","","4502.329999988433","similarity_question","","","","","","","","","{""Q0"":4}","[0]","","","","","","","images/stimuli/complex_21_A_b.gif","images/stimuli/complex_18_A_a.gif"
"","survey-likert","145","359016","0.0-41.0","SS1627327008681","","3377.7700000209734","similarity_question","","","","","","","","","{""Q0"":0}","[0]","","","","","","","images/stimuli/complex_22_A_b.gif","images/stimuli/complex_07_A_a.gif"
"","survey-likert","146","364468","0.0-42.0","SS1627327008681","","5446.475000004284","similarity_question","","","","","","","","","{""Q0"":4}","[0]","","","","","","","images/stimuli/complex_23_A_b.gif","images/stimuli/complex_02_A_a.gif"
"","survey-likert","147","369266","0.0-43.0","SS1627327008681","","4790.865000046324","similarity_question","","","","","","","","","{""Q0"":2}","[0]","","","","","","","images/stimuli/complex_10_A_a.gif","images/stimuli/complex_01_A_b.gif"
"","instructions","148","372228","0.0-44.0","SS1627327008681","[{""page_index"":0,""viewing_time"":2956.9200000260025}]","2957.3649999802","instructions","","","","","","","","","","","","","","","","","",""
"","survey-likert","149","377232","0.0-45.0","SS1627327008681","","4999.695000005886","","","","","","","","","","{""Q0"":1}","[0]","","","images/stimuli/complex_24_A_a.gif","","","","",""
"","survey-likert","150","383338","0.0-46.0","SS1627327008681","","6100.35500000231","","","","","","","","","","{""Q0"":3}","[0]","","","images/stimuli/complex_07_A_a.gif","","","","",""
"","survey-likert","151","386514","0.0-47.0","SS1627327008681","","3169.4799999822862","","","","","","","","","","{""Q0"":4}","[0]","","","images/stimuli/complex_02_A_a.gif","","","","",""
"","survey-likert","152","389541","0.0-48.0","SS1627327008681","","3021.999999997206","","","","","","","","","","{""Q0"":1}","[0]","","","images/stimuli/complex_17_A_b.gif","","","","",""
"","survey-likert","153","392815","0.0-49.0","SS1627327008681","","3267.9650000063702","","","","","","","","","","{""Q0"":5}","[0]","","","images/stimuli/complex_21_A_b.gif","","","","",""
"","survey-likert","154","396826","0.0-50.0","SS1627327008681","","4004.4249999918975","","","","","","","","","","{""Q0"":4}","[0]","","","images/stimuli/complex_10_A_a.gif","","","","",""
"","survey-likert","155","400347","0.0-51.0","SS1627327008681","","3514.824999962002","","","","","","","","","","{""Q0"":0}","[0]","","","images/stimuli/complex_15_A_a.gif","","","","",""
"","survey-likert","156","403585","0.0-52.0","SS1627327008681","","3232.0950000430457","","","","","","","","","","{""Q0"":6}","[0]","","","images/stimuli/complex_14_A_a.gif","","","","",""
"true","fullscreen","157","404595","0.0-53.0","SS1627327008681","","","","","","","","","","","","","","","","","","","","",""
"","instructions","158","405883","0.0-54.0","SS1627327008681","[{""page_index"":0,""viewing_time"":1283.850000007078}]","1284.3249999568798","instructions","","","","","","","","","","","","","","","","","",""
"","demog-age","159","409023","0.0-55.0","SS1627327008681","","3130.1749999984168","","","","","","","","","","{""age"":""25""}","","","","","","","","",""
"","demog-ethnic-US","160","410969","0.0-56.0","SS1627327008681","","1933.1299999612384","","","","","","","","","","{""ethnicity"":[""White""]}","[0]","","","","","","","",""
"","demog-gender-and-education","161","416434","0.0-57.0","SS1627327008681","","5457.9999999841675","","","","","","","","","","{""gender"":""Female"",""education"":""Master's Degree""}","[0,1]","","","","","","","",""
"","survey-text","162","419947","0.0-58.0","SS1627327008681","","3505.224999971688","feedback","","","","","","","","","{""Q0"":""no""}","","","","","","","","",""
"","instructions","163","421154","0.0-59.0","SS1627327008681","[{""page_index"":0,""viewing_time"":1197.5799999781884}]","1197.9849999770522","instructions","","","","","","","","","","","","","","","","","",""
