"success","trial_type","trial_index","time_elapsed","internal_node_id","subject","view_history","rt","stimulus_type","trial_stimulus","key_press","minimum_viewing_duration","trial_looking_time","block_deviant","block_background","exposure_type","forced_exposure_time","responses","question_order","memory_question_stimuli","memory_block_index","stimulus","block_number","block_type","stimulus_displayed","stimulus_left","stimulus_right"
"true","fullscreen","0","4568","0.0-0.0","SS1627326507755","","","","","","","","","","","","","","","","","","","","",""
"","instructions","1","33013","0.0-1.0","SS1627326507755","[{""page_index"":0,""viewing_time"":28443.300000190735}]","28444.099999904633","","","","","","","","","","","","","","","","","","",""
"","instructions","2","65855","0.0-2.0","SS1627326507755","[{""page_index"":0,""viewing_time"":21688.900000095367},{""page_index"":1,""viewing_time"":9149.800000190735}]","30838.900000095367","instructions","","","","","","","","","","","","","","","","","",""
"","stimuli-presentation","3","94737","0.0-3.0","SS1627326507755","","28369.400000095367","","","40","500","28869.400000095367","null","null","self_paced","0","","","","","","","","","",""
"","instructions","4","107634","0.0-4.0","SS1627326507755","[{""page_index"":0,""viewing_time"":12896.5}]","12896.700000286102","instructions","","","","","","","","","","","","","","","","","",""
"","stimuli-presentation","5","122517","0.0-5.0","SS1627326507755","","14377.199999809265","","","40","500","14877.199999809265","null","null","forced_short","500","","","","","","","","","",""
"","stimuli-presentation","6","127747","0.0-6.0","SS1627326507755","","4726.800000190735","","","40","500","5226.800000190735","null","null","forced_short","500","","","","","","","","","",""
"","instructions","7","147778","0.0-7.0","SS1627326507755","[{""page_index"":0,""viewing_time"":20030.5}]","20030.699999809265","instructions","","","","","","","","","","","","","","","","","",""
"","survey-multi-choice","8","152577","0.0-8.0","SS1627326507755","","4795.89999961853","memory_test_practice","","","","","","","","","{""Q0"":""Yes""}","[0]","images/practice/instructions_example_spore2.gif","0","","","","","",""
"","survey-multi-choice","9","162423","0.0-9.0","SS1627326507755","","9841.89999961853","memory_test_practice","","","","","","","","","{""Q0"":""No""}","[0]","images/practice/instructions_example_spore0.gif","0","","","","","",""
"","instructions","10","186462","0.0-10.0","SS1627326507755","[{""page_index"":0,""viewing_time"":21676.400000095367},{""page_index"":1,""viewing_time"":2357.9000000953674}]","24034.5","instructions","","","","","","","","","","","","","","","","","",""
"","html-keyboard-response","11","187644","0.0-11.0-0.0","SS1627326507755","","null","","","null","","","","","","","","","","","<p><img src= images/blank.png width =""600"" height = ""600"" style=""position:fixed;top:50%; left:50%; transform: translate(-50%, -50%); border:5px solid black"">","","","","",""
"","stimuli-presentation","12","197556","0.0-11.0-1.0","SS1627326507755","","9325.10000038147","trial","","40","500","9825.10000038147","images/stimuli/complex_14_A_a.gif","images/stimuli/complex_12_A_a.gif","forced_short","570","","","","","","0","complex_dissimilar","images/stimuli/complex_12_A_a.gif","",""
"","html-keyboard-response","13","198520","0.0-11.0-0.1","SS1627326507755","","null","","","null","","","","","","","","","","","<p><img src= images/blank.png width =""600"" height = ""600"" style=""position:fixed;top:50%; left:50%; transform: translate(-50%, -50%); border:5px solid black"">","","","","",""
"","stimuli-presentation","14","210307","0.0-11.0-1.1","SS1627326507755","","11283","trial","","40","500","11783","images/stimuli/complex_14_A_a.gif","images/stimuli/complex_12_A_a.gif","forced_short","570","","","","","","0","complex_dissimilar","images/stimuli/complex_12_A_a.gif","",""
"","html-keyboard-response","15","211554","0.0-11.0-0.2","SS1627326507755","","null","","","null","","","","","","","","","","","<p><img src= images/blank.png width =""600"" height = ""600"" style=""position:fixed;top:50%; left:50%; transform: translate(-50%, -50%); border:5px solid black"">","","","","",""
"","stimuli-presentation","16","222027","0.0-11.0-1.2","SS1627326507755","","9969.700000286102","trial","","40","500","10469.700000286102","images/stimuli/complex_14_A_a.gif","images/stimuli/complex_12_A_a.gif","forced_short","570","","","","","","0","complex_dissimilar","images/stimuli/complex_12_A_a.gif","",""
"","html-keyboard-response","17","223315","0.0-11.0-0.3","SS1627326507755","","null","","","null","","","","","","","","","","","<p><img src= images/blank.png width =""600"" height = ""600"" style=""position:fixed;top:50%; left:50%; transform: translate(-50%, -50%); border:5px solid black"">","","","","",""
"","stimuli-presentation","18","233136","0.0-11.0-1.3","SS1627326507755","","9318.599999904633","trial","","40","500","9818.599999904633","images/stimuli/complex_14_A_a.gif","images/stimuli/complex_12_A_a.gif","forced_short","570","","","","","","0","complex_dissimilar","images/stimuli/complex_12_A_a.gif","",""
"","html-keyboard-response","19","233989","0.0-11.0-0.4","SS1627326507755","","null","","","null","","","","","","","","","","","<p><img src= images/blank.png width =""600"" height = ""600"" style=""position:fixed;top:50%; left:50%; transform: translate(-50%, -50%); border:5px solid black"">","","","","",""
"","stimuli-presentation","20","238847","0.0-11.0-1.4","SS1627326507755","","4338.200000286102","trial","","40","500","4838.200000286102","images/stimuli/complex_14_A_a.gif","images/stimuli/complex_12_A_a.gif","forced_short","570","","","","","","0","complex_dissimilar","images/stimuli/complex_12_A_a.gif","",""
"","html-keyboard-response","21","239925","0.0-11.0-0.5","SS1627326507755","","null","","","null","","","","","","","","","","","<p><img src= images/blank.png width =""600"" height = ""600"" style=""position:fixed;top:50%; left:50%; transform: translate(-50%, -50%); border:5px solid black"">","","","","",""
"","stimuli-presentation","22","246041","0.0-11.0-1.5","SS1627326507755","","5613.200000286102","trial","","40","500","6113.200000286102","images/stimuli/complex_14_A_a.gif","images/stimuli/complex_12_A_a.gif","forced_short","570","","","","","","0","complex_dissimilar","images/stimuli/complex_12_A_a.gif","",""
"","html-keyboard-response","23","247241","0.0-11.0-0.6","SS1627326507755","","null","","","null","","","","","","","","","","","<p><img src= images/blank.png width =""600"" height = ""600"" style=""position:fixed;top:50%; left:50%; transform: translate(-50%, -50%); border:5px solid black"">","","","","",""
"","stimuli-presentation","24","260277","0.0-11.0-1.6","SS1627326507755","","12534.700000286102","trial","","40","500","13034.700000286102","images/stimuli/complex_14_A_a.gif","images/stimuli/complex_12_A_a.gif","forced_short","570","","","","","","0","complex_dissimilar","images/stimuli/complex_12_A_a.gif","",""
"","html-keyboard-response","25","261486","0.0-11.0-0.7","SS1627326507755","","null","","","null","","","","","","","","","","","<p><img src= images/blank.png width =""600"" height = ""600"" style=""position:fixed;top:50%; left:50%; transform: translate(-50%, -50%); border:5px solid black"">","","","","",""
"","stimuli-presentation","26","267002","0.0-11.0-1.7","SS1627326507755","","5013","trial","","40","500","5513","images/stimuli/complex_14_A_a.gif","images/stimuli/complex_12_A_a.gif","forced_short","570","","","","","","0","complex_dissimilar","images/stimuli/complex_12_A_a.gif","",""
"","survey-multi-choice","27","272365","0.0-12.0","SS1627326507755","","5361.099999904633","memory_test","","","","","","","","","{""Q0"":""No""}","[0]","images/stimuli/complex_21_A_b.gif","0","","","","","",""
"","survey-multi-choice","28","275656","0.0-13.0","SS1627326507755","","3287","memory_test","","","","","","","","","{""Q0"":""Yes""}","[0]","images/stimuli/complex_12_A_a.gif","0","","","","","",""
"","html-keyboard-response","29","276527","0.0-14.0-0.0","SS1627326507755","","null","","","null","","","","","","","","","","","<p><img src= images/blank.png width =""600"" height = ""600"" style=""position:fixed;top:50%; left:50%; transform: translate(-50%, -50%); border:5px solid black"">","","","","",""
"","stimuli-presentation","30","283054","0.0-14.0-1.0","SS1627326507755","","5774.199999809265","trial","","40","500","6274.199999809265","images/stimuli/complex_03_A_b.gif","images/stimuli/complex_17_A_b.gif","forced_short","750","","","","","","1","complex_dissimilar","images/stimuli/complex_17_A_b.gif","",""
"","html-keyboard-response","31","284343","0.0-14.0-0.1","SS1627326507755","","null","","","null","","","","","","","","","","","<p><img src= images/blank.png width =""600"" height = ""600"" style=""position:fixed;top:50%; left:50%; transform: translate(-50%, -50%); border:5px solid black"">","","","","",""
"","stimuli-presentation","32","297534","0.0-14.0-1.1","SS1627326507755","","12687.700000286102","trial","","40","500","13187.700000286102","images/stimuli/complex_03_A_b.gif","images/stimuli/complex_17_A_b.gif","forced_short","750","","","","","","1","complex_dissimilar","images/stimuli/complex_17_A_b.gif","",""
"","html-keyboard-response","33","298592","0.0-14.0-0.2","SS1627326507755","","null","","","null","","","","","","","","","","","<p><img src= images/blank.png width =""600"" height = ""600"" style=""position:fixed;top:50%; left:50%; transform: translate(-50%, -50%); border:5px solid black"">","","","","",""
"","stimuli-presentation","34","306167","0.0-14.0-1.2","SS1627326507755","","7066.800000190735","trial","","40","500","7566.800000190735","images/stimuli/complex_03_A_b.gif","images/stimuli/complex_17_A_b.gif","forced_short","750","","","","","","1","complex_dissimilar","images/stimuli/complex_17_A_b.gif","",""
"","html-keyboard-response","35","307461","0.0-14.0-0.3","SS1627326507755","","null","","","null","","","","","","","","","","","<p><img src= images/blank.png width =""600"" height = ""600"" style=""position:fixed;top:50%; left:50%; transform: translate(-50%, -50%); border:5px solid black"">","","","","",""
"","stimuli-presentation","36","310737","0.0-14.0-1.3","SS1627326507755","","2773.4000000953674","trial","","40","500","3273.4000000953674","images/stimuli/complex_03_A_b.gif","images/stimuli/complex_17_A_b.gif","forced_short","750","","","","","","1","complex_dissimilar","images/stimuli/complex_17_A_b.gif","",""
"","html-keyboard-response","37","311828","0.0-14.0-0.4","SS1627326507755","","null","","","null","","","","","","","","","","","<p><img src= images/blank.png width =""600"" height = ""600"" style=""position:fixed;top:50%; left:50%; transform: translate(-50%, -50%); border:5px solid black"">","","","","",""
"","stimuli-presentation","38","318772","0.0-14.0-1.4","SS1627326507755","","6441.700000286102","trial","","40","500","6941.700000286102","images/stimuli/complex_03_A_b.gif","images/stimuli/complex_17_A_b.gif","forced_short","750","","","","","","1","complex_dissimilar","images/stimuli/complex_03_A_b.gif","",""
"","html-keyboard-response","39","319798","0.0-14.0-0.5","SS1627326507755","","null","","","null","","","","","","","","","","","<p><img src= images/blank.png width =""600"" height = ""600"" style=""position:fixed;top:50%; left:50%; transform: translate(-50%, -50%); border:5px solid black"">","","","","",""
"","stimuli-presentation","40","323421","0.0-14.0-1.5","SS1627326507755","","3120.4000000953674","trial","","40","500","3620.4000000953674","images/stimuli/complex_03_A_b.gif","images/stimuli/complex_17_A_b.gif","forced_short","750","","","","","","1","complex_dissimilar","images/stimuli/complex_17_A_b.gif","",""
"","html-keyboard-response","41","324666","0.0-14.0-0.6","SS1627326507755","","null","","","null","","","","","","","","","","","<p><img src= images/blank.png width =""600"" height = ""600"" style=""position:fixed;top:50%; left:50%; transform: translate(-50%, -50%); border:5px solid black"">","","","","",""
"","stimuli-presentation","42","327830","0.0-14.0-1.6","SS1627326507755","","2662","trial","","40","500","3162","images/stimuli/complex_03_A_b.gif","images/stimuli/complex_17_A_b.gif","forced_short","750","","","","","","1","complex_dissimilar","images/stimuli/complex_17_A_b.gif","",""
"","html-keyboard-response","43","328974","0.0-14.0-0.7","SS1627326507755","","null","","","null","","","","","","","","","","","<p><img src= images/blank.png width =""600"" height = ""600"" style=""position:fixed;top:50%; left:50%; transform: translate(-50%, -50%); border:5px solid black"">","","","","",""
"","stimuli-presentation","44","335713","0.0-14.0-1.7","SS1627326507755","","6235","trial","","40","500","6735","images/stimuli/complex_03_A_b.gif","images/stimuli/complex_17_A_b.gif","forced_short","750","","","","","","1","complex_dissimilar","images/stimuli/complex_03_A_b.gif","",""
"","survey-multi-choice","45","339169","0.0-15.0","SS1627326507755","","3454.7000002861023","memory_test","","","","","","","","","{""Q0"":""Yes""}","[0]","images/stimuli/complex_17_A_b.gif","1","","","","","",""
"","survey-multi-choice","46","343496","0.0-16.0","SS1627326507755","","4323.10000038147","memory_test","","","","","","","","","{""Q0"":""No""}","[0]","images/stimuli/complex_08_A_b.gif","1","","","","","",""
"","html-keyboard-response","47","344606","0.0-17.0-0.0","SS1627326507755","","null","","","null","","","","","","","","","","","<p><img src= images/blank.png width =""600"" height = ""600"" style=""position:fixed;top:50%; left:50%; transform: translate(-50%, -50%); border:5px solid black"">","","","","",""
"","stimuli-presentation","48","349170","0.0-17.0-1.0","SS1627326507755","","4372.699999809265","trial","","40","500","4872.699999809265","images/stimuli/complex_05_A_a.gif","images/stimuli/complex_24_A_a.gif","forced_short","180","","","","","","2","complex_dissimilar","images/stimuli/complex_24_A_a.gif","",""
"","html-keyboard-response","49","350036","0.0-17.0-0.1","SS1627326507755","","null","","","null","","","","","","","","","","","<p><img src= images/blank.png width =""600"" height = ""600"" style=""position:fixed;top:50%; left:50%; transform: translate(-50%, -50%); border:5px solid black"">","","","","",""
"","stimuli-presentation","50","356325","0.0-17.0-1.1","SS1627326507755","","5786.400000095367","trial","","40","500","6286.400000095367","images/stimuli/complex_05_A_a.gif","images/stimuli/complex_24_A_a.gif","forced_short","180","","","","","","2","complex_dissimilar","images/stimuli/complex_24_A_a.gif","",""
"","html-keyboard-response","51","357404","0.0-17.0-0.2","SS1627326507755","","null","","","null","","","","","","","","","","","<p><img src= images/blank.png width =""600"" height = ""600"" style=""position:fixed;top:50%; left:50%; transform: translate(-50%, -50%); border:5px solid black"">","","","","",""
"","stimuli-presentation","52","360640","0.0-17.0-1.2","SS1627326507755","","2720.6000003814697","trial","","40","500","3220.6000003814697","images/stimuli/complex_05_A_a.gif","images/stimuli/complex_24_A_a.gif","forced_short","180","","","","","","2","complex_dissimilar","images/stimuli/complex_24_A_a.gif","",""
"","html-keyboard-response","53","361914","0.0-17.0-0.3","SS1627326507755","","null","","","null","","","","","","","","","","","<p><img src= images/blank.png width =""600"" height = ""600"" style=""position:fixed;top:50%; left:50%; transform: translate(-50%, -50%); border:5px solid black"">","","","","",""
"","stimuli-presentation","54","364543","0.0-17.0-1.3","SS1627326507755","","2113.199999809265","trial","","40","500","2613.199999809265","images/stimuli/complex_05_A_a.gif","images/stimuli/complex_24_A_a.gif","forced_short","180","","","","","","2","complex_dissimilar","images/stimuli/complex_24_A_a.gif","",""
"","html-keyboard-response","55","365529","0.0-17.0-0.4","SS1627326507755","","null","","","null","","","","","","","","","","","<p><img src= images/blank.png width =""600"" height = ""600"" style=""position:fixed;top:50%; left:50%; transform: translate(-50%, -50%); border:5px solid black"">","","","","",""
"","stimuli-presentation","56","368498","0.0-17.0-1.4","SS1627326507755","","2465.800000190735","trial","","40","500","2965.800000190735","images/stimuli/complex_05_A_a.gif","images/stimuli/complex_24_A_a.gif","forced_short","180","","","","","","2","complex_dissimilar","images/stimuli/complex_24_A_a.gif","",""
"","html-keyboard-response","57","369735","0.0-17.0-0.5","SS1627326507755","","null","","","null","","","","","","","","","","","<p><img src= images/blank.png width =""600"" height = ""600"" style=""position:fixed;top:50%; left:50%; transform: translate(-50%, -50%); border:5px solid black"">","","","","",""
"","stimuli-presentation","58","379096","0.0-17.0-1.5","SS1627326507755","","8858.599999904633","trial","","40","500","9358.599999904633","images/stimuli/complex_05_A_a.gif","images/stimuli/complex_24_A_a.gif","forced_short","180","","","","","","2","complex_dissimilar","images/stimuli/complex_24_A_a.gif","",""
"","html-keyboard-response","59","380135","0.0-17.0-0.6","SS1627326507755","","null","","","null","","","","","","","","","","","<p><img src= images/blank.png width =""600"" height = ""600"" style=""position:fixed;top:50%; left:50%; transform: translate(-50%, -50%); border:5px solid black"">","","","","",""
"","stimuli-presentation","60","387043","0.0-17.0-1.6","SS1627326507755","","6405.199999809265","trial","","40","500","6905.199999809265","images/stimuli/complex_05_A_a.gif","images/stimuli/complex_24_A_a.gif","forced_short","180","","","","","","2","complex_dissimilar","images/stimuli/complex_05_A_a.gif","",""
"","html-keyboard-response","61","388141","0.0-17.0-0.7","SS1627326507755","","null","","","null","","","","","","","","","","","<p><img src= images/blank.png width =""600"" height = ""600"" style=""position:fixed;top:50%; left:50%; transform: translate(-50%, -50%); border:5px solid black"">","","","","",""
"","stimuli-presentation","62","390855","0.0-17.0-1.7","SS1627326507755","","2210.3999996185303","trial","","40","500","2710.3999996185303","images/stimuli/complex_05_A_a.gif","images/stimuli/complex_24_A_a.gif","forced_short","180","","","","","","2","complex_dissimilar","images/stimuli/complex_24_A_a.gif","",""
"","survey-multi-choice","63","395471","0.0-18.0","SS1627326507755","","4614.799999713898","memory_test","","","","","","","","","{""Q0"":""No""}","[0]","images/stimuli/complex_02_A_b.gif","2","","","","","",""
"","survey-multi-choice","64","397867","0.0-19.0","SS1627326507755","","2390.7999997138977","memory_test","","","","","","","","","{""Q0"":""Yes""}","[0]","images/stimuli/complex_24_A_a.gif","2","","","","","",""
"","html-keyboard-response","65","398793","0.0-20.0-0.0","SS1627326507755","","null","","","null","","","","","","","","","","","<p><img src= images/blank.png width =""600"" height = ""600"" style=""position:fixed;top:50%; left:50%; transform: translate(-50%, -50%); border:5px solid black"">","","","","",""
"","stimuli-presentation","66","401719","0.0-20.0-1.0","SS1627326507755","","2823.2999997138977","trial","","40","500","3323.2999997138977","images/stimuli/complex_04_A_a.gif","images/stimuli/complex_07_A_b.gif","forced_short","100","","","","","","3","complex_dissimilar","images/stimuli/complex_07_A_b.gif","",""
"","html-keyboard-response","67","402894","0.0-20.0-0.1","SS1627326507755","","null","","","null","","","","","","","","","","","<p><img src= images/blank.png width =""600"" height = ""600"" style=""position:fixed;top:50%; left:50%; transform: translate(-50%, -50%); border:5px solid black"">","","","","",""
"","stimuli-presentation","68","407681","0.0-20.0-1.1","SS1627326507755","","4284.700000286102","trial","","40","500","4784.700000286102","images/stimuli/complex_04_A_a.gif","images/stimuli/complex_07_A_b.gif","forced_short","100","","","","","","3","complex_dissimilar","images/stimuli/complex_07_A_b.gif","",""
"","html-keyboard-response","69","408692","0.0-20.0-0.2","SS1627326507755","","null","","","null","","","","","","","","","","","<p><img src= images/blank.png width =""600"" height = ""600"" style=""position:fixed;top:50%; left:50%; transform: translate(-50%, -50%); border:5px solid black"">","","","","",""
"","stimuli-presentation","70","413516","0.0-20.0-1.2","SS1627326507755","","4321.5","trial","","40","500","4821.5","images/stimuli/complex_04_A_a.gif","images/stimuli/complex_07_A_b.gif","forced_short","100","","","","","","3","complex_dissimilar","images/stimuli/complex_04_A_a.gif","",""
"","html-keyboard-response","71","414702","0.0-20.0-0.3","SS1627326507755","","null","","","null","","","","","","","","","","","<p><img src= images/blank.png width =""600"" height = ""600"" style=""position:fixed;top:50%; left:50%; transform: translate(-50%, -50%); border:5px solid black"">","","","","",""
"","stimuli-presentation","72","424090","0.0-20.0-1.3","SS1627326507755","","8880.800000190735","trial","","40","500","9380.800000190735","images/stimuli/complex_04_A_a.gif","images/stimuli/complex_07_A_b.gif","forced_short","100","","","","","","3","complex_dissimilar","images/stimuli/complex_07_A_b.gif","",""
"","html-keyboard-response","73","425247","0.0-20.0-0.4","SS1627326507755","","null","","","null","","","","","","","","","","","<p><img src= images/blank.png width =""600"" height = ""600"" style=""position:fixed;top:50%; left:50%; transform: translate(-50%, -50%); border:5px solid black"">","","","","",""
"","stimuli-presentation","74","427477","0.0-20.0-1.4","SS1627326507755","","1726.4000000953674","trial","","40","500","2226.4000000953674","images/stimuli/complex_04_A_a.gif","images/stimuli/complex_07_A_b.gif","forced_short","100","","","","","","3","complex_dissimilar","images/stimuli/complex_07_A_b.gif","",""
"","html-keyboard-response","75","428313","0.0-20.0-0.5","SS1627326507755","","null","","","null","","","","","","","","","","","<p><img src= images/blank.png width =""600"" height = ""600"" style=""position:fixed;top:50%; left:50%; transform: translate(-50%, -50%); border:5px solid black"">","","","","",""
"","stimuli-presentation","76","431655","0.0-20.0-1.5","SS1627326507755","","2825.0999999046326","trial","","40","500","3325.0999999046326","images/stimuli/complex_04_A_a.gif","images/stimuli/complex_07_A_b.gif","forced_short","100","","","","","","3","complex_dissimilar","images/stimuli/complex_07_A_b.gif","",""
"","html-keyboard-response","77","432595","0.0-20.0-0.6","SS1627326507755","","null","","","null","","","","","","","","","","","<p><img src= images/blank.png width =""600"" height = ""600"" style=""position:fixed;top:50%; left:50%; transform: translate(-50%, -50%); border:5px solid black"">","","","","",""
"","stimuli-presentation","78","434658","0.0-20.0-1.6","SS1627326507755","","1559.5999999046326","trial","","40","500","2059.5999999046326","images/stimuli/complex_04_A_a.gif","images/stimuli/complex_07_A_b.gif","forced_short","100","","","","","","3","complex_dissimilar","images/stimuli/complex_07_A_b.gif","",""
"","survey-multi-choice","79","438752","0.0-21.0","SS1627326507755","","4092.1000003814697","memory_test","","","","","","","","","{""Q0"":""Yes""}","[0]","images/stimuli/complex_04_A_a.gif","3","","","","","",""
"","survey-multi-choice","80","442114","0.0-22.0","SS1627326507755","","3357.0999999046326","memory_test","","","","","","","","","{""Q0"":""No""}","[0]","images/stimuli/complex_11_A_b.gif","3","","","","","",""
"","html-keyboard-response","81","443150","0.0-23.0-0.0","SS1627326507755","","null","","","null","","","","","","","","","","","<p><img src= images/blank.png width =""600"" height = ""600"" style=""position:fixed;top:50%; left:50%; transform: translate(-50%, -50%); border:5px solid black"">","","","","",""
"","stimuli-presentation","82","448552","0.0-23.0-1.0","SS1627326507755","","4929.900000095367","trial","","40","500","5429.900000095367","images/stimuli/complex_18_A_a.gif","images/stimuli/complex_19_A_b.gif","forced_short","460","","","","","","4","complex_dissimilar","images/stimuli/complex_19_A_b.gif","",""
"","html-keyboard-response","83","449801","0.0-23.0-0.1","SS1627326507755","","null","","","null","","","","","","","","","","","<p><img src= images/blank.png width =""600"" height = ""600"" style=""position:fixed;top:50%; left:50%; transform: translate(-50%, -50%); border:5px solid black"">","","","","",""
"","stimuli-presentation","84","453126","0.0-23.0-1.1","SS1627326507755","","2807.300000190735","trial","","40","500","3307.300000190735","images/stimuli/complex_18_A_a.gif","images/stimuli/complex_19_A_b.gif","forced_short","460","","","","","","4","complex_dissimilar","images/stimuli/complex_19_A_b.gif","",""
"","html-keyboard-response","85","454122","0.0-23.0-0.2","SS1627326507755","","null","","","null","","","","","","","","","","","<p><img src= images/blank.png width =""600"" height = ""600"" style=""position:fixed;top:50%; left:50%; transform: translate(-50%, -50%); border:5px solid black"">","","","","",""
"","stimuli-presentation","86","457486","0.0-23.0-1.2","SS1627326507755","","2862.300000190735","trial","","40","500","3362.300000190735","images/stimuli/complex_18_A_a.gif","images/stimuli/complex_19_A_b.gif","forced_short","460","","","","","","4","complex_dissimilar","images/stimuli/complex_18_A_a.gif","",""
"","html-keyboard-response","87","458719","0.0-23.0-0.3","SS1627326507755","","null","","","null","","","","","","","","","","","<p><img src= images/blank.png width =""600"" height = ""600"" style=""position:fixed;top:50%; left:50%; transform: translate(-50%, -50%); border:5px solid black"">","","","","",""
"","stimuli-presentation","88","461552","0.0-23.0-1.3","SS1627326507755","","2329.7000002861023","trial","","40","500","2829.7000002861023","images/stimuli/complex_18_A_a.gif","images/stimuli/complex_19_A_b.gif","forced_short","460","","","","","","4","complex_dissimilar","images/stimuli/complex_19_A_b.gif","",""
"","html-keyboard-response","89","462577","0.0-23.0-0.4","SS1627326507755","","null","","","null","","","","","","","","","","","<p><img src= images/blank.png width =""600"" height = ""600"" style=""position:fixed;top:50%; left:50%; transform: translate(-50%, -50%); border:5px solid black"">","","","","",""
"","stimuli-presentation","90","466191","0.0-23.0-1.4","SS1627326507755","","3110.5999999046326","trial","","40","500","3610.5999999046326","images/stimuli/complex_18_A_a.gif","images/stimuli/complex_19_A_b.gif","forced_short","460","","","","","","4","complex_dissimilar","images/stimuli/complex_18_A_a.gif","",""
"","html-keyboard-response","91","467414","0.0-23.0-0.5","SS1627326507755","","null","","","null","","","","","","","","","","","<p><img src= images/blank.png width =""600"" height = ""600"" style=""position:fixed;top:50%; left:50%; transform: translate(-50%, -50%); border:5px solid black"">","","","","",""
"","stimuli-presentation","92","469439","0.0-23.0-1.5","SS1627326507755","","1521.3999996185303","trial","","40","500","2021.3999996185303","images/stimuli/complex_18_A_a.gif","images/stimuli/complex_19_A_b.gif","forced_short","460","","","","","","4","complex_dissimilar","images/stimuli/complex_19_A_b.gif","",""
"","html-keyboard-response","93","470711","0.0-23.0-0.6","SS1627326507755","","null","","","null","","","","","","","","","","","<p><img src= images/blank.png width =""600"" height = ""600"" style=""position:fixed;top:50%; left:50%; transform: translate(-50%, -50%); border:5px solid black"">","","","","",""
"","stimuli-presentation","94","472145","0.0-23.0-1.6","SS1627326507755","","930.1999998092651","trial","","40","500","1430.1999998092651","images/stimuli/complex_18_A_a.gif","images/stimuli/complex_19_A_b.gif","forced_short","460","","","","","","4","complex_dissimilar","images/stimuli/complex_19_A_b.gif","",""
"","survey-multi-choice","95","475582","0.0-24.0","SS1627326507755","","3434.2999997138977","memory_test","","","","","","","","","{""Q0"":""Yes""}","[0]","images/stimuli/complex_19_A_b.gif","4","","","","","",""
"","survey-multi-choice","96","481908","0.0-25.0","SS1627326507755","","6320.400000095367","memory_test","","","","","","","","","{""Q0"":""No""}","[0]","images/stimuli/complex_06_A_b.gif","4","","","","","",""
"","html-keyboard-response","97","483204","0.0-26.0-0.0","SS1627326507755","","null","","","null","","","","","","","","","","","<p><img src= images/blank.png width =""600"" height = ""600"" style=""position:fixed;top:50%; left:50%; transform: translate(-50%, -50%); border:5px solid black"">","","","","",""
"","stimuli-presentation","98","486102","0.0-26.0-1.0","SS1627326507755","","2314.5999999046326","trial","","40","500","2814.5999999046326","images/stimuli/complex_01_A_b.gif","images/stimuli/complex_22_A_b.gif","forced_short","580","","","","","","5","complex_dissimilar","images/stimuli/complex_22_A_b.gif","",""
"","html-keyboard-response","99","487254","0.0-26.0-0.1","SS1627326507755","","null","","","null","","","","","","","","","","","<p><img src= images/blank.png width =""600"" height = ""600"" style=""position:fixed;top:50%; left:50%; transform: translate(-50%, -50%); border:5px solid black"">","","","","",""
"","stimuli-presentation","100","490850","0.0-26.0-1.1","SS1627326507755","","3093","trial","","40","500","3593","images/stimuli/complex_01_A_b.gif","images/stimuli/complex_22_A_b.gif","forced_short","580","","","","","","5","complex_dissimilar","images/stimuli/complex_01_A_b.gif","",""
"","html-keyboard-response","101","491843","0.0-26.0-0.2","SS1627326507755","","null","","","null","","","","","","","","","","","<p><img src= images/blank.png width =""600"" height = ""600"" style=""position:fixed;top:50%; left:50%; transform: translate(-50%, -50%); border:5px solid black"">","","","","",""
"","stimuli-presentation","102","496075","0.0-26.0-1.2","SS1627326507755","","3729.4000000953674","trial","","40","500","4229.400000095367","images/stimuli/complex_01_A_b.gif","images/stimuli/complex_22_A_b.gif","forced_short","580","","","","","","5","complex_dissimilar","images/stimuli/complex_22_A_b.gif","",""
"","html-keyboard-response","103","497222","0.0-26.0-0.3","SS1627326507755","","null","","","null","","","","","","","","","","","<p><img src= images/blank.png width =""600"" height = ""600"" style=""position:fixed;top:50%; left:50%; transform: translate(-50%, -50%); border:5px solid black"">","","","","",""
"","stimuli-presentation","104","498093","0.0-26.0-1.3","SS1627326507755","","368.5","trial","","40","500","868.5","images/stimuli/complex_01_A_b.gif","images/stimuli/complex_22_A_b.gif","forced_short","580","","","","","","5","complex_dissimilar","images/stimuli/complex_22_A_b.gif","",""
"","html-keyboard-response","105","498992","0.0-26.0-0.4","SS1627326507755","","null","","","null","","","","","","","","","","","<p><img src= images/blank.png width =""600"" height = ""600"" style=""position:fixed;top:50%; left:50%; transform: translate(-50%, -50%); border:5px solid black"">","","","","",""
"","stimuli-presentation","106","501091","0.0-26.0-1.4","SS1627326507755","","1596.9000000953674","trial","","40","500","2096.9000000953674","images/stimuli/complex_01_A_b.gif","images/stimuli/complex_22_A_b.gif","forced_short","580","","","","","","5","complex_dissimilar","images/stimuli/complex_22_A_b.gif","",""
"","html-keyboard-response","107","502235","0.0-26.0-0.5","SS1627326507755","","null","","","null","","","","","","","","","","","<p><img src= images/blank.png width =""600"" height = ""600"" style=""position:fixed;top:50%; left:50%; transform: translate(-50%, -50%); border:5px solid black"">","","","","",""
"","stimuli-presentation","108","503384","0.0-26.0-1.5","SS1627326507755","","644.5999999046326","trial","","40","500","1144.5999999046326","images/stimuli/complex_01_A_b.gif","images/stimuli/complex_22_A_b.gif","forced_short","580","","","","","","5","complex_dissimilar","images/stimuli/complex_22_A_b.gif","",""
"","survey-multi-choice","109","506473","0.0-27.0","SS1627326507755","","3087.1000003814697","memory_test","","","","","","","","","{""Q0"":""Yes""}","[0]","images/stimuli/complex_22_A_b.gif","5","","","","","",""
"","survey-multi-choice","110","509352","0.0-28.0","SS1627326507755","","2873.300000190735","memory_test","","","","","","","","","{""Q0"":""No""}","[0]","images/stimuli/complex_13_A_a.gif","5","","","","","",""
"","html-keyboard-response","111","510608","0.0-29.0-0.0","SS1627326507755","","null","","","null","","","","","","","","","","","<p><img src= images/blank.png width =""600"" height = ""600"" style=""position:fixed;top:50%; left:50%; transform: translate(-50%, -50%); border:5px solid black"">","","","","",""
"","stimuli-presentation","112","515535","0.0-29.0-1.0","SS1627326507755","","4093.6000003814697","trial","","40","500","4593.60000038147","images/stimuli/complex_09_A_b.gif","images/stimuli/complex_15_A_a.gif","forced_short","820","","","","","","6","complex_dissimilar","images/stimuli/complex_15_A_a.gif","",""
"","html-keyboard-response","113","516593","0.0-29.0-0.1","SS1627326507755","","null","","","null","","","","","","","","","","","<p><img src= images/blank.png width =""600"" height = ""600"" style=""position:fixed;top:50%; left:50%; transform: translate(-50%, -50%); border:5px solid black"">","","","","",""
"","stimuli-presentation","114","522537","0.0-29.0-1.1","SS1627326507755","","5440.099999904633","trial","","40","500","5940.099999904633","images/stimuli/complex_09_A_b.gif","images/stimuli/complex_15_A_a.gif","forced_short","820","","","","","","6","complex_dissimilar","images/stimuli/complex_15_A_a.gif","",""
"","html-keyboard-response","115","523530","0.0-29.0-0.2","SS1627326507755","","null","","","null","","","","","","","","","","","<p><img src= images/blank.png width =""600"" height = ""600"" style=""position:fixed;top:50%; left:50%; transform: translate(-50%, -50%); border:5px solid black"">","","","","",""
"","stimuli-presentation","116","529238","0.0-29.0-1.2","SS1627326507755","","5204.200000286102","trial","","40","500","5704.200000286102","images/stimuli/complex_09_A_b.gif","images/stimuli/complex_15_A_a.gif","forced_short","820","","","","","","6","complex_dissimilar","images/stimuli/complex_09_A_b.gif","",""
"","html-keyboard-response","117","530442","0.0-29.0-0.3","SS1627326507755","","null","","","null","","","","","","","","","","","<p><img src= images/blank.png width =""600"" height = ""600"" style=""position:fixed;top:50%; left:50%; transform: translate(-50%, -50%); border:5px solid black"">","","","","",""
"","stimuli-presentation","118","533643","0.0-29.0-1.3","SS1627326507755","","2686.1000003814697","trial","","40","500","3186.1000003814697","images/stimuli/complex_09_A_b.gif","images/stimuli/complex_15_A_a.gif","forced_short","820","","","","","","6","complex_dissimilar","images/stimuli/complex_15_A_a.gif","",""
"","html-keyboard-response","119","534643","0.0-29.0-0.4","SS1627326507755","","null","","","null","","","","","","","","","","","<p><img src= images/blank.png width =""600"" height = ""600"" style=""position:fixed;top:50%; left:50%; transform: translate(-50%, -50%); border:5px solid black"">","","","","",""
"","stimuli-presentation","120","538255","0.0-29.0-1.4","SS1627326507755","","3108.9000000953674","trial","","40","500","3608.9000000953674","images/stimuli/complex_09_A_b.gif","images/stimuli/complex_15_A_a.gif","forced_short","820","","","","","","6","complex_dissimilar","images/stimuli/complex_15_A_a.gif","",""
"","html-keyboard-response","121","539208","0.0-29.0-0.5","SS1627326507755","","null","","","null","","","","","","","","","","","<p><img src= images/blank.png width =""600"" height = ""600"" style=""position:fixed;top:50%; left:50%; transform: translate(-50%, -50%); border:5px solid black"">","","","","",""
"","stimuli-presentation","122","543149","0.0-29.0-1.5","SS1627326507755","","3437.8999996185303","trial","","40","500","3937.8999996185303","images/stimuli/complex_09_A_b.gif","images/stimuli/complex_15_A_a.gif","forced_short","820","","","","","","6","complex_dissimilar","images/stimuli/complex_09_A_b.gif","",""
"","html-keyboard-response","123","544216","0.0-29.0-0.6","SS1627326507755","","null","","","null","","","","","","","","","","","<p><img src= images/blank.png width =""600"" height = ""600"" style=""position:fixed;top:50%; left:50%; transform: translate(-50%, -50%); border:5px solid black"">","","","","",""
"","stimuli-presentation","124","547844","0.0-29.0-1.6","SS1627326507755","","3123.8999996185303","trial","","40","500","3623.8999996185303","images/stimuli/complex_09_A_b.gif","images/stimuli/complex_15_A_a.gif","forced_short","820","","","","","","6","complex_dissimilar","images/stimuli/complex_15_A_a.gif","",""
"","html-keyboard-response","125","548829","0.0-29.0-0.7","SS1627326507755","","null","","","null","","","","","","","","","","","<p><img src= images/blank.png width =""600"" height = ""600"" style=""position:fixed;top:50%; left:50%; transform: translate(-50%, -50%); border:5px solid black"">","","","","",""
"","stimuli-presentation","126","551222","0.0-29.0-1.7","SS1627326507755","","1889.7999997138977","trial","","40","500","2389.7999997138977","images/stimuli/complex_09_A_b.gif","images/stimuli/complex_15_A_a.gif","forced_short","820","","","","","","6","complex_dissimilar","images/stimuli/complex_15_A_a.gif","",""
"","survey-multi-choice","127","555583","0.0-30.0","SS1627326507755","","4358","memory_test","","","","","","","","","{""Q0"":""No""}","[0]","images/stimuli/complex_20_A_a.gif","6","","","","","",""
"","survey-multi-choice","128","558158","0.0-31.0","SS1627326507755","","2569.5999999046326","memory_test","","","","","","","","","{""Q0"":""Yes""}","[0]","images/stimuli/complex_15_A_a.gif","6","","","","","",""
"","html-keyboard-response","129","559280","0.0-32.0-0.0","SS1627326507755","","null","","","null","","","","","","","","","","","<p><img src= images/blank.png width =""600"" height = ""600"" style=""position:fixed;top:50%; left:50%; transform: translate(-50%, -50%); border:5px solid black"">","","","","",""
"","stimuli-presentation","130","564514","0.0-32.0-1.0","SS1627326507755","","4550","trial","","40","500","5050","images/stimuli/complex_23_A_a.gif","images/stimuli/complex_10_A_b.gif","forced_short","680","","","","","","7","complex_dissimilar","images/stimuli/complex_10_A_b.gif","",""
"","html-keyboard-response","131","565722","0.0-32.0-0.1","SS1627326507755","","null","","","null","","","","","","","","","","","<p><img src= images/blank.png width =""600"" height = ""600"" style=""position:fixed;top:50%; left:50%; transform: translate(-50%, -50%); border:5px solid black"">","","","","",""
"","stimuli-presentation","132","569638","0.0-32.0-1.1","SS1627326507755","","3412.699999809265","trial","","40","500","3912.699999809265","images/stimuli/complex_23_A_a.gif","images/stimuli/complex_10_A_b.gif","forced_short","680","","","","","","7","complex_dissimilar","images/stimuli/complex_10_A_b.gif","",""
"","html-keyboard-response","133","570778","0.0-32.0-0.2","SS1627326507755","","null","","","null","","","","","","","","","","","<p><img src= images/blank.png width =""600"" height = ""600"" style=""position:fixed;top:50%; left:50%; transform: translate(-50%, -50%); border:5px solid black"">","","","","",""
"","stimuli-presentation","134","571441","0.0-32.0-1.2","SS1627326507755","","158.5","trial","","40","500","658.5","images/stimuli/complex_23_A_a.gif","images/stimuli/complex_10_A_b.gif","forced_short","680","","","","","","7","complex_dissimilar","images/stimuli/complex_10_A_b.gif","",""
"","html-keyboard-response","135","572307","0.0-32.0-0.3","SS1627326507755","","null","","","null","","","","","","","","","","","<p><img src= images/blank.png width =""600"" height = ""600"" style=""position:fixed;top:50%; left:50%; transform: translate(-50%, -50%); border:5px solid black"">","","","","",""
"","stimuli-presentation","136","574055","0.0-32.0-1.3","SS1627326507755","","1245.1999998092651","trial","","40","500","1745.1999998092651","images/stimuli/complex_23_A_a.gif","images/stimuli/complex_10_A_b.gif","forced_short","680","","","","","","7","complex_dissimilar","images/stimuli/complex_10_A_b.gif","",""
"","html-keyboard-response","137","575334","0.0-32.0-0.4","SS1627326507755","","null","","","null","","","","","","","","","","","<p><img src= images/blank.png width =""600"" height = ""600"" style=""position:fixed;top:50%; left:50%; transform: translate(-50%, -50%); border:5px solid black"">","","","","",""
"","stimuli-presentation","138","579107","0.0-32.0-1.4","SS1627326507755","","3269.5","trial","","40","500","3769.5","images/stimuli/complex_23_A_a.gif","images/stimuli/complex_10_A_b.gif","forced_short","680","","","","","","7","complex_dissimilar","images/stimuli/complex_10_A_b.gif","",""
"","html-keyboard-response","139","580217","0.0-32.0-0.5","SS1627326507755","","null","","","null","","","","","","","","","","","<p><img src= images/blank.png width =""600"" height = ""600"" style=""position:fixed;top:50%; left:50%; transform: translate(-50%, -50%); border:5px solid black"">","","","","",""
"","stimuli-presentation","140","584094","0.0-32.0-1.5","SS1627326507755","","3374.0999999046326","trial","","40","500","3874.0999999046326","images/stimuli/complex_23_A_a.gif","images/stimuli/complex_10_A_b.gif","forced_short","680","","","","","","7","complex_dissimilar","images/stimuli/complex_10_A_b.gif","",""
"","html-keyboard-response","141","585259","0.0-32.0-0.6","SS1627326507755","","null","","","null","","","","","","","","","","","<p><img src= images/blank.png width =""600"" height = ""600"" style=""position:fixed;top:50%; left:50%; transform: translate(-50%, -50%); border:5px solid black"">","","","","",""
"","stimuli-presentation","142","587150","0.0-32.0-1.6","SS1627326507755","","1388","trial","","40","500","1888","images/stimuli/complex_23_A_a.gif","images/stimuli/complex_10_A_b.gif","forced_short","680","","","","","","7","complex_dissimilar","images/stimuli/complex_10_A_b.gif","",""
"","survey-multi-choice","143","591703","0.0-33.0","SS1627326507755","","4549.900000095367","memory_test","","","","","","","","","{""Q0"":""No""}","[0]","images/stimuli/complex_16_A_b.gif","7","","","","","",""
"","survey-multi-choice","144","593945","0.0-34.0","SS1627326507755","","2237.2999997138977","memory_test","","","","","","","","","{""Q0"":""Yes""}","[0]","images/stimuli/complex_10_A_b.gif","7","","","","","",""
"","instructions","145","609164","0.0-35.0","SS1627326507755","[{""page_index"":0,""viewing_time"":15213.700000286102}]","15214","instructions","","","","","","","","","","","","","","","","","",""
"","survey-likert","146","626158","0.0-36.0","SS1627326507755","","16989.400000095367","similarity_question","","","","","","","","","{""Q0"":0}","[0]","","","","","","","images/stimuli/complex_09_A_b.gif","images/stimuli/complex_15_A_a.gif"
"","survey-likert","147","633101","0.0-37.0","SS1627326507755","","6937.199999809265","similarity_question","","","","","","","","","{""Q0"":1}","[0]","","","","","","","images/stimuli/complex_12_A_a.gif","images/stimuli/complex_14_A_a.gif"
"","survey-likert","148","641952","0.0-38.0","SS1627326507755","","8845.699999809265","similarity_question","","","","","","","","","{""Q0"":1}","[0]","","","","","","","images/stimuli/complex_18_A_a.gif","images/stimuli/complex_19_A_b.gif"
"","survey-likert","149","653048","0.0-39.0","SS1627326507755","","11088.900000095367","similarity_question","","","","","","","","","{""Q0"":0}","[0]","","","","","","","images/stimuli/complex_04_A_a.gif","images/stimuli/complex_07_A_b.gif"
"","survey-likert","150","661331","0.0-40.0","SS1627326507755","","8277.799999713898","similarity_question","","","","","","","","","{""Q0"":4}","[0]","","","","","","","images/stimuli/complex_01_A_b.gif","images/stimuli/complex_22_A_b.gif"
"","survey-likert","151","669128","0.0-41.0","SS1627326507755","","7791","similarity_question","","","","","","","","","{""Q0"":3}","[0]","","","","","","","images/stimuli/complex_03_A_b.gif","images/stimuli/complex_17_A_b.gif"
"","survey-likert","152","676411","0.0-42.0","SS1627326507755","","7276.699999809265","similarity_question","","","","","","","","","{""Q0"":1}","[0]","","","","","","","images/stimuli/complex_24_A_a.gif","images/stimuli/complex_05_A_a.gif"
"","survey-likert","153","683249","0.0-43.0","SS1627326507755","","6831.10000038147","similarity_question","","","","","","","","","{""Q0"":4}","[0]","","","","","","","images/stimuli/complex_23_A_a.gif","images/stimuli/complex_10_A_b.gif"
"","instructions","154","690830","0.0-44.0","SS1627326507755","[{""page_index"":0,""viewing_time"":7575.900000095367}]","7576.300000190735","instructions","","","","","","","","","","","","","","","","","",""
"","survey-likert","155","702924","0.0-45.0","SS1627326507755","","12090.300000190735","","","","","","","","","","{""Q0"":3}","[0]","","","images/stimuli/complex_09_A_b.gif","","","","",""
"","survey-likert","156","708159","0.0-46.0","SS1627326507755","","5229.199999809265","","","","","","","","","","{""Q0"":5}","[0]","","","images/stimuli/complex_10_A_b.gif","","","","",""
"","survey-likert","157","712608","0.0-47.0","SS1627326507755","","4443.099999904633","","","","","","","","","","{""Q0"":4}","[0]","","","images/stimuli/complex_19_A_b.gif","","","","",""
"","survey-likert","158","717851","0.0-48.0","SS1627326507755","","5236.799999713898","","","","","","","","","","{""Q0"":4}","[0]","","","images/stimuli/complex_05_A_a.gif","","","","",""
"","survey-likert","159","724751","0.0-49.0","SS1627326507755","","6894","","","","","","","","","","{""Q0"":2}","[0]","","","images/stimuli/complex_22_A_b.gif","","","","",""
"","survey-likert","160","731118","0.0-50.0","SS1627326507755","","6360.699999809265","","","","","","","","","","{""Q0"":1}","[0]","","","images/stimuli/complex_03_A_b.gif","","","","",""
"","survey-likert","161","737330","0.0-51.0","SS1627326507755","","6206.099999904633","","","","","","","","","","{""Q0"":4}","[0]","","","images/stimuli/complex_14_A_a.gif","","","","",""
"","survey-likert","162","740687","0.0-52.0","SS1627326507755","","3350.4000000953674","","","","","","","","","","{""Q0"":6}","[0]","","","images/stimuli/complex_07_A_b.gif","","","","",""
"true","fullscreen","163","741698","0.0-53.0","SS1627326507755","","","","","","","","","","","","","","","","","","","","",""
"","instructions","164","747203","0.0-54.0","SS1627326507755","[{""page_index"":0,""viewing_time"":5503.099999904633}]","5503.400000095367","instructions","","","","","","","","","","","","","","","","","",""
"","demog-age","165","750916","0.0-55.0","SS1627326507755","","3708","","","","","","","","","","{""age"":""21""}","","","","","","","","",""
"","demog-ethnic-US","166","765606","0.0-56.0","SS1627326507755","","14684.199999809265","","","","","","","","","","{""ethnicity"":[""Hispanic or Latino""]}","[0]","","","","","","","",""
"","demog-gender-and-education","167","786574","0.0-57.0","SS1627326507755","","20961.400000095367","","","","","","","","","","{""gender"":""Male"",""education"":""Associate Degree/Technical certification""}","[0,1]","","","","","","","",""
"","survey-text","168","819588","0.0-58.0","SS1627326507755","","33006.199999809265","feedback","","","","","","","","","{""Q0"":""at beginning laggy""}","","","","","","","","",""
"","instructions","169","826467","0.0-59.0","SS1627326507755","[{""page_index"":0,""viewing_time"":6876.5}]","6877","instructions","","","","","","","","","","","","","","","","","",""
