"success","trial_type","trial_index","time_elapsed","internal_node_id","subject","view_history","rt","stimulus_type","trial_stimulus","key_press","minimum_viewing_duration","trial_looking_time","block_deviant","block_background","exposure_type","forced_exposure_time","responses","question_order","memory_question_stimuli","memory_block_index","stimulus","block_number","block_type","stimulus_displayed","stimulus_left","stimulus_right"
"true","fullscreen","0","4042","0.0-0.0","SS1627326478117","","","","","","","","","","","","","","","","","","","","",""
"","instructions","1","8210","0.0-1.0","SS1627326478117","[{""page_index"":0,""viewing_time"":4163.065000029746}]","4164.310000021942","","","","","","","","","","","","","","","","","","",""
"","instructions","2","15875","0.0-2.0","SS1627326478117","[{""page_index"":0,""viewing_time"":3539.124999952037},{""page_index"":1,""viewing_time"":2113.2499999948777}]","5653.064999962226","instructions","","","","","","","","","","","","","","","","","",""
"","stimuli-presentation","3","19662","0.0-3.0","SS1627326478117","","3277.300000016112","","","40","500","3777.300000016112","null","null","self_paced","0","","","","","","","","","",""
"","instructions","4","23342","0.0-4.0","SS1627326478117","[{""page_index"":0,""viewing_time"":3678.234999999404}]","3678.825000009965","instructions","","","","","","","","","","","","","","","","","",""
"","stimuli-presentation","5","25200","0.0-5.0","SS1627326478117","","1348.3949999790639","","","40","500","1848.3949999790639","null","null","forced_short","500","","","","","","","","","",""
"","stimuli-presentation","6","26729","0.0-6.0","SS1627326478117","","1011.4550000289455","","","40","500","1511.4550000289455","null","null","forced_short","500","","","","","","","","","",""
"","instructions","7","29934","0.0-7.0","SS1627326478117","[{""page_index"":0,""viewing_time"":3202.3100000224076}]","3202.9550000443123","instructions","","","","","","","","","","","","","","","","","",""
"","survey-multi-choice","8","32808","0.0-8.0","SS1627326478117","","2867.675000044983","memory_test_practice","","","","","","","","","{""Q0"":""Yes""}","[0]","images/practice/instructions_example_spore2.gif","0","","","","","",""
"","survey-multi-choice","9","35479","0.0-9.0","SS1627326478117","","2660.990000003949","memory_test_practice","","","","","","","","","{""Q0"":""No""}","[0]","images/practice/instructions_example_spore0.gif","0","","","","","",""
"","instructions","10","41181","0.0-10.0","SS1627326478117","[{""page_index"":0,""viewing_time"":4519.544999988284},{""page_index"":1,""viewing_time"":1173.4600000199862}]","5693.535000027623","instructions","","","","","","","","","","","","","","","","","",""
"","html-keyboard-response","11","42220","0.0-11.0-0.0","SS1627326478117","","null","","","null","","","","","","","","","","","<p><img src= images/blank.png width =""600"" height = ""600"" style=""position:fixed;top:50%; left:50%; transform: translate(-50%, -50%); border:5px solid black"">","","","","",""
"","stimuli-presentation","12","43450","0.0-11.0-1.0","SS1627326478117","","619.1300000064075","trial","","40","500","1119.1300000064075","images/stimuli/complex_02_A_a.gif","images/stimuli/complex_10_A_b.gif","forced_short","600","","","","","","0","complex_dissimilar","images/stimuli/complex_10_A_b.gif","",""
"","html-keyboard-response","13","44529","0.0-11.0-0.1","SS1627326478117","","null","","","null","","","","","","","","","","","<p><img src= images/blank.png width =""600"" height = ""600"" style=""position:fixed;top:50%; left:50%; transform: translate(-50%, -50%); border:5px solid black"">","","","","",""
"","stimuli-presentation","14","47670","0.0-11.0-1.1","SS1627326478117","","2633.3549999981187","trial","","40","500","3133.3549999981187","images/stimuli/complex_02_A_a.gif","images/stimuli/complex_10_A_b.gif","forced_short","600","","","","","","0","complex_dissimilar","images/stimuli/complex_02_A_a.gif","",""
"","html-keyboard-response","15","48534","0.0-11.0-0.2","SS1627326478117","","null","","","null","","","","","","","","","","","<p><img src= images/blank.png width =""600"" height = ""600"" style=""position:fixed;top:50%; left:50%; transform: translate(-50%, -50%); border:5px solid black"">","","","","",""
"","stimuli-presentation","16","49280","0.0-11.0-1.2","SS1627326478117","","234.02999999234453","trial","","40","500","734.0299999923445","images/stimuli/complex_02_A_a.gif","images/stimuli/complex_10_A_b.gif","forced_short","600","","","","","","0","complex_dissimilar","images/stimuli/complex_10_A_b.gif","",""
"","html-keyboard-response","17","50394","0.0-11.0-0.3","SS1627326478117","","null","","","null","","","","","","","","","","","<p><img src= images/blank.png width =""600"" height = ""600"" style=""position:fixed;top:50%; left:50%; transform: translate(-50%, -50%); border:5px solid black"">","","","","",""
"","stimuli-presentation","18","51880","0.0-11.0-1.3","SS1627326478117","","960.8700000098906","trial","","40","500","1460.8700000098906","images/stimuli/complex_02_A_a.gif","images/stimuli/complex_10_A_b.gif","forced_short","600","","","","","","0","complex_dissimilar","images/stimuli/complex_10_A_b.gif","",""
"","html-keyboard-response","19","52738","0.0-11.0-0.4","SS1627326478117","","null","","","null","","","","","","","","","","","<p><img src= images/blank.png width =""600"" height = ""600"" style=""position:fixed;top:50%; left:50%; transform: translate(-50%, -50%); border:5px solid black"">","","","","",""
"","stimuli-presentation","20","53540","0.0-11.0-1.4","SS1627326478117","","294.0999999991618","trial","","40","500","794.0999999991618","images/stimuli/complex_02_A_a.gif","images/stimuli/complex_10_A_b.gif","forced_short","600","","","","","","0","complex_dissimilar","images/stimuli/complex_10_A_b.gif","",""
"","html-keyboard-response","21","54499","0.0-11.0-0.5","SS1627326478117","","null","","","null","","","","","","","","","","","<p><img src= images/blank.png width =""600"" height = ""600"" style=""position:fixed;top:50%; left:50%; transform: translate(-50%, -50%); border:5px solid black"">","","","","",""
"","stimuli-presentation","22","56120","0.0-11.0-1.5","SS1627326478117","","1112.2700000414625","trial","","40","500","1612.2700000414625","images/stimuli/complex_02_A_a.gif","images/stimuli/complex_10_A_b.gif","forced_short","600","","","","","","0","complex_dissimilar","images/stimuli/complex_10_A_b.gif","",""
"","html-keyboard-response","23","57217","0.0-11.0-0.6","SS1627326478117","","null","","","null","","","","","","","","","","","<p><img src= images/blank.png width =""600"" height = ""600"" style=""position:fixed;top:50%; left:50%; transform: translate(-50%, -50%); border:5px solid black"">","","","","",""
"","stimuli-presentation","24","57899","0.0-11.0-1.6","SS1627326478117","","173.575000022538","trial","","40","500","673.575000022538","images/stimuli/complex_02_A_a.gif","images/stimuli/complex_10_A_b.gif","forced_short","600","","","","","","0","complex_dissimilar","images/stimuli/complex_02_A_a.gif","",""
"","survey-multi-choice","25","60491","0.0-12.0","SS1627326478117","","2589.31999997003","memory_test","","","","","","","","","{""Q0"":""No""}","[0]","images/stimuli/complex_19_A_b.gif","0","","","","","",""
"","survey-multi-choice","26","62433","0.0-13.0","SS1627326478117","","1931.220000027679","memory_test","","","","","","","","","{""Q0"":""Yes""}","[0]","images/stimuli/complex_02_A_a.gif","0","","","","","",""
"","html-keyboard-response","27","63464","0.0-14.0-0.0","SS1627326478117","","null","","","null","","","","","","","","","","","<p><img src= images/blank.png width =""600"" height = ""600"" style=""position:fixed;top:50%; left:50%; transform: translate(-50%, -50%); border:5px solid black"">","","","","",""
"","stimuli-presentation","28","64829","0.0-14.0-1.0","SS1627326478117","","514.3200000165962","trial","","40","500","1014.3200000165962","images/stimuli/complex_15_A_b.gif","images/stimuli/complex_24_A_a.gif","forced_short","840","","","","","","1","complex_dissimilar","images/stimuli/complex_24_A_a.gif","",""
"","html-keyboard-response","29","65676","0.0-14.0-0.1","SS1627326478117","","null","","","null","","","","","","","","","","","<p><img src= images/blank.png width =""600"" height = ""600"" style=""position:fixed;top:50%; left:50%; transform: translate(-50%, -50%); border:5px solid black"">","","","","",""
"","stimuli-presentation","30","66929","0.0-14.0-1.1","SS1627326478117","","740.3100000228733","trial","","40","500","1240.3100000228733","images/stimuli/complex_15_A_b.gif","images/stimuli/complex_24_A_a.gif","forced_short","840","","","","","","1","complex_dissimilar","images/stimuli/complex_24_A_a.gif","",""
"","html-keyboard-response","31","67787","0.0-14.0-0.2","SS1627326478117","","null","","","null","","","","","","","","","","","<p><img src= images/blank.png width =""600"" height = ""600"" style=""position:fixed;top:50%; left:50%; transform: translate(-50%, -50%); border:5px solid black"">","","","","",""
"","stimuli-presentation","32","68398","0.0-14.0-1.2","SS1627326478117","","103.91500004334375","trial","","40","500","603.9150000433438","images/stimuli/complex_15_A_b.gif","images/stimuli/complex_24_A_a.gif","forced_short","840","","","","","","1","complex_dissimilar","images/stimuli/complex_24_A_a.gif","",""
"","html-keyboard-response","33","69683","0.0-14.0-0.3","SS1627326478117","","null","","","null","","","","","","","","","","","<p><img src= images/blank.png width =""600"" height = ""600"" style=""position:fixed;top:50%; left:50%; transform: translate(-50%, -50%); border:5px solid black"">","","","","",""
"","stimuli-presentation","34","70979","0.0-14.0-1.3","SS1627326478117","","791.1350000067614","trial","","40","500","1291.1350000067614","images/stimuli/complex_15_A_b.gif","images/stimuli/complex_24_A_a.gif","forced_short","840","","","","","","1","complex_dissimilar","images/stimuli/complex_24_A_a.gif","",""
"","html-keyboard-response","35","72060","0.0-14.0-0.4","SS1627326478117","","null","","","null","","","","","","","","","","","<p><img src= images/blank.png width =""600"" height = ""600"" style=""position:fixed;top:50%; left:50%; transform: translate(-50%, -50%); border:5px solid black"">","","","","",""
"","stimuli-presentation","36","72619","0.0-14.0-1.4","SS1627326478117","","41.31000000052154","trial","","40","500","541.3100000005215","images/stimuli/complex_15_A_b.gif","images/stimuli/complex_24_A_a.gif","forced_short","840","","","","","","1","complex_dissimilar","images/stimuli/complex_24_A_a.gif","",""
"","html-keyboard-response","37","73660","0.0-14.0-0.5","SS1627326478117","","null","","","null","","","","","","","","","","","<p><img src= images/blank.png width =""600"" height = ""600"" style=""position:fixed;top:50%; left:50%; transform: translate(-50%, -50%); border:5px solid black"">","","","","",""
"","stimuli-presentation","38","74199","0.0-14.0-1.5","SS1627326478117","","30.800000007729977","trial","","40","500","530.80000000773","images/stimuli/complex_15_A_b.gif","images/stimuli/complex_24_A_a.gif","forced_short","840","","","","","","1","complex_dissimilar","images/stimuli/complex_24_A_a.gif","",""
"","html-keyboard-response","39","75280","0.0-14.0-0.6","SS1627326478117","","null","","","null","","","","","","","","","","","<p><img src= images/blank.png width =""600"" height = ""600"" style=""position:fixed;top:50%; left:50%; transform: translate(-50%, -50%); border:5px solid black"">","","","","",""
"","stimuli-presentation","40","76229","0.0-14.0-1.6","SS1627326478117","","440.3850000235252","trial","","40","500","940.3850000235252","images/stimuli/complex_15_A_b.gif","images/stimuli/complex_24_A_a.gif","forced_short","840","","","","","","1","complex_dissimilar","images/stimuli/complex_24_A_a.gif","",""
"","survey-multi-choice","41","78524","0.0-15.0","SS1627326478117","","2292.4699999857694","memory_test","","","","","","","","","{""Q0"":""No""}","[0]","images/stimuli/complex_17_A_b.gif","1","","","","","",""
"","survey-multi-choice","42","80159","0.0-16.0","SS1627326478117","","1623.45999997342","memory_test","","","","","","","","","{""Q0"":""Yes""}","[0]","images/stimuli/complex_24_A_a.gif","1","","","","","",""
"","html-keyboard-response","43","81128","0.0-17.0-0.0","SS1627326478117","","null","","","null","","","","","","","","","","","<p><img src= images/blank.png width =""600"" height = ""600"" style=""position:fixed;top:50%; left:50%; transform: translate(-50%, -50%); border:5px solid black"">","","","","",""
"","stimuli-presentation","44","82429","0.0-17.0-1.0","SS1627326478117","","889.1350000048988","trial","","40","500","1389.1350000048988","images/stimuli/complex_04_A_a.gif","images/stimuli/complex_08_A_a.gif","forced_short","400","","","","","","2","complex_dissimilar","images/stimuli/complex_08_A_a.gif","",""
"","html-keyboard-response","45","83476","0.0-17.0-0.1","SS1627326478117","","null","","","null","","","","","","","","","","","<p><img src= images/blank.png width =""600"" height = ""600"" style=""position:fixed;top:50%; left:50%; transform: translate(-50%, -50%); border:5px solid black"">","","","","",""
"","stimuli-presentation","46","84199","0.0-17.0-1.1","SS1627326478117","","212.17000001342967","trial","","40","500","712.1700000134297","images/stimuli/complex_04_A_a.gif","images/stimuli/complex_08_A_a.gif","forced_short","400","","","","","","2","complex_dissimilar","images/stimuli/complex_08_A_a.gif","",""
"","html-keyboard-response","47","85055","0.0-17.0-0.2","SS1627326478117","","null","","","null","","","","","","","","","","","<p><img src= images/blank.png width =""600"" height = ""600"" style=""position:fixed;top:50%; left:50%; transform: translate(-50%, -50%); border:5px solid black"">","","","","",""
"","stimuli-presentation","48","86329","0.0-17.0-1.2","SS1627326478117","","761.7850000387989","trial","","40","500","1261.785000038799","images/stimuli/complex_04_A_a.gif","images/stimuli/complex_08_A_a.gif","forced_short","400","","","","","","2","complex_dissimilar","images/stimuli/complex_08_A_a.gif","",""
"","html-keyboard-response","49","87590","0.0-17.0-0.3","SS1627326478117","","null","","","null","","","","","","","","","","","<p><img src= images/blank.png width =""600"" height = ""600"" style=""position:fixed;top:50%; left:50%; transform: translate(-50%, -50%); border:5px solid black"">","","","","",""
"","stimuli-presentation","50","88209","0.0-17.0-1.3","SS1627326478117","","111.32999998517334","trial","","40","500","611.3299999851733","images/stimuli/complex_04_A_a.gif","images/stimuli/complex_08_A_a.gif","forced_short","400","","","","","","2","complex_dissimilar","images/stimuli/complex_08_A_a.gif","",""
"","html-keyboard-response","51","89267","0.0-17.0-0.4","SS1627326478117","","null","","","null","","","","","","","","","","","<p><img src= images/blank.png width =""600"" height = ""600"" style=""position:fixed;top:50%; left:50%; transform: translate(-50%, -50%); border:5px solid black"">","","","","",""
"","stimuli-presentation","52","91488","0.0-17.0-1.4","SS1627326478117","","1713.7549999752082","trial","","40","500","2213.754999975208","images/stimuli/complex_04_A_a.gif","images/stimuli/complex_08_A_a.gif","forced_short","400","","","","","","2","complex_dissimilar","images/stimuli/complex_04_A_a.gif","",""
"","html-keyboard-response","53","92785","0.0-17.0-0.5","SS1627326478117","","null","","","null","","","","","","","","","","","<p><img src= images/blank.png width =""600"" height = ""600"" style=""position:fixed;top:50%; left:50%; transform: translate(-50%, -50%); border:5px solid black"">","","","","",""
"","stimuli-presentation","54","93359","0.0-17.0-1.5","SS1627326478117","","64.76000003749505","trial","","40","500","564.760000037495","images/stimuli/complex_04_A_a.gif","images/stimuli/complex_08_A_a.gif","forced_short","400","","","","","","2","complex_dissimilar","images/stimuli/complex_08_A_a.gif","",""
"","html-keyboard-response","55","94215","0.0-17.0-0.6","SS1627326478117","","null","","","null","","","","","","","","","","","<p><img src= images/blank.png width =""600"" height = ""600"" style=""position:fixed;top:50%; left:50%; transform: translate(-50%, -50%); border:5px solid black"">","","","","",""
"","stimuli-presentation","56","95029","0.0-17.0-1.6","SS1627326478117","","305.07000000216067","trial","","40","500","805.0700000021607","images/stimuli/complex_04_A_a.gif","images/stimuli/complex_08_A_a.gif","forced_short","400","","","","","","2","complex_dissimilar","images/stimuli/complex_04_A_a.gif","",""
"","survey-multi-choice","57","97850","0.0-18.0","SS1627326478117","","2816.999999980908","memory_test","","","","","","","","","{""Q0"":""No""}","[0]","images/stimuli/complex_14_A_b.gif","2","","","","","",""
"","survey-multi-choice","58","100188","0.0-19.0","SS1627326478117","","2326.0299999965355","memory_test","","","","","","","","","{""Q0"":""Yes""}","[0]","images/stimuli/complex_08_A_a.gif","2","","","","","",""
"","html-keyboard-response","59","101049","0.0-20.0-0.0","SS1627326478117","","null","","","null","","","","","","","","","","","<p><img src= images/blank.png width =""600"" height = ""600"" style=""position:fixed;top:50%; left:50%; transform: translate(-50%, -50%); border:5px solid black"">","","","","",""
"","stimuli-presentation","60","108500","0.0-20.0-1.0","SS1627326478117","","6671.040000044741","trial","","40","500","7171.040000044741","images/stimuli/complex_06_A_b.gif","images/stimuli/complex_20_A_b.gif","forced_short","770","","","","","","3","complex_dissimilar","images/stimuli/complex_20_A_b.gif","",""
"","html-keyboard-response","61","109763","0.0-20.0-0.1","SS1627326478117","","null","","","null","","","","","","","","","","","<p><img src= images/blank.png width =""600"" height = ""600"" style=""position:fixed;top:50%; left:50%; transform: translate(-50%, -50%); border:5px solid black"">","","","","",""
"","stimuli-presentation","62","111029","0.0-20.0-1.1","SS1627326478117","","747.8949999785982","trial","","40","500","1247.8949999785982","images/stimuli/complex_06_A_b.gif","images/stimuli/complex_20_A_b.gif","forced_short","770","","","","","","3","complex_dissimilar","images/stimuli/complex_20_A_b.gif","",""
"","html-keyboard-response","63","112289","0.0-20.0-0.2","SS1627326478117","","null","","","null","","","","","","","","","","","<p><img src= images/blank.png width =""600"" height = ""600"" style=""position:fixed;top:50%; left:50%; transform: translate(-50%, -50%); border:5px solid black"">","","","","",""
"","stimuli-presentation","64","113169","0.0-20.0-1.2","SS1627326478117","","362.7950000227429","trial","","40","500","862.7950000227429","images/stimuli/complex_06_A_b.gif","images/stimuli/complex_20_A_b.gif","forced_short","770","","","","","","3","complex_dissimilar","images/stimuli/complex_20_A_b.gif","",""
"","html-keyboard-response","65","114050","0.0-20.0-0.3","SS1627326478117","","null","","","null","","","","","","","","","","","<p><img src= images/blank.png width =""600"" height = ""600"" style=""position:fixed;top:50%; left:50%; transform: translate(-50%, -50%); border:5px solid black"">","","","","",""
"","stimuli-presentation","66","114679","0.0-20.0-1.3","SS1627326478117","","120.0550000066869","trial","","40","500","620.0550000066869","images/stimuli/complex_06_A_b.gif","images/stimuli/complex_20_A_b.gif","forced_short","770","","","","","","3","complex_dissimilar","images/stimuli/complex_20_A_b.gif","",""
"","html-keyboard-response","67","115874","0.0-20.0-0.4","SS1627326478117","","null","","","null","","","","","","","","","","","<p><img src= images/blank.png width =""600"" height = ""600"" style=""position:fixed;top:50%; left:50%; transform: translate(-50%, -50%); border:5px solid black"">","","","","",""
"","stimuli-presentation","68","116399","0.0-20.0-1.4","SS1627326478117","","15.669999993406236","trial","","40","500","515.6699999934062","images/stimuli/complex_06_A_b.gif","images/stimuli/complex_20_A_b.gif","forced_short","770","","","","","","3","complex_dissimilar","images/stimuli/complex_20_A_b.gif","",""
"","html-keyboard-response","69","117486","0.0-20.0-0.5","SS1627326478117","","null","","","null","","","","","","","","","","","<p><img src= images/blank.png width =""600"" height = ""600"" style=""position:fixed;top:50%; left:50%; transform: translate(-50%, -50%); border:5px solid black"">","","","","",""
"","stimuli-presentation","70","118029","0.0-20.0-1.5","SS1627326478117","","33.1049999804236","trial","","40","500","533.1049999804236","images/stimuli/complex_06_A_b.gif","images/stimuli/complex_20_A_b.gif","forced_short","770","","","","","","3","complex_dissimilar","images/stimuli/complex_20_A_b.gif","",""
"","survey-multi-choice","71","120881","0.0-21.0","SS1627326478117","","2848.8950000028126","memory_test","","","","","","","","","{""Q0"":""Yes""}","[0]","images/stimuli/complex_20_A_b.gif","3","","","","","",""
"","survey-multi-choice","72","122871","0.0-22.0","SS1627326478117","","1979.0200000279583","memory_test","","","","","","","","","{""Q0"":""No""}","[0]","images/stimuli/complex_05_A_a.gif","3","","","","","",""
"","html-keyboard-response","73","124105","0.0-23.0-0.0","SS1627326478117","","null","","","null","","","","","","","","","","","<p><img src= images/blank.png width =""600"" height = ""600"" style=""position:fixed;top:50%; left:50%; transform: translate(-50%, -50%); border:5px solid black"">","","","","",""
"","stimuli-presentation","74","129028","0.0-23.0-1.0","SS1627326478117","","4777.9650000156835","trial","","40","500","5277.9650000156835","images/stimuli/complex_12_A_a.gif","images/stimuli/complex_21_A_a.gif","forced_short","140","","","","","","4","complex_dissimilar","images/stimuli/complex_21_A_a.gif","",""
"","html-keyboard-response","75","130219","0.0-23.0-0.1","SS1627326478117","","null","","","null","","","","","","","","","","","<p><img src= images/blank.png width =""600"" height = ""600"" style=""position:fixed;top:50%; left:50%; transform: translate(-50%, -50%); border:5px solid black"">","","","","",""
"","stimuli-presentation","76","131189","0.0-23.0-1.1","SS1627326478117","","463.2849999470636","trial","","40","500","963.2849999470636","images/stimuli/complex_12_A_a.gif","images/stimuli/complex_21_A_a.gif","forced_short","140","","","","","","4","complex_dissimilar","images/stimuli/complex_21_A_a.gif","",""
"","html-keyboard-response","77","132198","0.0-23.0-0.2","SS1627326478117","","null","","","null","","","","","","","","","","","<p><img src= images/blank.png width =""600"" height = ""600"" style=""position:fixed;top:50%; left:50%; transform: translate(-50%, -50%); border:5px solid black"">","","","","",""
"","stimuli-presentation","78","133648","0.0-23.0-1.2","SS1627326478117","","943.970000022091","trial","","40","500","1443.970000022091","images/stimuli/complex_12_A_a.gif","images/stimuli/complex_21_A_a.gif","forced_short","140","","","","","","4","complex_dissimilar","images/stimuli/complex_21_A_a.gif","",""
"","html-keyboard-response","79","134535","0.0-23.0-0.3","SS1627326478117","","null","","","null","","","","","","","","","","","<p><img src= images/blank.png width =""600"" height = ""600"" style=""position:fixed;top:50%; left:50%; transform: translate(-50%, -50%); border:5px solid black"">","","","","",""
"","stimuli-presentation","80","135068","0.0-23.0-1.3","SS1627326478117","","25.614999991375953","trial","","40","500","525.614999991376","images/stimuli/complex_12_A_a.gif","images/stimuli/complex_21_A_a.gif","forced_short","140","","","","","","4","complex_dissimilar","images/stimuli/complex_21_A_a.gif","",""
"","html-keyboard-response","81","136138","0.0-23.0-0.4","SS1627326478117","","null","","","null","","","","","","","","","","","<p><img src= images/blank.png width =""600"" height = ""600"" style=""position:fixed;top:50%; left:50%; transform: translate(-50%, -50%); border:5px solid black"">","","","","",""
"","stimuli-presentation","82","137098","0.0-23.0-1.4","SS1627326478117","","441.5900000021793","trial","","40","500","941.5900000021793","images/stimuli/complex_12_A_a.gif","images/stimuli/complex_21_A_a.gif","forced_short","140","","","","","","4","complex_dissimilar","images/stimuli/complex_21_A_a.gif","",""
"","html-keyboard-response","83","138093","0.0-23.0-0.5","SS1627326478117","","null","","","null","","","","","","","","","","","<p><img src= images/blank.png width =""600"" height = ""600"" style=""position:fixed;top:50%; left:50%; transform: translate(-50%, -50%); border:5px solid black"">","","","","",""
"","stimuli-presentation","84","138908","0.0-23.0-1.5","SS1627326478117","","309.8599999793805","trial","","40","500","809.8599999793805","images/stimuli/complex_12_A_a.gif","images/stimuli/complex_21_A_a.gif","forced_short","140","","","","","","4","complex_dissimilar","images/stimuli/complex_21_A_a.gif","",""
"","survey-multi-choice","85","141460","0.0-24.0","SS1627326478117","","2546.375000034459","memory_test","","","","","","","","","{""Q0"":""Yes""}","[0]","images/stimuli/complex_21_A_a.gif","4","","","","","",""
"","survey-multi-choice","86","143355","0.0-25.0","SS1627326478117","","1879.5700000482611","memory_test","","","","","","","","","{""Q0"":""No""}","[0]","images/stimuli/complex_07_A_a.gif","4","","","","","",""
"","html-keyboard-response","87","144403","0.0-26.0-0.0","SS1627326478117","","null","","","null","","","","","","","","","","","<p><img src= images/blank.png width =""600"" height = ""600"" style=""position:fixed;top:50%; left:50%; transform: translate(-50%, -50%); border:5px solid black"">","","","","",""
"","stimuli-presentation","88","145449","0.0-26.0-1.0","SS1627326478117","","529.404999979306","trial","","40","500","1029.404999979306","images/stimuli/complex_13_A_b.gif","images/stimuli/complex_16_A_b.gif","forced_short","510","","","","","","5","complex_dissimilar","images/stimuli/complex_16_A_b.gif","",""
"","html-keyboard-response","89","146448","0.0-26.0-0.1","SS1627326478117","","null","","","null","","","","","","","","","","","<p><img src= images/blank.png width =""600"" height = ""600"" style=""position:fixed;top:50%; left:50%; transform: translate(-50%, -50%); border:5px solid black"">","","","","",""
"","stimuli-presentation","90","147568","0.0-26.0-1.1","SS1627326478117","","601.0900000110269","trial","","40","500","1101.0900000110269","images/stimuli/complex_13_A_b.gif","images/stimuli/complex_16_A_b.gif","forced_short","510","","","","","","5","complex_dissimilar","images/stimuli/complex_16_A_b.gif","",""
"","html-keyboard-response","91","148774","0.0-26.0-0.2","SS1627326478117","","null","","","null","","","","","","","","","","","<p><img src= images/blank.png width =""600"" height = ""600"" style=""position:fixed;top:50%; left:50%; transform: translate(-50%, -50%); border:5px solid black"">","","","","",""
"","stimuli-presentation","92","149688","0.0-26.0-1.2","SS1627326478117","","395.4249999951571","trial","","40","500","895.4249999951571","images/stimuli/complex_13_A_b.gif","images/stimuli/complex_16_A_b.gif","forced_short","510","","","","","","5","complex_dissimilar","images/stimuli/complex_16_A_b.gif","",""
"","html-keyboard-response","93","150792","0.0-26.0-0.3","SS1627326478117","","null","","","null","","","","","","","","","","","<p><img src= images/blank.png width =""600"" height = ""600"" style=""position:fixed;top:50%; left:50%; transform: translate(-50%, -50%); border:5px solid black"">","","","","",""
"","stimuli-presentation","94","151619","0.0-26.0-1.3","SS1627326478117","","318.41000000713393","trial","","40","500","818.4100000071339","images/stimuli/complex_13_A_b.gif","images/stimuli/complex_16_A_b.gif","forced_short","510","","","","","","5","complex_dissimilar","images/stimuli/complex_16_A_b.gif","",""
"","html-keyboard-response","95","152848","0.0-26.0-0.4","SS1627326478117","","null","","","null","","","","","","","","","","","<p><img src= images/blank.png width =""600"" height = ""600"" style=""position:fixed;top:50%; left:50%; transform: translate(-50%, -50%); border:5px solid black"">","","","","",""
"","stimuli-presentation","96","153489","0.0-26.0-1.4","SS1627326478117","","130.1400000229478","trial","","40","500","630.1400000229478","images/stimuli/complex_13_A_b.gif","images/stimuli/complex_16_A_b.gif","forced_short","510","","","","","","5","complex_dissimilar","images/stimuli/complex_16_A_b.gif","",""
"","html-keyboard-response","97","154652","0.0-26.0-0.5","SS1627326478117","","null","","","null","","","","","","","","","","","<p><img src= images/blank.png width =""600"" height = ""600"" style=""position:fixed;top:50%; left:50%; transform: translate(-50%, -50%); border:5px solid black"">","","","","",""
"","stimuli-presentation","98","155279","0.0-26.0-1.5","SS1627326478117","","118.5399999958463","trial","","40","500","618.5399999958463","images/stimuli/complex_13_A_b.gif","images/stimuli/complex_16_A_b.gif","forced_short","510","","","","","","5","complex_dissimilar","images/stimuli/complex_16_A_b.gif","",""
"","html-keyboard-response","99","156548","0.0-26.0-0.6","SS1627326478117","","null","","","null","","","","","","","","","","","<p><img src= images/blank.png width =""600"" height = ""600"" style=""position:fixed;top:50%; left:50%; transform: translate(-50%, -50%); border:5px solid black"">","","","","",""
"","stimuli-presentation","100","157749","0.0-26.0-1.6","SS1627326478117","","691.9549999875017","trial","","40","500","1191.9549999875017","images/stimuli/complex_13_A_b.gif","images/stimuli/complex_16_A_b.gif","forced_short","510","","","","","","5","complex_dissimilar","images/stimuli/complex_16_A_b.gif","",""
"","survey-multi-choice","101","160281","0.0-27.0","SS1627326478117","","2527.0999999484047","memory_test","","","","","","","","","{""Q0"":""Yes""}","[0]","images/stimuli/complex_16_A_b.gif","5","","","","","",""
"","survey-multi-choice","102","162271","0.0-28.0","SS1627326478117","","1977.4500000057742","memory_test","","","","","","","","","{""Q0"":""No""}","[0]","images/stimuli/complex_22_A_b.gif","5","","","","","",""
"","html-keyboard-response","103","163261","0.0-29.0-0.0","SS1627326478117","","null","","","null","","","","","","","","","","","<p><img src= images/blank.png width =""600"" height = ""600"" style=""position:fixed;top:50%; left:50%; transform: translate(-50%, -50%); border:5px solid black"">","","","","",""
"","stimuli-presentation","104","164469","0.0-29.0-1.0","SS1627326478117","","888.6150000034831","trial","","40","500","1388.6150000034831","images/stimuli/complex_09_A_b.gif","images/stimuli/complex_01_A_b.gif","forced_short","310","","","","","","6","complex_dissimilar","images/stimuli/complex_01_A_b.gif","",""
"","html-keyboard-response","105","165462","0.0-29.0-0.1","SS1627326478117","","null","","","null","","","","","","","","","","","<p><img src= images/blank.png width =""600"" height = ""600"" style=""position:fixed;top:50%; left:50%; transform: translate(-50%, -50%); border:5px solid black"">","","","","",""
"","stimuli-presentation","106","166029","0.0-29.0-1.1","SS1627326478117","","60.31499995151535","trial","","40","500","560.3149999515153","images/stimuli/complex_09_A_b.gif","images/stimuli/complex_01_A_b.gif","forced_short","310","","","","","","6","complex_dissimilar","images/stimuli/complex_01_A_b.gif","",""
"","html-keyboard-response","107","166923","0.0-29.0-0.2","SS1627326478117","","null","","","null","","","","","","","","","","","<p><img src= images/blank.png width =""600"" height = ""600"" style=""position:fixed;top:50%; left:50%; transform: translate(-50%, -50%); border:5px solid black"">","","","","",""
"","stimuli-presentation","108","167789","0.0-29.0-1.2","SS1627326478117","","357.6649999595247","trial","","40","500","857.6649999595247","images/stimuli/complex_09_A_b.gif","images/stimuli/complex_01_A_b.gif","forced_short","310","","","","","","6","complex_dissimilar","images/stimuli/complex_01_A_b.gif","",""
"","html-keyboard-response","109","168960","0.0-29.0-0.3","SS1627326478117","","null","","","null","","","","","","","","","","","<p><img src= images/blank.png width =""600"" height = ""600"" style=""position:fixed;top:50%; left:50%; transform: translate(-50%, -50%); border:5px solid black"">","","","","",""
"","stimuli-presentation","110","169998","0.0-29.0-1.3","SS1627326478117","","529.8750000074506","trial","","40","500","1029.8750000074506","images/stimuli/complex_09_A_b.gif","images/stimuli/complex_01_A_b.gif","forced_short","310","","","","","","6","complex_dissimilar","images/stimuli/complex_01_A_b.gif","",""
"","html-keyboard-response","111","170832","0.0-29.0-0.4","SS1627326478117","","null","","","null","","","","","","","","","","","<p><img src= images/blank.png width =""600"" height = ""600"" style=""position:fixed;top:50%; left:50%; transform: translate(-50%, -50%); border:5px solid black"">","","","","",""
"","stimuli-presentation","112","172259","0.0-29.0-1.4","SS1627326478117","","908.1199999782257","trial","","40","500","1408.1199999782257","images/stimuli/complex_09_A_b.gif","images/stimuli/complex_01_A_b.gif","forced_short","310","","","","","","6","complex_dissimilar","images/stimuli/complex_01_A_b.gif","",""
"","html-keyboard-response","113","173244","0.0-29.0-0.5","SS1627326478117","","null","","","null","","","","","","","","","","","<p><img src= images/blank.png width =""600"" height = ""600"" style=""position:fixed;top:50%; left:50%; transform: translate(-50%, -50%); border:5px solid black"">","","","","",""
"","stimuli-presentation","114","175469","0.0-29.0-1.5","SS1627326478117","","1715.7950000255369","trial","","40","500","2215.795000025537","images/stimuli/complex_09_A_b.gif","images/stimuli/complex_01_A_b.gif","forced_short","310","","","","","","6","complex_dissimilar","images/stimuli/complex_01_A_b.gif","",""
"","html-keyboard-response","115","176545","0.0-29.0-0.6","SS1627326478117","","null","","","null","","","","","","","","","","","<p><img src= images/blank.png width =""600"" height = ""600"" style=""position:fixed;top:50%; left:50%; transform: translate(-50%, -50%); border:5px solid black"">","","","","",""
"","stimuli-presentation","116","177109","0.0-29.0-1.6","SS1627326478117","","53.804999974090606","trial","","40","500","553.8049999740906","images/stimuli/complex_09_A_b.gif","images/stimuli/complex_01_A_b.gif","forced_short","310","","","","","","6","complex_dissimilar","images/stimuli/complex_01_A_b.gif","",""
"","html-keyboard-response","117","178299","0.0-29.0-0.7","SS1627326478117","","null","","","null","","","","","","","","","","","<p><img src= images/blank.png width =""600"" height = ""600"" style=""position:fixed;top:50%; left:50%; transform: translate(-50%, -50%); border:5px solid black"">","","","","",""
"","stimuli-presentation","118","178977","0.0-29.0-1.7","SS1627326478117","","163.40499999932945","trial","","40","500","663.4049999993294","images/stimuli/complex_09_A_b.gif","images/stimuli/complex_01_A_b.gif","forced_short","310","","","","","","6","complex_dissimilar","images/stimuli/complex_01_A_b.gif","",""
"","survey-multi-choice","119","182178","0.0-30.0","SS1627326478117","","3196.319999988191","memory_test","","","","","","","","","{""Q0"":""No""}","[0]","images/stimuli/complex_18_A_a.gif","6","","","","","",""
"","survey-multi-choice","120","183792","0.0-31.0","SS1627326478117","","1600.5200000363402","memory_test","","","","","","","","","{""Q0"":""Yes""}","[0]","images/stimuli/complex_01_A_b.gif","6","","","","","",""
"","html-keyboard-response","121","184629","0.0-32.0-0.0","SS1627326478117","","null","","","null","","","","","","","","","","","<p><img src= images/blank.png width =""600"" height = ""600"" style=""position:fixed;top:50%; left:50%; transform: translate(-50%, -50%); border:5px solid black"">","","","","",""
"","stimuli-presentation","122","190537","0.0-32.0-1.0","SS1627326478117","","5315.969999996014","trial","","40","500","5815.969999996014","images/stimuli/complex_03_A_a.gif","images/stimuli/complex_23_A_a.gif","forced_short","580","","","","","","7","complex_dissimilar","images/stimuli/complex_23_A_a.gif","",""
"","html-keyboard-response","123","191708","0.0-32.0-0.1","SS1627326478117","","null","","","null","","","","","","","","","","","<p><img src= images/blank.png width =""600"" height = ""600"" style=""position:fixed;top:50%; left:50%; transform: translate(-50%, -50%); border:5px solid black"">","","","","",""
"","stimuli-presentation","124","199297","0.0-32.0-1.1","SS1627326478117","","7080.539999995381","trial","","40","500","7580.539999995381","images/stimuli/complex_03_A_a.gif","images/stimuli/complex_23_A_a.gif","forced_short","580","","","","","","7","complex_dissimilar","images/stimuli/complex_23_A_a.gif","",""
"","html-keyboard-response","125","200384","0.0-32.0-0.2","SS1627326478117","","null","","","null","","","","","","","","","","","<p><img src= images/blank.png width =""600"" height = ""600"" style=""position:fixed;top:50%; left:50%; transform: translate(-50%, -50%); border:5px solid black"">","","","","",""
"","stimuli-presentation","126","201228","0.0-32.0-1.2","SS1627326478117","","333.2649999647401","trial","","40","500","833.2649999647401","images/stimuli/complex_03_A_a.gif","images/stimuli/complex_23_A_a.gif","forced_short","580","","","","","","7","complex_dissimilar","images/stimuli/complex_23_A_a.gif","",""
"","html-keyboard-response","127","202480","0.0-32.0-0.3","SS1627326478117","","null","","","null","","","","","","","","","","","<p><img src= images/blank.png width =""600"" height = ""600"" style=""position:fixed;top:50%; left:50%; transform: translate(-50%, -50%); border:5px solid black"">","","","","",""
"","stimuli-presentation","128","203928","0.0-32.0-1.3","SS1627326478117","","934.1049999929965","trial","","40","500","1434.1049999929965","images/stimuli/complex_03_A_a.gif","images/stimuli/complex_23_A_a.gif","forced_short","580","","","","","","7","complex_dissimilar","images/stimuli/complex_23_A_a.gif","",""
"","html-keyboard-response","129","205105","0.0-32.0-0.4","SS1627326478117","","null","","","null","","","","","","","","","","","<p><img src= images/blank.png width =""600"" height = ""600"" style=""position:fixed;top:50%; left:50%; transform: translate(-50%, -50%); border:5px solid black"">","","","","",""
"","stimuli-presentation","130","205958","0.0-32.0-1.4","SS1627326478117","","335.0699999718927","trial","","40","500","835.0699999718927","images/stimuli/complex_03_A_a.gif","images/stimuli/complex_23_A_a.gif","forced_short","580","","","","","","7","complex_dissimilar","images/stimuli/complex_23_A_a.gif","",""
"","html-keyboard-response","131","207024","0.0-32.0-0.5","SS1627326478117","","null","","","null","","","","","","","","","","","<p><img src= images/blank.png width =""600"" height = ""600"" style=""position:fixed;top:50%; left:50%; transform: translate(-50%, -50%); border:5px solid black"">","","","","",""
"","stimuli-presentation","132","207868","0.0-32.0-1.5","SS1627326478117","","334.03999998699874","trial","","40","500","834.0399999869987","images/stimuli/complex_03_A_a.gif","images/stimuli/complex_23_A_a.gif","forced_short","580","","","","","","7","complex_dissimilar","images/stimuli/complex_23_A_a.gif","",""
"","survey-multi-choice","133","210691","0.0-33.0","SS1627326478117","","2818.28000000678","memory_test","","","","","","","","","{""Q0"":""No""}","[0]","images/stimuli/complex_11_A_a.gif","7","","","","","",""
"","survey-multi-choice","134","212361","0.0-34.0","SS1627326478117","","1656.734999967739","memory_test","","","","","","","","","{""Q0"":""Yes""}","[0]","images/stimuli/complex_23_A_a.gif","7","","","","","",""
"","instructions","135","214924","0.0-35.0","SS1627326478117","[{""page_index"":0,""viewing_time"":2551.7849999596365}]","2552.395000006072","instructions","","","","","","","","","","","","","","","","","",""
"","survey-likert","136","220814","0.0-36.0","SS1627326478117","","5881.110000016633","similarity_question","","","","","","","","","{""Q0"":4}","[0]","","","","","","","images/stimuli/complex_21_A_a.gif","images/stimuli/complex_12_A_a.gif"
"","survey-likert","137","226161","0.0-37.0","SS1627326478117","","5332.9150000354275","similarity_question","","","","","","","","","{""Q0"":4}","[0]","","","","","","","images/stimuli/complex_24_A_a.gif","images/stimuli/complex_15_A_b.gif"
"","survey-likert","138","232234","0.0-38.0","SS1627326478117","","6058.929999999236","similarity_question","","","","","","","","","{""Q0"":4}","[0]","","","","","","","images/stimuli/complex_10_A_b.gif","images/stimuli/complex_02_A_a.gif"
"","survey-likert","139","236664","0.0-39.0","SS1627326478117","","4415.504999982659","similarity_question","","","","","","","","","{""Q0"":2}","[0]","","","","","","","images/stimuli/complex_03_A_a.gif","images/stimuli/complex_23_A_a.gif"
"","survey-likert","140","240381","0.0-40.0","SS1627326478117","","3701.3349999906495","similarity_question","","","","","","","","","{""Q0"":5}","[0]","","","","","","","images/stimuli/complex_06_A_b.gif","images/stimuli/complex_20_A_b.gif"
"","survey-likert","141","243306","0.0-41.0","SS1627326478117","","2911.034999997355","similarity_question","","","","","","","","","{""Q0"":4}","[0]","","","","","","","images/stimuli/complex_09_A_b.gif","images/stimuli/complex_01_A_b.gif"
"","survey-likert","142","246199","0.0-42.0","SS1627326478117","","2880.9149999869987","similarity_question","","","","","","","","","{""Q0"":4}","[0]","","","","","","","images/stimuli/complex_08_A_a.gif","images/stimuli/complex_04_A_a.gif"
"","survey-likert","143","249605","0.0-43.0","SS1627326478117","","3390.595000004396","similarity_question","","","","","","","","","{""Q0"":4}","[0]","","","","","","","images/stimuli/complex_16_A_b.gif","images/stimuli/complex_13_A_b.gif"
"","instructions","144","252838","0.0-44.0","SS1627326478117","[{""page_index"":0,""viewing_time"":3221.160000015516}]","3221.6800000169314","instructions","","","","","","","","","","","","","","","","","",""
"","survey-likert","145","257187","0.0-45.0","SS1627326478117","","4342.930000042543","","","","","","","","","","{""Q0"":2}","[0]","","","images/stimuli/complex_03_A_a.gif","","","","",""
"","survey-likert","146","259573","0.0-46.0","SS1627326478117","","2372.6999999489635","","","","","","","","","","{""Q0"":3}","[0]","","","images/stimuli/complex_01_A_b.gif","","","","",""
"","survey-likert","147","262267","0.0-47.0","SS1627326478117","","2681.0049999621697","","","","","","","","","","{""Q0"":4}","[0]","","","images/stimuli/complex_10_A_b.gif","","","","",""
"","survey-likert","148","265947","0.0-48.0","SS1627326478117","","3666.289999964647","","","","","","","","","","{""Q0"":6}","[0]","","","images/stimuli/complex_12_A_a.gif","","","","",""
"","survey-likert","149","268421","0.0-49.0","SS1627326478117","","2461.4500000025146","","","","","","","","","","{""Q0"":4}","[0]","","","images/stimuli/complex_06_A_b.gif","","","","",""
"","survey-likert","150","271812","0.0-50.0","SS1627326478117","","3377.740000025369","","","","","","","","","","{""Q0"":5}","[0]","","","images/stimuli/complex_16_A_b.gif","","","","",""
"","survey-likert","151","275054","0.0-51.0","SS1627326478117","","3228.579999995418","","","","","","","","","","{""Q0"":2}","[0]","","","images/stimuli/complex_04_A_a.gif","","","","",""
"","survey-likert","152","277194","0.0-52.0","SS1627326478117","","2126.9999999785796","","","","","","","","","","{""Q0"":4}","[0]","","","images/stimuli/complex_24_A_a.gif","","","","",""
"true","fullscreen","153","278222","0.0-53.0","SS1627326478117","","","","","","","","","","","","","","","","","","","","",""
"","instructions","154","279601","0.0-54.0","SS1627326478117","[{""page_index"":0,""viewing_time"":1373.3299999730662}]","1373.90999996569","instructions","","","","","","","","","","","","","","","","","",""
"","demog-age","155","282408","0.0-55.0","SS1627326478117","","2792.2900000121444","","","","","","","","","","{""age"":""18""}","","","","","","","","",""
"","demog-ethnic-US","156","285018","0.0-56.0","SS1627326478117","","2597.9350000270642","","","","","","","","","","{""ethnicity"":[""Asian""]}","[0]","","","","","","","",""
"","demog-gender-and-education","157","294591","0.0-57.0","SS1627326478117","","9558.714999991935","","","","","","","","","","{""gender"":""Female"",""education"":""High school diploma""}","[0,1]","","","","","","","",""
"","survey-text","158","305649","0.0-58.0","SS1627326478117","","11041.359999973793","feedback","","","","","","","","","{""Q0"":""No, it was all good!""}","","","","","","","","",""
"","instructions","159","307283","0.0-59.0","SS1627326478117","[{""page_index"":0,""viewing_time"":1626.5600000042468}]","1627.0200000144541","instructions","","","","","","","","","","","","","","","","","",""
