"success","trial_type","trial_index","time_elapsed","internal_node_id","subject","view_history","rt","stimulus_type","trial_stimulus","key_press","minimum_viewing_duration","trial_looking_time","block_deviant","block_background","exposure_type","forced_exposure_time","responses","question_order","memory_question_stimuli","memory_block_index","stimulus","block_number","block_type","stimulus_displayed","stimulus_left","stimulus_right"
"true","fullscreen","0","2672","0.0-0.0","SS1627327162774","","","","","","","","","","","","","","","","","","","","",""
"","instructions","1","6273","0.0-1.0","SS1627327162774","[{""page_index"":0,""viewing_time"":3597.099999997765}]","3597.699999999255","","","","","","","","","","","","","","","","","","",""
"","instructions","2","13454","0.0-2.0","SS1627327162774","[{""page_index"":0,""viewing_time"":3892.39999999851},{""page_index"":1,""viewing_time"":1286}]","5178.89999999851","instructions","","","","","","","","","","","","","","","","","",""
"","stimuli-presentation","3","18161","0.0-3.0","SS1627327162774","","4202.400000002235","","","40","500","4702.400000002235","null","null","self_paced","0","","","","","","","","","",""
"","instructions","4","28269","0.0-4.0","SS1627327162774","[{""page_index"":0,""viewing_time"":10106.300000000745}]","10106.60000000149","instructions","","","","","","","","","","","","","","","","","",""
"","stimuli-presentation","5","30297","0.0-5.0","SS1627327162774","","1522.800000000745","","","40","500","2022.800000000745","null","null","forced_short","500","","","","","","","","","",""
"","stimuli-presentation","6","32272","0.0-6.0","SS1627327162774","","1472.1000000014901","","","40","500","1972.1000000014901","null","null","forced_short","500","","","","","","","","","",""
"","instructions","7","36032","0.0-7.0","SS1627327162774","[{""page_index"":0,""viewing_time"":3757.60000000149}]","3758.10000000149","instructions","","","","","","","","","","","","","","","","","",""
"","survey-multi-choice","8","38348","0.0-8.0","SS1627327162774","","2310.7999999970198","memory_test_practice","","","","","","","","","{""Q0"":""Yes""}","[0]","images/practice/instructions_example_spore2.gif","0","","","","","",""
"","survey-multi-choice","9","40000","0.0-9.0","SS1627327162774","","1648.1000000014901","memory_test_practice","","","","","","","","","{""Q0"":""No""}","[0]","images/practice/instructions_example_spore0.gif","0","","","","","",""
"","instructions","10","46274","0.0-10.0","SS1627327162774","[{""page_index"":0,""viewing_time"":5485.300000000745},{""page_index"":1,""viewing_time"":785.8999999985099}]","6271.599999997765","instructions","","","","","","","","","","","","","","","","","",""
"","html-keyboard-response","11","47357","0.0-11.0-0.0","SS1627327162774","","null","","","null","","","","","","","","","","","<p><img src= images/blank.png width =""600"" height = ""600"" style=""position:fixed;top:50%; left:50%; transform: translate(-50%, -50%); border:5px solid black"">","","","","",""
"","stimuli-presentation","12","50438","0.0-11.0-1.0","SS1627327162774","","2118.400000002235","trial","","40","500","2618.400000002235","images/stimuli/complex_13_A_a.gif","images/stimuli/complex_10_A_b.gif","forced_short","950","","","","","","0","complex_dissimilar","images/stimuli/complex_10_A_b.gif","",""
"","html-keyboard-response","13","51445","0.0-11.0-0.1","SS1627327162774","","null","","","null","","","","","","","","","","","<p><img src= images/blank.png width =""600"" height = ""600"" style=""position:fixed;top:50%; left:50%; transform: translate(-50%, -50%); border:5px solid black"">","","","","",""
"","stimuli-presentation","14","58568","0.0-11.0-1.1","SS1627327162774","","6616.300000000745","trial","","40","500","7116.300000000745","images/stimuli/complex_13_A_a.gif","images/stimuli/complex_10_A_b.gif","forced_short","950","","","","","","0","complex_dissimilar","images/stimuli/complex_13_A_a.gif","",""
"","html-keyboard-response","15","59714","0.0-11.0-0.2","SS1627327162774","","null","","","null","","","","","","","","","","","<p><img src= images/blank.png width =""600"" height = ""600"" style=""position:fixed;top:50%; left:50%; transform: translate(-50%, -50%); border:5px solid black"">","","","","",""
"","stimuli-presentation","16","68271","0.0-11.0-1.2","SS1627327162774","","8050.89999999851","trial","","40","500","8550.89999999851","images/stimuli/complex_13_A_a.gif","images/stimuli/complex_10_A_b.gif","forced_short","950","","","","","","0","complex_dissimilar","images/stimuli/complex_10_A_b.gif","",""
"","html-keyboard-response","17","69275","0.0-11.0-0.3","SS1627327162774","","null","","","null","","","","","","","","","","","<p><img src= images/blank.png width =""600"" height = ""600"" style=""position:fixed;top:50%; left:50%; transform: translate(-50%, -50%); border:5px solid black"">","","","","",""
"","stimuli-presentation","18","72799","0.0-11.0-1.3","SS1627327162774","","3018.10000000149","trial","","40","500","3518.10000000149","images/stimuli/complex_13_A_a.gif","images/stimuli/complex_10_A_b.gif","forced_short","950","","","","","","0","complex_dissimilar","images/stimuli/complex_10_A_b.gif","",""
"","html-keyboard-response","19","73716","0.0-11.0-0.4","SS1627327162774","","null","","","null","","","","","","","","","","","<p><img src= images/blank.png width =""600"" height = ""600"" style=""position:fixed;top:50%; left:50%; transform: translate(-50%, -50%); border:5px solid black"">","","","","",""
"","stimuli-presentation","20","77370","0.0-11.0-1.4","SS1627327162774","","3144.10000000149","trial","","40","500","3644.10000000149","images/stimuli/complex_13_A_a.gif","images/stimuli/complex_10_A_b.gif","forced_short","950","","","","","","0","complex_dissimilar","images/stimuli/complex_10_A_b.gif","",""
"","html-keyboard-response","21","78305","0.0-11.0-0.5","SS1627327162774","","null","","","null","","","","","","","","","","","<p><img src= images/blank.png width =""600"" height = ""600"" style=""position:fixed;top:50%; left:50%; transform: translate(-50%, -50%); border:5px solid black"">","","","","",""
"","stimuli-presentation","22","81944","0.0-11.0-1.5","SS1627327162774","","3130.10000000149","trial","","40","500","3630.10000000149","images/stimuli/complex_13_A_a.gif","images/stimuli/complex_10_A_b.gif","forced_short","950","","","","","","0","complex_dissimilar","images/stimuli/complex_10_A_b.gif","",""
"","survey-multi-choice","23","84781","0.0-12.0","SS1627327162774","","2834.5","memory_test","","","","","","","","","{""Q0"":""No""}","[0]","images/stimuli/complex_02_A_b.gif","0","","","","","",""
"","survey-multi-choice","24","86363","0.0-13.0","SS1627327162774","","1578.800000000745","memory_test","","","","","","","","","{""Q0"":""Yes""}","[0]","images/stimuli/complex_10_A_b.gif","0","","","","","",""
"","html-keyboard-response","25","87231","0.0-14.0-0.0","SS1627327162774","","null","","","null","","","","","","","","","","","<p><img src= images/blank.png width =""600"" height = ""600"" style=""position:fixed;top:50%; left:50%; transform: translate(-50%, -50%); border:5px solid black"">","","","","",""
"","stimuli-presentation","26","89745","0.0-14.0-1.0","SS1627327162774","","1538.5","trial","","40","500","2038.5","images/stimuli/complex_12_A_b.gif","images/stimuli/complex_11_A_b.gif","forced_short","970","","","","","","1","complex_dissimilar","images/stimuli/complex_11_A_b.gif","",""
"","html-keyboard-response","27","90698","0.0-14.0-0.1","SS1627327162774","","null","","","null","","","","","","","","","","","<p><img src= images/blank.png width =""600"" height = ""600"" style=""position:fixed;top:50%; left:50%; transform: translate(-50%, -50%); border:5px solid black"">","","","","",""
"","stimuli-presentation","28","94719","0.0-14.0-1.1","SS1627327162774","","3516.7999999970198","trial","","40","500","4016.7999999970198","images/stimuli/complex_12_A_b.gif","images/stimuli/complex_11_A_b.gif","forced_short","970","","","","","","1","complex_dissimilar","images/stimuli/complex_11_A_b.gif","",""
"","html-keyboard-response","29","95817","0.0-14.0-0.2","SS1627327162774","","null","","","null","","","","","","","","","","","<p><img src= images/blank.png width =""600"" height = ""600"" style=""position:fixed;top:50%; left:50%; transform: translate(-50%, -50%); border:5px solid black"">","","","","",""
"","stimuli-presentation","30","98715","0.0-14.0-1.2","SS1627327162774","","2394.2000000029802","trial","","40","500","2894.2000000029802","images/stimuli/complex_12_A_b.gif","images/stimuli/complex_11_A_b.gif","forced_short","970","","","","","","1","complex_dissimilar","images/stimuli/complex_11_A_b.gif","",""
"","html-keyboard-response","31","99905","0.0-14.0-0.3","SS1627327162774","","null","","","null","","","","","","","","","","","<p><img src= images/blank.png width =""600"" height = ""600"" style=""position:fixed;top:50%; left:50%; transform: translate(-50%, -50%); border:5px solid black"">","","","","",""
"","stimuli-presentation","32","103773","0.0-14.0-1.3","SS1627327162774","","3359.39999999851","trial","","40","500","3859.39999999851","images/stimuli/complex_12_A_b.gif","images/stimuli/complex_11_A_b.gif","forced_short","970","","","","","","1","complex_dissimilar","images/stimuli/complex_11_A_b.gif","",""
"","html-keyboard-response","33","105018","0.0-14.0-0.4","SS1627327162774","","null","","","null","","","","","","","","","","","<p><img src= images/blank.png width =""600"" height = ""600"" style=""position:fixed;top:50%; left:50%; transform: translate(-50%, -50%); border:5px solid black"">","","","","",""
"","stimuli-presentation","34","106390","0.0-14.0-1.4","SS1627327162774","","866.8000000007451","trial","","40","500","1366.800000000745","images/stimuli/complex_12_A_b.gif","images/stimuli/complex_11_A_b.gif","forced_short","970","","","","","","1","complex_dissimilar","images/stimuli/complex_11_A_b.gif","",""
"","html-keyboard-response","35","107456","0.0-14.0-0.5","SS1627327162774","","null","","","null","","","","","","","","","","","<p><img src= images/blank.png width =""600"" height = ""600"" style=""position:fixed;top:50%; left:50%; transform: translate(-50%, -50%); border:5px solid black"">","","","","",""
"","stimuli-presentation","36","109953","0.0-14.0-1.5","SS1627327162774","","1991.5999999977648","trial","","40","500","2491.599999997765","images/stimuli/complex_12_A_b.gif","images/stimuli/complex_11_A_b.gif","forced_short","970","","","","","","1","complex_dissimilar","images/stimuli/complex_11_A_b.gif","",""
"","html-keyboard-response","37","110928","0.0-14.0-0.6","SS1627327162774","","null","","","null","","","","","","","","","","","<p><img src= images/blank.png width =""600"" height = ""600"" style=""position:fixed;top:50%; left:50%; transform: translate(-50%, -50%); border:5px solid black"">","","","","",""
"","stimuli-presentation","38","115285","0.0-14.0-1.6","SS1627327162774","","3853.39999999851","trial","","40","500","4353.39999999851","images/stimuli/complex_12_A_b.gif","images/stimuli/complex_11_A_b.gif","forced_short","970","","","","","","1","complex_dissimilar","images/stimuli/complex_12_A_b.gif","",""
"","survey-multi-choice","39","118710","0.0-15.0","SS1627327162774","","3421","memory_test","","","","","","","","","{""Q0"":""Yes""}","[0]","images/stimuli/complex_11_A_b.gif","1","","","","","",""
"","survey-multi-choice","40","120885","0.0-16.0","SS1627327162774","","2170.10000000149","memory_test","","","","","","","","","{""Q0"":""No""}","[0]","images/stimuli/complex_08_A_a.gif","1","","","","","",""
"","html-keyboard-response","41","121933","0.0-17.0-0.0","SS1627327162774","","null","","","null","","","","","","","","","","","<p><img src= images/blank.png width =""600"" height = ""600"" style=""position:fixed;top:50%; left:50%; transform: translate(-50%, -50%); border:5px solid black"">","","","","",""
"","stimuli-presentation","42","123578","0.0-17.0-1.0","SS1627327162774","","1469.6000000014901","trial","","40","500","1969.6000000014901","images/stimuli/complex_09_A_a.gif","images/stimuli/complex_07_A_a.gif","forced_short","170","","","","","","2","complex_dissimilar","images/stimuli/complex_07_A_a.gif","",""
"","html-keyboard-response","43","124688","0.0-17.0-0.1","SS1627327162774","","null","","","null","","","","","","","","","","","<p><img src= images/blank.png width =""600"" height = ""600"" style=""position:fixed;top:50%; left:50%; transform: translate(-50%, -50%); border:5px solid black"">","","","","",""
"","stimuli-presentation","44","126509","0.0-17.0-1.1","SS1627327162774","","1315.2000000029802","trial","","40","500","1815.2000000029802","images/stimuli/complex_09_A_a.gif","images/stimuli/complex_07_A_a.gif","forced_short","170","","","","","","2","complex_dissimilar","images/stimuli/complex_07_A_a.gif","",""
"","html-keyboard-response","45","127650","0.0-17.0-0.2","SS1627327162774","","null","","","null","","","","","","","","","","","<p><img src= images/blank.png width =""600"" height = ""600"" style=""position:fixed;top:50%; left:50%; transform: translate(-50%, -50%); border:5px solid black"">","","","","",""
"","stimuli-presentation","46","129449","0.0-17.0-1.2","SS1627327162774","","1293.5999999977648","trial","","40","500","1793.5999999977648","images/stimuli/complex_09_A_a.gif","images/stimuli/complex_07_A_a.gif","forced_short","170","","","","","","2","complex_dissimilar","images/stimuli/complex_07_A_a.gif","",""
"","html-keyboard-response","47","130468","0.0-17.0-0.3","SS1627327162774","","null","","","null","","","","","","","","","","","<p><img src= images/blank.png width =""600"" height = ""600"" style=""position:fixed;top:50%; left:50%; transform: translate(-50%, -50%); border:5px solid black"">","","","","",""
"","stimuli-presentation","48","132267","0.0-17.0-1.3","SS1627327162774","","1294.300000000745","trial","","40","500","1794.300000000745","images/stimuli/complex_09_A_a.gif","images/stimuli/complex_07_A_a.gif","forced_short","170","","","","","","2","complex_dissimilar","images/stimuli/complex_07_A_a.gif","",""
"","html-keyboard-response","49","133359","0.0-17.0-0.4","SS1627327162774","","null","","","null","","","","","","","","","","","<p><img src= images/blank.png width =""600"" height = ""600"" style=""position:fixed;top:50%; left:50%; transform: translate(-50%, -50%); border:5px solid black"">","","","","",""
"","stimuli-presentation","50","135390","0.0-17.0-1.4","SS1627327162774","","1527.9000000022352","trial","","40","500","2027.9000000022352","images/stimuli/complex_09_A_a.gif","images/stimuli/complex_07_A_a.gif","forced_short","170","","","","","","2","complex_dissimilar","images/stimuli/complex_07_A_a.gif","",""
"","html-keyboard-response","51","136501","0.0-17.0-0.5","SS1627327162774","","null","","","null","","","","","","","","","","","<p><img src= images/blank.png width =""600"" height = ""600"" style=""position:fixed;top:50%; left:50%; transform: translate(-50%, -50%); border:5px solid black"">","","","","",""
"","stimuli-presentation","52","138354","0.0-17.0-1.5","SS1627327162774","","1346.4000000022352","trial","","40","500","1846.4000000022352","images/stimuli/complex_09_A_a.gif","images/stimuli/complex_07_A_a.gif","forced_short","170","","","","","","2","complex_dissimilar","images/stimuli/complex_09_A_a.gif","",""
"","html-keyboard-response","53","139280","0.0-17.0-0.6","SS1627327162774","","null","","","null","","","","","","","","","","","<p><img src= images/blank.png width =""600"" height = ""600"" style=""position:fixed;top:50%; left:50%; transform: translate(-50%, -50%); border:5px solid black"">","","","","",""
"","stimuli-presentation","54","142514","0.0-17.0-1.6","SS1627327162774","","2729.10000000149","trial","","40","500","3229.10000000149","images/stimuli/complex_09_A_a.gif","images/stimuli/complex_07_A_a.gif","forced_short","170","","","","","","2","complex_dissimilar","images/stimuli/complex_09_A_a.gif","",""
"","survey-multi-choice","55","145405","0.0-18.0","SS1627327162774","","2886.5","memory_test","","","","","","","","","{""Q0"":""Yes""}","[0]","images/stimuli/complex_07_A_a.gif","2","","","","","",""
"","survey-multi-choice","56","146987","0.0-19.0","SS1627327162774","","1576.5999999977648","memory_test","","","","","","","","","{""Q0"":""No""}","[0]","images/stimuli/complex_16_A_a.gif","2","","","","","",""
"","html-keyboard-response","57","148040","0.0-20.0-0.0","SS1627327162774","","null","","","null","","","","","","","","","","","<p><img src= images/blank.png width =""600"" height = ""600"" style=""position:fixed;top:50%; left:50%; transform: translate(-50%, -50%); border:5px solid black"">","","","","",""
"","stimuli-presentation","58","153329","0.0-20.0-1.0","SS1627327162774","","4894.300000000745","trial","","40","500","5394.300000000745","images/stimuli/complex_24_A_b.gif","images/stimuli/complex_14_A_a.gif","forced_short","390","","","","","","3","complex_dissimilar","images/stimuli/complex_14_A_a.gif","",""
"","html-keyboard-response","59","154234","0.0-20.0-0.1","SS1627327162774","","null","","","null","","","","","","","","","","","<p><img src= images/blank.png width =""600"" height = ""600"" style=""position:fixed;top:50%; left:50%; transform: translate(-50%, -50%); border:5px solid black"">","","","","",""
"","stimuli-presentation","60","157112","0.0-20.0-1.1","SS1627327162774","","2369.099999997765","trial","","40","500","2869.099999997765","images/stimuli/complex_24_A_b.gif","images/stimuli/complex_14_A_a.gif","forced_short","390","","","","","","3","complex_dissimilar","images/stimuli/complex_14_A_a.gif","",""
"","html-keyboard-response","61","157978","0.0-20.0-0.2","SS1627327162774","","null","","","null","","","","","","","","","","","<p><img src= images/blank.png width =""600"" height = ""600"" style=""position:fixed;top:50%; left:50%; transform: translate(-50%, -50%); border:5px solid black"">","","","","",""
"","stimuli-presentation","62","158997","0.0-20.0-1.2","SS1627327162774","","513.5","trial","","40","500","1013.5","images/stimuli/complex_24_A_b.gif","images/stimuli/complex_14_A_a.gif","forced_short","390","","","","","","3","complex_dissimilar","images/stimuli/complex_14_A_a.gif","",""
"","html-keyboard-response","63","160190","0.0-20.0-0.3","SS1627327162774","","null","","","null","","","","","","","","","","","<p><img src= images/blank.png width =""600"" height = ""600"" style=""position:fixed;top:50%; left:50%; transform: translate(-50%, -50%); border:5px solid black"">","","","","",""
"","stimuli-presentation","64","161601","0.0-20.0-1.3","SS1627327162774","","901.5","trial","","40","500","1401.5","images/stimuli/complex_24_A_b.gif","images/stimuli/complex_14_A_a.gif","forced_short","390","","","","","","3","complex_dissimilar","images/stimuli/complex_14_A_a.gif","",""
"","html-keyboard-response","65","162802","0.0-20.0-0.4","SS1627327162774","","null","","","null","","","","","","","","","","","<p><img src= images/blank.png width =""600"" height = ""600"" style=""position:fixed;top:50%; left:50%; transform: translate(-50%, -50%); border:5px solid black"">","","","","",""
"","stimuli-presentation","66","163669","0.0-20.0-1.4","SS1627327162774","","361.8999999985099","trial","","40","500","861.8999999985099","images/stimuli/complex_24_A_b.gif","images/stimuli/complex_14_A_a.gif","forced_short","390","","","","","","3","complex_dissimilar","images/stimuli/complex_14_A_a.gif","",""
"","html-keyboard-response","67","164575","0.0-20.0-0.5","SS1627327162774","","null","","","null","","","","","","","","","","","<p><img src= images/blank.png width =""600"" height = ""600"" style=""position:fixed;top:50%; left:50%; transform: translate(-50%, -50%); border:5px solid black"">","","","","",""
"","stimuli-presentation","68","166858","0.0-20.0-1.5","SS1627327162774","","1774.199999999255","trial","","40","500","2274.199999999255","images/stimuli/complex_24_A_b.gif","images/stimuli/complex_14_A_a.gif","forced_short","390","","","","","","3","complex_dissimilar","images/stimuli/complex_14_A_a.gif","",""
"","html-keyboard-response","69","168143","0.0-20.0-0.6","SS1627327162774","","null","","","null","","","","","","","","","","","<p><img src= images/blank.png width =""600"" height = ""600"" style=""position:fixed;top:50%; left:50%; transform: translate(-50%, -50%); border:5px solid black"">","","","","",""
"","stimuli-presentation","70","170335","0.0-20.0-1.6","SS1627327162774","","1683.3999999985099","trial","","40","500","2183.39999999851","images/stimuli/complex_24_A_b.gif","images/stimuli/complex_14_A_a.gif","forced_short","390","","","","","","3","complex_dissimilar","images/stimuli/complex_14_A_a.gif","",""
"","html-keyboard-response","71","171156","0.0-20.0-0.7","SS1627327162774","","null","","","null","","","","","","","","","","","<p><img src= images/blank.png width =""600"" height = ""600"" style=""position:fixed;top:50%; left:50%; transform: translate(-50%, -50%); border:5px solid black"">","","","","",""
"","stimuli-presentation","72","173584","0.0-20.0-1.7","SS1627327162774","","1923.300000000745","trial","","40","500","2423.300000000745","images/stimuli/complex_24_A_b.gif","images/stimuli/complex_14_A_a.gif","forced_short","390","","","","","","3","complex_dissimilar","images/stimuli/complex_24_A_b.gif","",""
"","survey-multi-choice","73","175796","0.0-21.0","SS1627327162774","","2207.2000000029802","memory_test","","","","","","","","","{""Q0"":""Yes""}","[0]","images/stimuli/complex_14_A_a.gif","3","","","","","",""
"","survey-multi-choice","74","177502","0.0-22.0","SS1627327162774","","1699.300000000745","memory_test","","","","","","","","","{""Q0"":""No""}","[0]","images/stimuli/complex_22_A_a.gif","3","","","","","",""
"","html-keyboard-response","75","178784","0.0-23.0-0.0","SS1627327162774","","null","","","null","","","","","","","","","","","<p><img src= images/blank.png width =""600"" height = ""600"" style=""position:fixed;top:50%; left:50%; transform: translate(-50%, -50%); border:5px solid black"">","","","","",""
"","stimuli-presentation","76","180097","0.0-23.0-1.0","SS1627327162774","","1157.0999999977648","trial","","40","500","1657.0999999977648","images/stimuli/complex_20_A_b.gif","images/stimuli/complex_04_A_b.gif","forced_short","150","","","","","","4","complex_dissimilar","images/stimuli/complex_04_A_b.gif","",""
"","html-keyboard-response","77","181089","0.0-23.0-0.1","SS1627327162774","","null","","","null","","","","","","","","","","","<p><img src= images/blank.png width =""600"" height = ""600"" style=""position:fixed;top:50%; left:50%; transform: translate(-50%, -50%); border:5px solid black"">","","","","",""
"","stimuli-presentation","78","183430","0.0-23.0-1.1","SS1627327162774","","1836.2999999970198","trial","","40","500","2336.2999999970198","images/stimuli/complex_20_A_b.gif","images/stimuli/complex_04_A_b.gif","forced_short","150","","","","","","4","complex_dissimilar","images/stimuli/complex_20_A_b.gif","",""
"","html-keyboard-response","79","184710","0.0-23.0-0.2","SS1627327162774","","null","","","null","","","","","","","","","","","<p><img src= images/blank.png width =""600"" height = ""600"" style=""position:fixed;top:50%; left:50%; transform: translate(-50%, -50%); border:5px solid black"">","","","","",""
"","stimuli-presentation","80","186207","0.0-23.0-1.2","SS1627327162774","","992.1000000014901","trial","","40","500","1492.1000000014901","images/stimuli/complex_20_A_b.gif","images/stimuli/complex_04_A_b.gif","forced_short","150","","","","","","4","complex_dissimilar","images/stimuli/complex_04_A_b.gif","",""
"","html-keyboard-response","81","187182","0.0-23.0-0.3","SS1627327162774","","null","","","null","","","","","","","","","","","<p><img src= images/blank.png width =""600"" height = ""600"" style=""position:fixed;top:50%; left:50%; transform: translate(-50%, -50%); border:5px solid black"">","","","","",""
"","stimuli-presentation","82","189016","0.0-23.0-1.3","SS1627327162774","","1327","trial","","40","500","1827","images/stimuli/complex_20_A_b.gif","images/stimuli/complex_04_A_b.gif","forced_short","150","","","","","","4","complex_dissimilar","images/stimuli/complex_04_A_b.gif","",""
"","html-keyboard-response","83","189889","0.0-23.0-0.4","SS1627327162774","","null","","","null","","","","","","","","","","","<p><img src= images/blank.png width =""600"" height = ""600"" style=""position:fixed;top:50%; left:50%; transform: translate(-50%, -50%); border:5px solid black"">","","","","",""
"","stimuli-presentation","84","191228","0.0-23.0-1.4","SS1627327162774","","834.7999999970198","trial","","40","500","1334.7999999970198","images/stimuli/complex_20_A_b.gif","images/stimuli/complex_04_A_b.gif","forced_short","150","","","","","","4","complex_dissimilar","images/stimuli/complex_04_A_b.gif","",""
"","html-keyboard-response","85","192531","0.0-23.0-0.5","SS1627327162774","","null","","","null","","","","","","","","","","","<p><img src= images/blank.png width =""600"" height = ""600"" style=""position:fixed;top:50%; left:50%; transform: translate(-50%, -50%); border:5px solid black"">","","","","",""
"","stimuli-presentation","86","193988","0.0-23.0-1.5","SS1627327162774","","950.8999999985099","trial","","40","500","1450.8999999985099","images/stimuli/complex_20_A_b.gif","images/stimuli/complex_04_A_b.gif","forced_short","150","","","","","","4","complex_dissimilar","images/stimuli/complex_20_A_b.gif","",""
"","html-keyboard-response","87","194830","0.0-23.0-0.6","SS1627327162774","","null","","","null","","","","","","","","","","","<p><img src= images/blank.png width =""600"" height = ""600"" style=""position:fixed;top:50%; left:50%; transform: translate(-50%, -50%); border:5px solid black"">","","","","",""
"","stimuli-presentation","88","196764","0.0-23.0-1.6","SS1627327162774","","1423.800000000745","trial","","40","500","1923.800000000745","images/stimuli/complex_20_A_b.gif","images/stimuli/complex_04_A_b.gif","forced_short","150","","","","","","4","complex_dissimilar","images/stimuli/complex_04_A_b.gif","",""
"","html-keyboard-response","89","197758","0.0-23.0-0.7","SS1627327162774","","null","","","null","","","","","","","","","","","<p><img src= images/blank.png width =""600"" height = ""600"" style=""position:fixed;top:50%; left:50%; transform: translate(-50%, -50%); border:5px solid black"">","","","","",""
"","stimuli-presentation","90","198753","0.0-23.0-1.7","SS1627327162774","","486.80000000074506","trial","","40","500","986.8000000007451","images/stimuli/complex_20_A_b.gif","images/stimuli/complex_04_A_b.gif","forced_short","150","","","","","","4","complex_dissimilar","images/stimuli/complex_04_A_b.gif","",""
"","survey-multi-choice","91","200724","0.0-24.0","SS1627327162774","","1966.5","memory_test","","","","","","","","","{""Q0"":""Yes""}","[0]","images/stimuli/complex_04_A_b.gif","4","","","","","",""
"","survey-multi-choice","92","202289","0.0-25.0","SS1627327162774","","1558.9000000022352","memory_test","","","","","","","","","{""Q0"":""No""}","[0]","images/stimuli/complex_05_A_b.gif","4","","","","","",""
"","html-keyboard-response","93","203381","0.0-26.0-0.0","SS1627327162774","","null","","","null","","","","","","","","","","","<p><img src= images/blank.png width =""600"" height = ""600"" style=""position:fixed;top:50%; left:50%; transform: translate(-50%, -50%); border:5px solid black"">","","","","",""
"","stimuli-presentation","94","205700","0.0-26.0-1.0","SS1627327162774","","1369.300000000745","trial","","40","500","1869.300000000745","images/stimuli/complex_06_A_a.gif","images/stimuli/complex_23_A_b.gif","forced_short","940","","","","","","5","complex_dissimilar","images/stimuli/complex_23_A_b.gif","",""
"","html-keyboard-response","95","206846","0.0-26.0-0.1","SS1627327162774","","null","","","null","","","","","","","","","","","<p><img src= images/blank.png width =""600"" height = ""600"" style=""position:fixed;top:50%; left:50%; transform: translate(-50%, -50%); border:5px solid black"">","","","","",""
"","stimuli-presentation","96","207641","0.0-26.0-1.1","SS1627327162774","","289.3999999985099","trial","","40","500","789.3999999985099","images/stimuli/complex_06_A_a.gif","images/stimuli/complex_23_A_b.gif","forced_short","940","","","","","","5","complex_dissimilar","images/stimuli/complex_23_A_b.gif","",""
"","html-keyboard-response","97","208571","0.0-26.0-0.2","SS1627327162774","","null","","","null","","","","","","","","","","","<p><img src= images/blank.png width =""600"" height = ""600"" style=""position:fixed;top:50%; left:50%; transform: translate(-50%, -50%); border:5px solid black"">","","","","",""
"","stimuli-presentation","98","209921","0.0-26.0-1.2","SS1627327162774","","843.3000000007451","trial","","40","500","1343.300000000745","images/stimuli/complex_06_A_a.gif","images/stimuli/complex_23_A_b.gif","forced_short","940","","","","","","5","complex_dissimilar","images/stimuli/complex_23_A_b.gif","",""
"","html-keyboard-response","99","210922","0.0-26.0-0.3","SS1627327162774","","null","","","null","","","","","","","","","","","<p><img src= images/blank.png width =""600"" height = ""600"" style=""position:fixed;top:50%; left:50%; transform: translate(-50%, -50%); border:5px solid black"">","","","","",""
"","stimuli-presentation","100","212163","0.0-26.0-1.3","SS1627327162774","","730.6000000014901","trial","","40","500","1230.6000000014901","images/stimuli/complex_06_A_a.gif","images/stimuli/complex_23_A_b.gif","forced_short","940","","","","","","5","complex_dissimilar","images/stimuli/complex_23_A_b.gif","",""
"","html-keyboard-response","101","213371","0.0-26.0-0.4","SS1627327162774","","null","","","null","","","","","","","","","","","<p><img src= images/blank.png width =""600"" height = ""600"" style=""position:fixed;top:50%; left:50%; transform: translate(-50%, -50%); border:5px solid black"">","","","","",""
"","stimuli-presentation","102","214684","0.0-26.0-1.4","SS1627327162774","","807.2999999970198","trial","","40","500","1307.2999999970198","images/stimuli/complex_06_A_a.gif","images/stimuli/complex_23_A_b.gif","forced_short","940","","","","","","5","complex_dissimilar","images/stimuli/complex_23_A_b.gif","",""
"","html-keyboard-response","103","215676","0.0-26.0-0.5","SS1627327162774","","null","","","null","","","","","","","","","","","<p><img src= images/blank.png width =""600"" height = ""600"" style=""position:fixed;top:50%; left:50%; transform: translate(-50%, -50%); border:5px solid black"">","","","","",""
"","stimuli-presentation","104","217293","0.0-26.0-1.5","SS1627327162774","","1111","trial","","40","500","1611","images/stimuli/complex_06_A_a.gif","images/stimuli/complex_23_A_b.gif","forced_short","940","","","","","","5","complex_dissimilar","images/stimuli/complex_23_A_b.gif","",""
"","survey-multi-choice","105","219796","0.0-27.0","SS1627327162774","","2496.699999999255","memory_test","","","","","","","","","{""Q0"":""Yes""}","[0]","images/stimuli/complex_23_A_b.gif","5","","","","","",""
"","survey-multi-choice","106","222419","0.0-28.0","SS1627327162774","","2617.599999997765","memory_test","","","","","","","","","{""Q0"":""No""}","[0]","images/stimuli/complex_18_A_b.gif","5","","","","","",""
"","html-keyboard-response","107","223565","0.0-29.0-0.0","SS1627327162774","","null","","","null","","","","","","","","","","","<p><img src= images/blank.png width =""600"" height = ""600"" style=""position:fixed;top:50%; left:50%; transform: translate(-50%, -50%); border:5px solid black"">","","","","",""
"","stimuli-presentation","108","224554","0.0-29.0-1.0","SS1627327162774","","861.6000000014901","trial","","40","500","1361.6000000014901","images/stimuli/complex_17_A_b.gif","images/stimuli/complex_03_A_b.gif","forced_short","120","","","","","","6","complex_dissimilar","images/stimuli/complex_03_A_b.gif","",""
"","html-keyboard-response","109","225574","0.0-29.0-0.1","SS1627327162774","","null","","","null","","","","","","","","","","","<p><img src= images/blank.png width =""600"" height = ""600"" style=""position:fixed;top:50%; left:50%; transform: translate(-50%, -50%); border:5px solid black"">","","","","",""
"","stimuli-presentation","110","226820","0.0-29.0-1.1","SS1627327162774","","741.1000000014901","trial","","40","500","1241.1000000014901","images/stimuli/complex_17_A_b.gif","images/stimuli/complex_03_A_b.gif","forced_short","120","","","","","","6","complex_dissimilar","images/stimuli/complex_03_A_b.gif","",""
"","html-keyboard-response","111","227753","0.0-29.0-0.2","SS1627327162774","","null","","","null","","","","","","","","","","","<p><img src= images/blank.png width =""600"" height = ""600"" style=""position:fixed;top:50%; left:50%; transform: translate(-50%, -50%); border:5px solid black"">","","","","",""
"","stimuli-presentation","112","228938","0.0-29.0-1.2","SS1627327162774","","675.1000000014901","trial","","40","500","1175.1000000014901","images/stimuli/complex_17_A_b.gif","images/stimuli/complex_03_A_b.gif","forced_short","120","","","","","","6","complex_dissimilar","images/stimuli/complex_03_A_b.gif","",""
"","html-keyboard-response","113","230079","0.0-29.0-0.3","SS1627327162774","","null","","","null","","","","","","","","","","","<p><img src= images/blank.png width =""600"" height = ""600"" style=""position:fixed;top:50%; left:50%; transform: translate(-50%, -50%); border:5px solid black"">","","","","",""
"","stimuli-presentation","114","231161","0.0-29.0-1.3","SS1627327162774","","576.7000000029802","trial","","40","500","1076.7000000029802","images/stimuli/complex_17_A_b.gif","images/stimuli/complex_03_A_b.gif","forced_short","120","","","","","","6","complex_dissimilar","images/stimuli/complex_17_A_b.gif","",""
"","html-keyboard-response","115","232166","0.0-29.0-0.4","SS1627327162774","","null","","","null","","","","","","","","","","","<p><img src= images/blank.png width =""600"" height = ""600"" style=""position:fixed;top:50%; left:50%; transform: translate(-50%, -50%); border:5px solid black"">","","","","",""
"","stimuli-presentation","116","233157","0.0-29.0-1.4","SS1627327162774","","483.19999999925494","trial","","40","500","983.1999999992549","images/stimuli/complex_17_A_b.gif","images/stimuli/complex_03_A_b.gif","forced_short","120","","","","","","6","complex_dissimilar","images/stimuli/complex_03_A_b.gif","",""
"","html-keyboard-response","117","234374","0.0-29.0-0.5","SS1627327162774","","null","","","null","","","","","","","","","","","<p><img src= images/blank.png width =""600"" height = ""600"" style=""position:fixed;top:50%; left:50%; transform: translate(-50%, -50%); border:5px solid black"">","","","","",""
"","stimuli-presentation","118","235167","0.0-29.0-1.5","SS1627327162774","","281.4000000022352","trial","","40","500","781.4000000022352","images/stimuli/complex_17_A_b.gif","images/stimuli/complex_03_A_b.gif","forced_short","120","","","","","","6","complex_dissimilar","images/stimuli/complex_03_A_b.gif","",""
"","html-keyboard-response","119","236220","0.0-29.0-0.6","SS1627327162774","","null","","","null","","","","","","","","","","","<p><img src= images/blank.png width =""600"" height = ""600"" style=""position:fixed;top:50%; left:50%; transform: translate(-50%, -50%); border:5px solid black"">","","","","",""
"","stimuli-presentation","120","237223","0.0-29.0-1.6","SS1627327162774","","497.0999999977648","trial","","40","500","997.0999999977648","images/stimuli/complex_17_A_b.gif","images/stimuli/complex_03_A_b.gif","forced_short","120","","","","","","6","complex_dissimilar","images/stimuli/complex_17_A_b.gif","",""
"","survey-multi-choice","121","240066","0.0-30.0","SS1627327162774","","2837.900000002235","memory_test","","","","","","","","","{""Q0"":""No""}","[0]","images/stimuli/complex_21_A_a.gif","6","","","","","",""
"","survey-multi-choice","122","241816","0.0-31.0","SS1627327162774","","1743","memory_test","","","","","","","","","{""Q0"":""Yes""}","[0]","images/stimuli/complex_17_A_b.gif","6","","","","","",""
"","html-keyboard-response","123","242972","0.0-32.0-0.0","SS1627327162774","","null","","","null","","","","","","","","","","","<p><img src= images/blank.png width =""600"" height = ""600"" style=""position:fixed;top:50%; left:50%; transform: translate(-50%, -50%); border:5px solid black"">","","","","",""
"","stimuli-presentation","124","244531","0.0-32.0-1.0","SS1627327162774","","992.6000000014901","trial","","40","500","1492.6000000014901","images/stimuli/complex_15_A_a.gif","images/stimuli/complex_01_A_b.gif","forced_short","560","","","","","","7","complex_dissimilar","images/stimuli/complex_01_A_b.gif","",""
"","html-keyboard-response","125","245625","0.0-32.0-0.1","SS1627327162774","","null","","","null","","","","","","","","","","","<p><img src= images/blank.png width =""600"" height = ""600"" style=""position:fixed;top:50%; left:50%; transform: translate(-50%, -50%); border:5px solid black"">","","","","",""
"","stimuli-presentation","126","246774","0.0-32.0-1.1","SS1627327162774","","641.3000000007451","trial","","40","500","1141.300000000745","images/stimuli/complex_15_A_a.gif","images/stimuli/complex_01_A_b.gif","forced_short","560","","","","","","7","complex_dissimilar","images/stimuli/complex_01_A_b.gif","",""
"","html-keyboard-response","127","247848","0.0-32.0-0.2","SS1627327162774","","null","","","null","","","","","","","","","","","<p><img src= images/blank.png width =""600"" height = ""600"" style=""position:fixed;top:50%; left:50%; transform: translate(-50%, -50%); border:5px solid black"">","","","","",""
"","stimuli-presentation","128","248698","0.0-32.0-1.2","SS1627327162774","","341.20000000298023","trial","","40","500","841.2000000029802","images/stimuli/complex_15_A_a.gif","images/stimuli/complex_01_A_b.gif","forced_short","560","","","","","","7","complex_dissimilar","images/stimuli/complex_01_A_b.gif","",""
"","html-keyboard-response","129","249654","0.0-32.0-0.3","SS1627327162774","","null","","","null","","","","","","","","","","","<p><img src= images/blank.png width =""600"" height = ""600"" style=""position:fixed;top:50%; left:50%; transform: translate(-50%, -50%); border:5px solid black"">","","","","",""
"","stimuli-presentation","130","251377","0.0-32.0-1.3","SS1627327162774","","1216.6000000014901","trial","","40","500","1716.6000000014901","images/stimuli/complex_15_A_a.gif","images/stimuli/complex_01_A_b.gif","forced_short","560","","","","","","7","complex_dissimilar","images/stimuli/complex_01_A_b.gif","",""
"","html-keyboard-response","131","252469","0.0-32.0-0.4","SS1627327162774","","null","","","null","","","","","","","","","","","<p><img src= images/blank.png width =""600"" height = ""600"" style=""position:fixed;top:50%; left:50%; transform: translate(-50%, -50%); border:5px solid black"">","","","","",""
"","stimuli-presentation","132","254282","0.0-32.0-1.4","SS1627327162774","","1302.800000000745","trial","","40","500","1802.800000000745","images/stimuli/complex_15_A_a.gif","images/stimuli/complex_01_A_b.gif","forced_short","560","","","","","","7","complex_dissimilar","images/stimuli/complex_01_A_b.gif","",""
"","html-keyboard-response","133","255175","0.0-32.0-0.5","SS1627327162774","","null","","","null","","","","","","","","","","","<p><img src= images/blank.png width =""600"" height = ""600"" style=""position:fixed;top:50%; left:50%; transform: translate(-50%, -50%); border:5px solid black"">","","","","",""
"","stimuli-presentation","134","256910","0.0-32.0-1.5","SS1627327162774","","1227.6000000014901","trial","","40","500","1727.6000000014901","images/stimuli/complex_15_A_a.gif","images/stimuli/complex_01_A_b.gif","forced_short","560","","","","","","7","complex_dissimilar","images/stimuli/complex_15_A_a.gif","",""
"","html-keyboard-response","135","257849","0.0-32.0-0.6","SS1627327162774","","null","","","null","","","","","","","","","","","<p><img src= images/blank.png width =""600"" height = ""600"" style=""position:fixed;top:50%; left:50%; transform: translate(-50%, -50%); border:5px solid black"">","","","","",""
"","stimuli-presentation","136","259789","0.0-32.0-1.6","SS1627327162774","","1433.8999999985099","trial","","40","500","1933.8999999985099","images/stimuli/complex_15_A_a.gif","images/stimuli/complex_01_A_b.gif","forced_short","560","","","","","","7","complex_dissimilar","images/stimuli/complex_01_A_b.gif","",""
"","html-keyboard-response","137","260945","0.0-32.0-0.7","SS1627327162774","","null","","","null","","","","","","","","","","","<p><img src= images/blank.png width =""600"" height = ""600"" style=""position:fixed;top:50%; left:50%; transform: translate(-50%, -50%); border:5px solid black"">","","","","",""
"","stimuli-presentation","138","262511","0.0-32.0-1.7","SS1627327162774","","1058.300000000745","trial","","40","500","1558.300000000745","images/stimuli/complex_15_A_a.gif","images/stimuli/complex_01_A_b.gif","forced_short","560","","","","","","7","complex_dissimilar","images/stimuli/complex_01_A_b.gif","",""
"","survey-multi-choice","139","264888","0.0-33.0","SS1627327162774","","2371.699999999255","memory_test","","","","","","","","","{""Q0"":""No""}","[0]","images/stimuli/complex_19_A_b.gif","7","","","","","",""
"","survey-multi-choice","140","266373","0.0-34.0","SS1627327162774","","1475.199999999255","memory_test","","","","","","","","","{""Q0"":""Yes""}","[0]","images/stimuli/complex_15_A_a.gif","7","","","","","",""
"","instructions","141","270603","0.0-35.0","SS1627327162774","[{""page_index"":0,""viewing_time"":4224.10000000149}]","4225","instructions","","","","","","","","","","","","","","","","","",""
"","survey-likert","142","282195","0.0-36.0","SS1627327162774","","11582.10000000149","similarity_question","","","","","","","","","{""Q0"":1}","[0]","","","","","","","images/stimuli/complex_10_A_b.gif","images/stimuli/complex_13_A_a.gif"
"","survey-likert","143","296165","0.0-37.0","SS1627327162774","","13962.699999999255","similarity_question","","","","","","","","","{""Q0"":4}","[0]","","","","","","","images/stimuli/complex_06_A_a.gif","images/stimuli/complex_23_A_b.gif"
"","survey-likert","144","304897","0.0-38.0","SS1627327162774","","8724","similarity_question","","","","","","","","","{""Q0"":2}","[0]","","","","","","","images/stimuli/complex_09_A_a.gif","images/stimuli/complex_07_A_a.gif"
"","survey-likert","145","310943","0.0-39.0","SS1627327162774","","6036.199999999255","similarity_question","","","","","","","","","{""Q0"":4}","[0]","","","","","","","images/stimuli/complex_04_A_b.gif","images/stimuli/complex_20_A_b.gif"
"","survey-likert","146","315801","0.0-40.0","SS1627327162774","","4848.5","similarity_question","","","","","","","","","{""Q0"":1}","[0]","","","","","","","images/stimuli/complex_01_A_b.gif","images/stimuli/complex_15_A_a.gif"
"","survey-likert","147","320384","0.0-41.0","SS1627327162774","","4574.800000000745","similarity_question","","","","","","","","","{""Q0"":1}","[0]","","","","","","","images/stimuli/complex_24_A_b.gif","images/stimuli/complex_14_A_a.gif"
"","survey-likert","148","325355","0.0-42.0","SS1627327162774","","4964.70000000298","similarity_question","","","","","","","","","{""Q0"":4}","[0]","","","","","","","images/stimuli/complex_17_A_b.gif","images/stimuli/complex_03_A_b.gif"
"","survey-likert","149","331099","0.0-43.0","SS1627327162774","","5736.400000002235","similarity_question","","","","","","","","","{""Q0"":5}","[0]","","","","","","","images/stimuli/complex_12_A_b.gif","images/stimuli/complex_11_A_b.gif"
"","instructions","150","333847","0.0-44.0","SS1627327162774","[{""page_index"":0,""viewing_time"":2741.5}]","2742","instructions","","","","","","","","","","","","","","","","","",""
"","survey-likert","151","337968","0.0-45.0","SS1627327162774","","4114.20000000298","","","","","","","","","","{""Q0"":2}","[0]","","","images/stimuli/complex_14_A_a.gif","","","","",""
"","survey-likert","152","340922","0.0-46.0","SS1627327162774","","2946.800000000745","","","","","","","","","","{""Q0"":1}","[0]","","","images/stimuli/complex_01_A_b.gif","","","","",""
"","survey-likert","153","344663","0.0-47.0","SS1627327162774","","3734","","","","","","","","","","{""Q0"":4}","[0]","","","images/stimuli/complex_07_A_a.gif","","","","",""
"","survey-likert","154","349296","0.0-48.0","SS1627327162774","","4626.39999999851","","","","","","","","","","{""Q0"":1}","[0]","","","images/stimuli/complex_13_A_a.gif","","","","",""
"","survey-likert","155","352541","0.0-49.0","SS1627327162774","","3238.89999999851","","","","","","","","","","{""Q0"":5}","[0]","","","images/stimuli/complex_23_A_b.gif","","","","",""
"","survey-likert","156","358354","0.0-50.0","SS1627327162774","","5805.199999999255","","","","","","","","","","{""Q0"":1}","[0]","","","images/stimuli/complex_03_A_b.gif","","","","",""
"","survey-likert","157","361431","0.0-51.0","SS1627327162774","","3070.300000000745","","","","","","","","","","{""Q0"":6}","[0]","","","images/stimuli/complex_12_A_b.gif","","","","",""
"","survey-likert","158","364918","0.0-52.0","SS1627327162774","","3479.400000002235","","","","","","","","","","{""Q0"":4}","[0]","","","images/stimuli/complex_04_A_b.gif","","","","",""
"true","fullscreen","159","365925","0.0-53.0","SS1627327162774","","","","","","","","","","","","","","","","","","","","",""
"","instructions","160","368799","0.0-54.0","SS1627327162774","[{""page_index"":0,""viewing_time"":2869.400000002235}]","2869.900000002235","instructions","","","","","","","","","","","","","","","","","",""
"","demog-age","161","370974","0.0-55.0","SS1627327162774","","2165.199999999255","","","","","","","","","","{""age"":""22""}","","","","","","","","",""
"","demog-ethnic-US","162","373186","0.0-56.0","SS1627327162774","","2197.5","","","","","","","","","","{""ethnicity"":[""Asian""]}","[0]","","","","","","","",""
"","demog-gender-and-education","163","376987","0.0-57.0","SS1627327162774","","3793.39999999851","","","","","","","","","","{""gender"":""Female"",""education"":""Bachelor's Degree""}","[0,1]","","","","","","","",""
"","survey-text","164","386086","0.0-58.0","SS1627327162774","","9090.300000000745","feedback","","","","","","","","","{""Q0"":""No problems!""}","","","","","","","","",""
"","instructions","165","387158","0.0-59.0","SS1627327162774","[{""page_index"":0,""viewing_time"":1065.7999999970198}]","1066.5999999977648","instructions","","","","","","","","","","","","","","","","","",""
