"success","trial_type","trial_index","time_elapsed","internal_node_id","subject","view_history","rt","stimulus_type","trial_stimulus","key_press","minimum_viewing_duration","trial_looking_time","block_deviant","block_background","exposure_type","forced_exposure_time","responses","question_order","memory_question_stimuli","memory_block_index","stimulus","block_number","block_type","stimulus_displayed","stimulus_left","stimulus_right"
"true","fullscreen","0","4910","0.0-0.0","SS1627326935617","","","","","","","","","","","","","","","","","","","","",""
"","instructions","1","17148","0.0-1.0","SS1627326935617","[{""page_index"":0,""viewing_time"":12232.79999999702}]","12234.40000000596","","","","","","","","","","","","","","","","","","",""
"","instructions","2","54675","0.0-2.0","SS1627326935617","[{""page_index"":0,""viewing_time"":30881.79999999702},{""page_index"":1,""viewing_time"":4637.9000000059605}]","35520.10000000894","instructions","","","","","","","","","","","","","","","","","",""
"","stimuli-presentation","3","67088","0.0-3.0","SS1627326935617","","11903.70000000298","","","40","500","12403.70000000298","null","null","self_paced","0","","","","","","","","","",""
"","instructions","4","80947","0.0-4.0","SS1627326935617","[{""page_index"":0,""viewing_time"":13857.60000000894}]","13858","instructions","","","","","","","","","","","","","","","","","",""
"","stimuli-presentation","5","85074","0.0-5.0","SS1627326935617","","3620","","","40","500","4120","null","null","forced_short","500","","","","","","","","","",""
"","stimuli-presentation","6","88530","0.0-6.0","SS1627326935617","","2952.699999988079","","","40","500","3452.699999988079","null","null","forced_short","500","","","","","","","","","",""
"","instructions","7","101665","0.0-7.0","SS1627326935617","[{""page_index"":0,""viewing_time"":13132.5}]","13132.79999999702","instructions","","","","","","","","","","","","","","","","","",""
"","survey-multi-choice","8","106611","0.0-8.0","SS1627326935617","","4939.29999999702","memory_test_practice","","","","","","","","","{""Q0"":""No""}","[0]","images/practice/instructions_example_spore2.gif","0","","","","","",""
"","survey-multi-choice","9","110353","0.0-9.0","SS1627326935617","","3736.9000000059605","memory_test_practice","","","","","","","","","{""Q0"":""No""}","[0]","images/practice/instructions_example_spore0.gif","0","","","","","",""
"","instructions","10","122928","0.0-10.0","SS1627326935617","[{""page_index"":0,""viewing_time"":11064.40000000596},{""page_index"":1,""viewing_time"":1507.5}]","12572.29999999702","instructions","","","","","","","","","","","","","","","","","",""
"","html-keyboard-response","11","124096","0.0-11.0-0.0","SS1627326935617","","null","","","null","","","","","","","","","","","<p><img src= images/blank.png width =""600"" height = ""600"" style=""position:fixed;top:50%; left:50%; transform: translate(-50%, -50%); border:5px solid black"">","","","","",""
"","stimuli-presentation","12","126153","0.0-11.0-1.0","SS1627326935617","","1681","trial","","40","500","2181","images/stimuli/complex_23_A_b.gif","images/stimuli/complex_12_A_b.gif","forced_short","370","","","","","","0","complex_dissimilar","images/stimuli/complex_12_A_b.gif","",""
"","html-keyboard-response","13","127198","0.0-11.0-0.1","SS1627326935617","","null","","","null","","","","","","","","","","","<p><img src= images/blank.png width =""600"" height = ""600"" style=""position:fixed;top:50%; left:50%; transform: translate(-50%, -50%); border:5px solid black"">","","","","",""
"","stimuli-presentation","14","137876","0.0-11.0-1.1","SS1627326935617","","10173.199999988079","trial","","40","500","10673.199999988079","images/stimuli/complex_23_A_b.gif","images/stimuli/complex_12_A_b.gif","forced_short","370","","","","","","0","complex_dissimilar","images/stimuli/complex_12_A_b.gif","",""
"","html-keyboard-response","15","139104","0.0-11.0-0.2","SS1627326935617","","null","","","null","","","","","","","","","","","<p><img src= images/blank.png width =""600"" height = ""600"" style=""position:fixed;top:50%; left:50%; transform: translate(-50%, -50%); border:5px solid black"">","","","","",""
"","stimuli-presentation","16","141005","0.0-11.0-1.2","SS1627326935617","","1394.2999999970198","trial","","40","500","1894.2999999970198","images/stimuli/complex_23_A_b.gif","images/stimuli/complex_12_A_b.gif","forced_short","370","","","","","","0","complex_dissimilar","images/stimuli/complex_12_A_b.gif","",""
"","html-keyboard-response","17","141931","0.0-11.0-0.3","SS1627326935617","","null","","","null","","","","","","","","","","","<p><img src= images/blank.png width =""600"" height = ""600"" style=""position:fixed;top:50%; left:50%; transform: translate(-50%, -50%); border:5px solid black"">","","","","",""
"","stimuli-presentation","18","145857","0.0-11.0-1.3","SS1627326935617","","3417.4000000059605","trial","","40","500","3917.4000000059605","images/stimuli/complex_23_A_b.gif","images/stimuli/complex_12_A_b.gif","forced_short","370","","","","","","0","complex_dissimilar","images/stimuli/complex_12_A_b.gif","",""
"","html-keyboard-response","19","147051","0.0-11.0-0.4","SS1627326935617","","null","","","null","","","","","","","","","","","<p><img src= images/blank.png width =""600"" height = ""600"" style=""position:fixed;top:50%; left:50%; transform: translate(-50%, -50%); border:5px solid black"">","","","","",""
"","stimuli-presentation","20","151627","0.0-11.0-1.4","SS1627326935617","","4068.5","trial","","40","500","4568.5","images/stimuli/complex_23_A_b.gif","images/stimuli/complex_12_A_b.gif","forced_short","370","","","","","","0","complex_dissimilar","images/stimuli/complex_12_A_b.gif","",""
"","html-keyboard-response","21","152448","0.0-11.0-0.5","SS1627326935617","","null","","","null","","","","","","","","","","","<p><img src= images/blank.png width =""600"" height = ""600"" style=""position:fixed;top:50%; left:50%; transform: translate(-50%, -50%); border:5px solid black"">","","","","",""
"","stimuli-presentation","22","157490","0.0-11.0-1.5","SS1627326935617","","4535.29999999702","trial","","40","500","5035.29999999702","images/stimuli/complex_23_A_b.gif","images/stimuli/complex_12_A_b.gif","forced_short","370","","","","","","0","complex_dissimilar","images/stimuli/complex_12_A_b.gif","",""
"","html-keyboard-response","23","158481","0.0-11.0-0.6","SS1627326935617","","null","","","null","","","","","","","","","","","<p><img src= images/blank.png width =""600"" height = ""600"" style=""position:fixed;top:50%; left:50%; transform: translate(-50%, -50%); border:5px solid black"">","","","","",""
"","stimuli-presentation","24","167409","0.0-11.0-1.6","SS1627326935617","","8423.29999999702","trial","","40","500","8923.29999999702","images/stimuli/complex_23_A_b.gif","images/stimuli/complex_12_A_b.gif","forced_short","370","","","","","","0","complex_dissimilar","images/stimuli/complex_12_A_b.gif","",""
"","html-keyboard-response","25","168376","0.0-11.0-0.7","SS1627326935617","","null","","","null","","","","","","","","","","","<p><img src= images/blank.png width =""600"" height = ""600"" style=""position:fixed;top:50%; left:50%; transform: translate(-50%, -50%); border:5px solid black"">","","","","",""
"","stimuli-presentation","26","177656","0.0-11.0-1.7","SS1627326935617","","8771.29999999702","trial","","40","500","9271.29999999702","images/stimuli/complex_23_A_b.gif","images/stimuli/complex_12_A_b.gif","forced_short","370","","","","","","0","complex_dissimilar","images/stimuli/complex_12_A_b.gif","",""
"","survey-multi-choice","27","182798","0.0-12.0","SS1627326935617","","5138.0999999940395","memory_test","","","","","","","","","{""Q0"":""Yes""}","[0]","images/stimuli/complex_12_A_b.gif","0","","","","","",""
"","survey-multi-choice","28","186840","0.0-13.0","SS1627326935617","","4036","memory_test","","","","","","","","","{""Q0"":""No""}","[0]","images/stimuli/complex_02_A_b.gif","0","","","","","",""
"","html-keyboard-response","29","187958","0.0-14.0-0.0","SS1627326935617","","null","","","null","","","","","","","","","","","<p><img src= images/blank.png width =""600"" height = ""600"" style=""position:fixed;top:50%; left:50%; transform: translate(-50%, -50%); border:5px solid black"">","","","","",""
"","stimuli-presentation","30","190367","0.0-14.0-1.0","SS1627326935617","","1434","trial","","40","500","1934","images/stimuli/complex_09_A_a.gif","images/stimuli/complex_01_A_b.gif","forced_short","970","","","","","","1","complex_dissimilar","images/stimuli/complex_01_A_b.gif","",""
"","html-keyboard-response","31","191600","0.0-14.0-0.1","SS1627326935617","","null","","","null","","","","","","","","","","","<p><img src= images/blank.png width =""600"" height = ""600"" style=""position:fixed;top:50%; left:50%; transform: translate(-50%, -50%); border:5px solid black"">","","","","",""
"","stimuli-presentation","32","200175","0.0-14.0-1.1","SS1627326935617","","8070.4000000059605","trial","","40","500","8570.40000000596","images/stimuli/complex_09_A_a.gif","images/stimuli/complex_01_A_b.gif","forced_short","970","","","","","","1","complex_dissimilar","images/stimuli/complex_01_A_b.gif","",""
"","html-keyboard-response","33","201051","0.0-14.0-0.2","SS1627326935617","","null","","","null","","","","","","","","","","","<p><img src= images/blank.png width =""600"" height = ""600"" style=""position:fixed;top:50%; left:50%; transform: translate(-50%, -50%); border:5px solid black"">","","","","",""
"","stimuli-presentation","34","207991","0.0-14.0-1.2","SS1627326935617","","6434.5","trial","","40","500","6934.5","images/stimuli/complex_09_A_a.gif","images/stimuli/complex_01_A_b.gif","forced_short","970","","","","","","1","complex_dissimilar","images/stimuli/complex_01_A_b.gif","",""
"","html-keyboard-response","35","209250","0.0-14.0-0.3","SS1627326935617","","null","","","null","","","","","","","","","","","<p><img src= images/blank.png width =""600"" height = ""600"" style=""position:fixed;top:50%; left:50%; transform: translate(-50%, -50%); border:5px solid black"">","","","","",""
"","stimuli-presentation","36","220417","0.0-14.0-1.3","SS1627326935617","","10660.79999999702","trial","","40","500","11160.79999999702","images/stimuli/complex_09_A_a.gif","images/stimuli/complex_01_A_b.gif","forced_short","970","","","","","","1","complex_dissimilar","images/stimuli/complex_09_A_a.gif","",""
"","html-keyboard-response","37","221317","0.0-14.0-0.4","SS1627326935617","","null","","","null","","","","","","","","","","","<p><img src= images/blank.png width =""600"" height = ""600"" style=""position:fixed;top:50%; left:50%; transform: translate(-50%, -50%); border:5px solid black"">","","","","",""
"","stimuli-presentation","38","233669","0.0-14.0-1.4","SS1627326935617","","11842","trial","","40","500","12342","images/stimuli/complex_09_A_a.gif","images/stimuli/complex_01_A_b.gif","forced_short","970","","","","","","1","complex_dissimilar","images/stimuli/complex_01_A_b.gif","",""
"","html-keyboard-response","39","234532","0.0-14.0-0.5","SS1627326935617","","null","","","null","","","","","","","","","","","<p><img src= images/blank.png width =""600"" height = ""600"" style=""position:fixed;top:50%; left:50%; transform: translate(-50%, -50%); border:5px solid black"">","","","","",""
"","stimuli-presentation","40","238667","0.0-14.0-1.5","SS1627326935617","","3625.2999999970198","trial","","40","500","4125.29999999702","images/stimuli/complex_09_A_a.gif","images/stimuli/complex_01_A_b.gif","forced_short","970","","","","","","1","complex_dissimilar","images/stimuli/complex_01_A_b.gif","",""
"","survey-multi-choice","41","243311","0.0-15.0","SS1627326935617","","4639.5","memory_test","","","","","","","","","{""Q0"":""No""}","[0]","images/stimuli/complex_04_A_b.gif","1","","","","","",""
"","survey-multi-choice","42","247117","0.0-16.0","SS1627326935617","","3801.5","memory_test","","","","","","","","","{""Q0"":""Yes""}","[0]","images/stimuli/complex_09_A_a.gif","1","","","","","",""
"","html-keyboard-response","43","248299","0.0-17.0-0.0","SS1627326935617","","null","","","null","","","","","","","","","","","<p><img src= images/blank.png width =""600"" height = ""600"" style=""position:fixed;top:50%; left:50%; transform: translate(-50%, -50%); border:5px solid black"">","","","","",""
"","stimuli-presentation","44","250212","0.0-17.0-1.0","SS1627326935617","","1346.6000000089407","trial","","40","500","1846.6000000089407","images/stimuli/complex_24_A_b.gif","images/stimuli/complex_11_A_a.gif","forced_short","560","","","","","","2","complex_dissimilar","images/stimuli/complex_11_A_a.gif","",""
"","html-keyboard-response","45","251243","0.0-17.0-0.1","SS1627326935617","","null","","","null","","","","","","","","","","","<p><img src= images/blank.png width =""600"" height = ""600"" style=""position:fixed;top:50%; left:50%; transform: translate(-50%, -50%); border:5px solid black"">","","","","",""
"","stimuli-presentation","46","256653","0.0-17.0-1.1","SS1627326935617","","4904.20000000298","trial","","40","500","5404.20000000298","images/stimuli/complex_24_A_b.gif","images/stimuli/complex_11_A_a.gif","forced_short","560","","","","","","2","complex_dissimilar","images/stimuli/complex_11_A_a.gif","",""
"","html-keyboard-response","47","257581","0.0-17.0-0.2","SS1627326935617","","null","","","null","","","","","","","","","","","<p><img src= images/blank.png width =""600"" height = ""600"" style=""position:fixed;top:50%; left:50%; transform: translate(-50%, -50%); border:5px solid black"">","","","","",""
"","stimuli-presentation","48","260018","0.0-17.0-1.2","SS1627326935617","","1927.2999999970198","trial","","40","500","2427.2999999970198","images/stimuli/complex_24_A_b.gif","images/stimuli/complex_11_A_a.gif","forced_short","560","","","","","","2","complex_dissimilar","images/stimuli/complex_11_A_a.gif","",""
"","html-keyboard-response","49","260918","0.0-17.0-0.3","SS1627326935617","","null","","","null","","","","","","","","","","","<p><img src= images/blank.png width =""600"" height = ""600"" style=""position:fixed;top:50%; left:50%; transform: translate(-50%, -50%); border:5px solid black"">","","","","",""
"","stimuli-presentation","50","263006","0.0-17.0-1.3","SS1627326935617","","1577.7000000029802","trial","","40","500","2077.7000000029802","images/stimuli/complex_24_A_b.gif","images/stimuli/complex_11_A_a.gif","forced_short","560","","","","","","2","complex_dissimilar","images/stimuli/complex_11_A_a.gif","",""
"","html-keyboard-response","51","264219","0.0-17.0-0.4","SS1627326935617","","null","","","null","","","","","","","","","","","<p><img src= images/blank.png width =""600"" height = ""600"" style=""position:fixed;top:50%; left:50%; transform: translate(-50%, -50%); border:5px solid black"">","","","","",""
"","stimuli-presentation","52","267584","0.0-17.0-1.4","SS1627326935617","","2858.2999999970198","trial","","40","500","3358.2999999970198","images/stimuli/complex_24_A_b.gif","images/stimuli/complex_11_A_a.gif","forced_short","560","","","","","","2","complex_dissimilar","images/stimuli/complex_11_A_a.gif","",""
"","html-keyboard-response","53","268527","0.0-17.0-0.5","SS1627326935617","","null","","","null","","","","","","","","","","","<p><img src= images/blank.png width =""600"" height = ""600"" style=""position:fixed;top:50%; left:50%; transform: translate(-50%, -50%); border:5px solid black"">","","","","",""
"","stimuli-presentation","54","275060","0.0-17.0-1.5","SS1627326935617","","6027","trial","","40","500","6527","images/stimuli/complex_24_A_b.gif","images/stimuli/complex_11_A_a.gif","forced_short","560","","","","","","2","complex_dissimilar","images/stimuli/complex_24_A_b.gif","",""
"","html-keyboard-response","55","276076","0.0-17.0-0.6","SS1627326935617","","null","","","null","","","","","","","","","","","<p><img src= images/blank.png width =""600"" height = ""600"" style=""position:fixed;top:50%; left:50%; transform: translate(-50%, -50%); border:5px solid black"">","","","","",""
"","stimuli-presentation","56","279568","0.0-17.0-1.6","SS1627326935617","","2983.4000000059605","trial","","40","500","3483.4000000059605","images/stimuli/complex_24_A_b.gif","images/stimuli/complex_11_A_a.gif","forced_short","560","","","","","","2","complex_dissimilar","images/stimuli/complex_24_A_b.gif","",""
"","html-keyboard-response","57","280714","0.0-17.0-0.7","SS1627326935617","","null","","","null","","","","","","","","","","","<p><img src= images/blank.png width =""600"" height = ""600"" style=""position:fixed;top:50%; left:50%; transform: translate(-50%, -50%); border:5px solid black"">","","","","",""
"","stimuli-presentation","58","282901","0.0-17.0-1.7","SS1627326935617","","1682.2000000029802","trial","","40","500","2182.2000000029802","images/stimuli/complex_24_A_b.gif","images/stimuli/complex_11_A_a.gif","forced_short","560","","","","","","2","complex_dissimilar","images/stimuli/complex_11_A_a.gif","",""
"","survey-multi-choice","59","286093","0.0-18.0","SS1627326935617","","3188.2999999970198","memory_test","","","","","","","","","{""Q0"":""Yes""}","[0]","images/stimuli/complex_11_A_a.gif","2","","","","","",""
"","survey-multi-choice","60","289409","0.0-19.0","SS1627326935617","","3310","memory_test","","","","","","","","","{""Q0"":""No""}","[0]","images/stimuli/complex_07_A_b.gif","2","","","","","",""
"","html-keyboard-response","61","290237","0.0-20.0-0.0","SS1627326935617","","null","","","null","","","","","","","","","","","<p><img src= images/blank.png width =""600"" height = ""600"" style=""position:fixed;top:50%; left:50%; transform: translate(-50%, -50%); border:5px solid black"">","","","","",""
"","stimuli-presentation","62","292360","0.0-20.0-1.0","SS1627326935617","","1345.7000000029802","trial","","40","500","1845.7000000029802","images/stimuli/complex_21_A_a.gif","images/stimuli/complex_03_A_b.gif","forced_short","770","","","","","","3","complex_dissimilar","images/stimuli/complex_03_A_b.gif","",""
"","html-keyboard-response","63","293426","0.0-20.0-0.1","SS1627326935617","","null","","","null","","","","","","","","","","","<p><img src= images/blank.png width =""600"" height = ""600"" style=""position:fixed;top:50%; left:50%; transform: translate(-50%, -50%); border:5px solid black"">","","","","",""
"","stimuli-presentation","64","301689","0.0-20.0-1.1","SS1627326935617","","7757.29999999702","trial","","40","500","8257.29999999702","images/stimuli/complex_21_A_a.gif","images/stimuli/complex_03_A_b.gif","forced_short","770","","","","","","3","complex_dissimilar","images/stimuli/complex_03_A_b.gif","",""
"","html-keyboard-response","65","302599","0.0-20.0-0.2","SS1627326935617","","null","","","null","","","","","","","","","","","<p><img src= images/blank.png width =""600"" height = ""600"" style=""position:fixed;top:50%; left:50%; transform: translate(-50%, -50%); border:5px solid black"">","","","","",""
"","stimuli-presentation","66","305775","0.0-20.0-1.2","SS1627326935617","","2669.5","trial","","40","500","3169.5","images/stimuli/complex_21_A_a.gif","images/stimuli/complex_03_A_b.gif","forced_short","770","","","","","","3","complex_dissimilar","images/stimuli/complex_03_A_b.gif","",""
"","html-keyboard-response","67","306695","0.0-20.0-0.3","SS1627326935617","","null","","","null","","","","","","","","","","","<p><img src= images/blank.png width =""600"" height = ""600"" style=""position:fixed;top:50%; left:50%; transform: translate(-50%, -50%); border:5px solid black"">","","","","",""
"","stimuli-presentation","68","311674","0.0-20.0-1.3","SS1627326935617","","4469.79999999702","trial","","40","500","4969.79999999702","images/stimuli/complex_21_A_a.gif","images/stimuli/complex_03_A_b.gif","forced_short","770","","","","","","3","complex_dissimilar","images/stimuli/complex_03_A_b.gif","",""
"","html-keyboard-response","69","312526","0.0-20.0-0.4","SS1627326935617","","null","","","null","","","","","","","","","","","<p><img src= images/blank.png width =""600"" height = ""600"" style=""position:fixed;top:50%; left:50%; transform: translate(-50%, -50%); border:5px solid black"">","","","","",""
"","stimuli-presentation","70","314593","0.0-20.0-1.4","SS1627326935617","","1555","trial","","40","500","2055","images/stimuli/complex_21_A_a.gif","images/stimuli/complex_03_A_b.gif","forced_short","770","","","","","","3","complex_dissimilar","images/stimuli/complex_03_A_b.gif","",""
"","html-keyboard-response","71","315422","0.0-20.0-0.5","SS1627326935617","","null","","","null","","","","","","","","","","","<p><img src= images/blank.png width =""600"" height = ""600"" style=""position:fixed;top:50%; left:50%; transform: translate(-50%, -50%); border:5px solid black"">","","","","",""
"","stimuli-presentation","72","317225","0.0-20.0-1.5","SS1627326935617","","1295.7999999970198","trial","","40","500","1795.7999999970198","images/stimuli/complex_21_A_a.gif","images/stimuli/complex_03_A_b.gif","forced_short","770","","","","","","3","complex_dissimilar","images/stimuli/complex_03_A_b.gif","",""
"","html-keyboard-response","73","318320","0.0-20.0-0.6","SS1627326935617","","null","","","null","","","","","","","","","","","<p><img src= images/blank.png width =""600"" height = ""600"" style=""position:fixed;top:50%; left:50%; transform: translate(-50%, -50%); border:5px solid black"">","","","","",""
"","stimuli-presentation","74","319645","0.0-20.0-1.6","SS1627326935617","","818.5","trial","","40","500","1318.5","images/stimuli/complex_21_A_a.gif","images/stimuli/complex_03_A_b.gif","forced_short","770","","","","","","3","complex_dissimilar","images/stimuli/complex_03_A_b.gif","",""
"","survey-multi-choice","75","323344","0.0-21.0","SS1627326935617","","3695.199999988079","memory_test","","","","","","","","","{""Q0"":""No""}","[0]","images/stimuli/complex_08_A_a.gif","3","","","","","",""
"","survey-multi-choice","76","325563","0.0-22.0","SS1627326935617","","2211.5999999940395","memory_test","","","","","","","","","{""Q0"":""Yes""}","[0]","images/stimuli/complex_03_A_b.gif","3","","","","","",""
"","html-keyboard-response","77","326440","0.0-23.0-0.0","SS1627326935617","","null","","","null","","","","","","","","","","","<p><img src= images/blank.png width =""600"" height = ""600"" style=""position:fixed;top:50%; left:50%; transform: translate(-50%, -50%); border:5px solid black"">","","","","",""
"","stimuli-presentation","78","329552","0.0-23.0-1.0","SS1627326935617","","2853.4000000059605","trial","","40","500","3353.4000000059605","images/stimuli/complex_10_A_b.gif","images/stimuli/complex_13_A_b.gif","forced_short","250","","","","","","4","complex_dissimilar","images/stimuli/complex_13_A_b.gif","",""
"","html-keyboard-response","79","330775","0.0-23.0-0.1","SS1627326935617","","null","","","null","","","","","","","","","","","<p><img src= images/blank.png width =""600"" height = ""600"" style=""position:fixed;top:50%; left:50%; transform: translate(-50%, -50%); border:5px solid black"">","","","","",""
"","stimuli-presentation","80","335831","0.0-23.0-1.1","SS1627326935617","","4549.29999999702","trial","","40","500","5049.29999999702","images/stimuli/complex_10_A_b.gif","images/stimuli/complex_13_A_b.gif","forced_short","250","","","","","","4","complex_dissimilar","images/stimuli/complex_13_A_b.gif","",""
"","html-keyboard-response","81","336826","0.0-23.0-0.2","SS1627326935617","","null","","","null","","","","","","","","","","","<p><img src= images/blank.png width =""600"" height = ""600"" style=""position:fixed;top:50%; left:50%; transform: translate(-50%, -50%); border:5px solid black"">","","","","",""
"","stimuli-presentation","82","339635","0.0-23.0-1.2","SS1627326935617","","2302.7999999970198","trial","","40","500","2802.7999999970198","images/stimuli/complex_10_A_b.gif","images/stimuli/complex_13_A_b.gif","forced_short","250","","","","","","4","complex_dissimilar","images/stimuli/complex_13_A_b.gif","",""
"","html-keyboard-response","83","340535","0.0-23.0-0.3","SS1627326935617","","null","","","null","","","","","","","","","","","<p><img src= images/blank.png width =""600"" height = ""600"" style=""position:fixed;top:50%; left:50%; transform: translate(-50%, -50%); border:5px solid black"">","","","","",""
"","stimuli-presentation","84","343775","0.0-23.0-1.3","SS1627326935617","","2734.5","trial","","40","500","3234.5","images/stimuli/complex_10_A_b.gif","images/stimuli/complex_13_A_b.gif","forced_short","250","","","","","","4","complex_dissimilar","images/stimuli/complex_10_A_b.gif","",""
"","html-keyboard-response","85","344803","0.0-23.0-0.4","SS1627326935617","","null","","","null","","","","","","","","","","","<p><img src= images/blank.png width =""600"" height = ""600"" style=""position:fixed;top:50%; left:50%; transform: translate(-50%, -50%); border:5px solid black"">","","","","",""
"","stimuli-presentation","86","345895","0.0-23.0-1.4","SS1627326935617","","581.2000000029802","trial","","40","500","1081.2000000029802","images/stimuli/complex_10_A_b.gif","images/stimuli/complex_13_A_b.gif","forced_short","250","","","","","","4","complex_dissimilar","images/stimuli/complex_13_A_b.gif","",""
"","html-keyboard-response","87","346952","0.0-23.0-0.5","SS1627326935617","","null","","","null","","","","","","","","","","","<p><img src= images/blank.png width =""600"" height = ""600"" style=""position:fixed;top:50%; left:50%; transform: translate(-50%, -50%); border:5px solid black"">","","","","",""
"","stimuli-presentation","88","350403","0.0-23.0-1.5","SS1627326935617","","2943.3999999910593","trial","","40","500","3443.3999999910593","images/stimuli/complex_10_A_b.gif","images/stimuli/complex_13_A_b.gif","forced_short","250","","","","","","4","complex_dissimilar","images/stimuli/complex_13_A_b.gif","",""
"","html-keyboard-response","89","351443","0.0-23.0-0.6","SS1627326935617","","null","","","null","","","","","","","","","","","<p><img src= images/blank.png width =""600"" height = ""600"" style=""position:fixed;top:50%; left:50%; transform: translate(-50%, -50%); border:5px solid black"">","","","","",""
"","stimuli-presentation","90","353669","0.0-23.0-1.6","SS1627326935617","","1719.9000000059605","trial","","40","500","2219.9000000059605","images/stimuli/complex_10_A_b.gif","images/stimuli/complex_13_A_b.gif","forced_short","250","","","","","","4","complex_dissimilar","images/stimuli/complex_10_A_b.gif","",""
"","html-keyboard-response","91","354924","0.0-23.0-0.7","SS1627326935617","","null","","","null","","","","","","","","","","","<p><img src= images/blank.png width =""600"" height = ""600"" style=""position:fixed;top:50%; left:50%; transform: translate(-50%, -50%); border:5px solid black"">","","","","",""
"","stimuli-presentation","92","356690","0.0-23.0-1.7","SS1627326935617","","1259.0999999940395","trial","","40","500","1759.0999999940395","images/stimuli/complex_10_A_b.gif","images/stimuli/complex_13_A_b.gif","forced_short","250","","","","","","4","complex_dissimilar","images/stimuli/complex_13_A_b.gif","",""
"","survey-multi-choice","93","359485","0.0-24.0","SS1627326935617","","2791.5999999940395","memory_test","","","","","","","","","{""Q0"":""Yes""}","[0]","images/stimuli/complex_13_A_b.gif","4","","","","","",""
"","survey-multi-choice","94","362478","0.0-25.0","SS1627326935617","","2986.2999999970198","memory_test","","","","","","","","","{""Q0"":""No""}","[0]","images/stimuli/complex_15_A_b.gif","4","","","","","",""
"","html-keyboard-response","95","363363","0.0-26.0-0.0","SS1627326935617","","null","","","null","","","","","","","","","","","<p><img src= images/blank.png width =""600"" height = ""600"" style=""position:fixed;top:50%; left:50%; transform: translate(-50%, -50%); border:5px solid black"">","","","","",""
"","stimuli-presentation","96","365756","0.0-26.0-1.0","SS1627326935617","","1484","trial","","40","500","1984","images/stimuli/complex_05_A_a.gif","images/stimuli/complex_16_A_a.gif","forced_short","900","","","","","","5","complex_dissimilar","images/stimuli/complex_16_A_a.gif","",""
"","html-keyboard-response","97","366942","0.0-26.0-0.1","SS1627326935617","","null","","","null","","","","","","","","","","","<p><img src= images/blank.png width =""600"" height = ""600"" style=""position:fixed;top:50%; left:50%; transform: translate(-50%, -50%); border:5px solid black"">","","","","",""
"","stimuli-presentation","98","371104","0.0-26.0-1.1","SS1627326935617","","3655.2000000029802","trial","","40","500","4155.20000000298","images/stimuli/complex_05_A_a.gif","images/stimuli/complex_16_A_a.gif","forced_short","900","","","","","","5","complex_dissimilar","images/stimuli/complex_16_A_a.gif","",""
"","html-keyboard-response","99","372238","0.0-26.0-0.2","SS1627326935617","","null","","","null","","","","","","","","","","","<p><img src= images/blank.png width =""600"" height = ""600"" style=""position:fixed;top:50%; left:50%; transform: translate(-50%, -50%); border:5px solid black"">","","","","",""
"","stimuli-presentation","100","373007","0.0-26.0-1.2","SS1627326935617","","260.6000000089407","trial","","40","500","760.6000000089407","images/stimuli/complex_05_A_a.gif","images/stimuli/complex_16_A_a.gif","forced_short","900","","","","","","5","complex_dissimilar","images/stimuli/complex_16_A_a.gif","",""
"","html-keyboard-response","101","373828","0.0-26.0-0.3","SS1627326935617","","null","","","null","","","","","","","","","","","<p><img src= images/blank.png width =""600"" height = ""600"" style=""position:fixed;top:50%; left:50%; transform: translate(-50%, -50%); border:5px solid black"">","","","","",""
"","stimuli-presentation","102","375240","0.0-26.0-1.3","SS1627326935617","","900.7000000029802","trial","","40","500","1400.7000000029802","images/stimuli/complex_05_A_a.gif","images/stimuli/complex_16_A_a.gif","forced_short","900","","","","","","5","complex_dissimilar","images/stimuli/complex_16_A_a.gif","",""
"","html-keyboard-response","103","376495","0.0-26.0-0.4","SS1627326935617","","null","","","null","","","","","","","","","","","<p><img src= images/blank.png width =""600"" height = ""600"" style=""position:fixed;top:50%; left:50%; transform: translate(-50%, -50%); border:5px solid black"">","","","","",""
"","stimuli-presentation","104","380550","0.0-26.0-1.4","SS1627326935617","","3546","trial","","40","500","4046","images/stimuli/complex_05_A_a.gif","images/stimuli/complex_16_A_a.gif","forced_short","900","","","","","","5","complex_dissimilar","images/stimuli/complex_16_A_a.gif","",""
"","html-keyboard-response","105","381392","0.0-26.0-0.5","SS1627326935617","","null","","","null","","","","","","","","","","","<p><img src= images/blank.png width =""600"" height = ""600"" style=""position:fixed;top:50%; left:50%; transform: translate(-50%, -50%); border:5px solid black"">","","","","",""
"","stimuli-presentation","106","383797","0.0-26.0-1.5","SS1627326935617","","1896.5","trial","","40","500","2396.5","images/stimuli/complex_05_A_a.gif","images/stimuli/complex_16_A_a.gif","forced_short","900","","","","","","5","complex_dissimilar","images/stimuli/complex_16_A_a.gif","",""
"","html-keyboard-response","107","384939","0.0-26.0-0.6","SS1627326935617","","null","","","null","","","","","","","","","","","<p><img src= images/blank.png width =""600"" height = ""600"" style=""position:fixed;top:50%; left:50%; transform: translate(-50%, -50%); border:5px solid black"">","","","","",""
"","stimuli-presentation","108","388128","0.0-26.0-1.6","SS1627326935617","","2677.2000000029802","trial","","40","500","3177.2000000029802","images/stimuli/complex_05_A_a.gif","images/stimuli/complex_16_A_a.gif","forced_short","900","","","","","","5","complex_dissimilar","images/stimuli/complex_16_A_a.gif","",""
"","html-keyboard-response","109","389063","0.0-26.0-0.7","SS1627326935617","","null","","","null","","","","","","","","","","","<p><img src= images/blank.png width =""600"" height = ""600"" style=""position:fixed;top:50%; left:50%; transform: translate(-50%, -50%); border:5px solid black"">","","","","",""
"","stimuli-presentation","110","390731","0.0-26.0-1.7","SS1627326935617","","1159.5999999940395","trial","","40","500","1659.5999999940395","images/stimuli/complex_05_A_a.gif","images/stimuli/complex_16_A_a.gif","forced_short","900","","","","","","5","complex_dissimilar","images/stimuli/complex_16_A_a.gif","",""
"","survey-multi-choice","111","395463","0.0-27.0","SS1627326935617","","4726.5","memory_test","","","","","","","","","{""Q0"":""No""}","[0]","images/stimuli/complex_20_A_b.gif","5","","","","","",""
"","survey-multi-choice","112","398706","0.0-28.0","SS1627326935617","","3236.4000000059605","memory_test","","","","","","","","","{""Q0"":""Yes""}","[0]","images/stimuli/complex_16_A_a.gif","5","","","","","",""
"","html-keyboard-response","113","399655","0.0-29.0-0.0","SS1627326935617","","null","","","null","","","","","","","","","","","<p><img src= images/blank.png width =""600"" height = ""600"" style=""position:fixed;top:50%; left:50%; transform: translate(-50%, -50%); border:5px solid black"">","","","","",""
"","stimuli-presentation","114","400641","0.0-29.0-1.0","SS1627326935617","","768.2999999970198","trial","","40","500","1268.2999999970198","images/stimuli/complex_06_A_b.gif","images/stimuli/complex_19_A_a.gif","forced_short","210","","","","","","6","complex_dissimilar","images/stimuli/complex_19_A_a.gif","",""
"","html-keyboard-response","115","401607","0.0-29.0-0.1","SS1627326935617","","null","","","null","","","","","","","","","","","<p><img src= images/blank.png width =""600"" height = ""600"" style=""position:fixed;top:50%; left:50%; transform: translate(-50%, -50%); border:5px solid black"">","","","","",""
"","stimuli-presentation","116","405359","0.0-29.0-1.1","SS1627326935617","","3245.2000000029802","trial","","40","500","3745.2000000029802","images/stimuli/complex_06_A_b.gif","images/stimuli/complex_19_A_a.gif","forced_short","210","","","","","","6","complex_dissimilar","images/stimuli/complex_19_A_a.gif","",""
"","html-keyboard-response","117","406568","0.0-29.0-0.2","SS1627326935617","","null","","","null","","","","","","","","","","","<p><img src= images/blank.png width =""600"" height = ""600"" style=""position:fixed;top:50%; left:50%; transform: translate(-50%, -50%); border:5px solid black"">","","","","",""
"","stimuli-presentation","118","407936","0.0-29.0-1.2","SS1627326935617","","862.3999999910593","trial","","40","500","1362.3999999910593","images/stimuli/complex_06_A_b.gif","images/stimuli/complex_19_A_a.gif","forced_short","210","","","","","","6","complex_dissimilar","images/stimuli/complex_19_A_a.gif","",""
"","html-keyboard-response","119","408961","0.0-29.0-0.3","SS1627326935617","","null","","","null","","","","","","","","","","","<p><img src= images/blank.png width =""600"" height = ""600"" style=""position:fixed;top:50%; left:50%; transform: translate(-50%, -50%); border:5px solid black"">","","","","",""
"","stimuli-presentation","120","410203","0.0-29.0-1.3","SS1627326935617","","732","trial","","40","500","1232","images/stimuli/complex_06_A_b.gif","images/stimuli/complex_19_A_a.gif","forced_short","210","","","","","","6","complex_dissimilar","images/stimuli/complex_19_A_a.gif","",""
"","html-keyboard-response","121","411380","0.0-29.0-0.4","SS1627326935617","","null","","","null","","","","","","","","","","","<p><img src= images/blank.png width =""600"" height = ""600"" style=""position:fixed;top:50%; left:50%; transform: translate(-50%, -50%); border:5px solid black"">","","","","",""
"","stimuli-presentation","122","412646","0.0-29.0-1.4","SS1627326935617","","755.6999999880791","trial","","40","500","1255.699999988079","images/stimuli/complex_06_A_b.gif","images/stimuli/complex_19_A_a.gif","forced_short","210","","","","","","6","complex_dissimilar","images/stimuli/complex_19_A_a.gif","",""
"","html-keyboard-response","123","413596","0.0-29.0-0.5","SS1627326935617","","null","","","null","","","","","","","","","","","<p><img src= images/blank.png width =""600"" height = ""600"" style=""position:fixed;top:50%; left:50%; transform: translate(-50%, -50%); border:5px solid black"">","","","","",""
"","stimuli-presentation","124","415162","0.0-29.0-1.5","SS1627326935617","","1059.7000000029802","trial","","40","500","1559.7000000029802","images/stimuli/complex_06_A_b.gif","images/stimuli/complex_19_A_a.gif","forced_short","210","","","","","","6","complex_dissimilar","images/stimuli/complex_19_A_a.gif","",""
"","html-keyboard-response","125","416337","0.0-29.0-0.6","SS1627326935617","","null","","","null","","","","","","","","","","","<p><img src= images/blank.png width =""600"" height = ""600"" style=""position:fixed;top:50%; left:50%; transform: translate(-50%, -50%); border:5px solid black"">","","","","",""
"","stimuli-presentation","126","417614","0.0-29.0-1.6","SS1627326935617","","769.5999999940395","trial","","40","500","1269.5999999940395","images/stimuli/complex_06_A_b.gif","images/stimuli/complex_19_A_a.gif","forced_short","210","","","","","","6","complex_dissimilar","images/stimuli/complex_19_A_a.gif","",""
"","survey-multi-choice","127","420753","0.0-30.0","SS1627326935617","","3132.9000000059605","memory_test","","","","","","","","","{""Q0"":""Yes""}","[0]","images/stimuli/complex_19_A_a.gif","6","","","","","",""
"","survey-multi-choice","128","423607","0.0-31.0","SS1627326935617","","2846.5999999940395","memory_test","","","","","","","","","{""Q0"":""No""}","[0]","images/stimuli/complex_22_A_a.gif","6","","","","","",""
"","html-keyboard-response","129","424533","0.0-32.0-0.0","SS1627326935617","","null","","","null","","","","","","","","","","","<p><img src= images/blank.png width =""600"" height = ""600"" style=""position:fixed;top:50%; left:50%; transform: translate(-50%, -50%); border:5px solid black"">","","","","",""
"","stimuli-presentation","130","425648","0.0-32.0-1.0","SS1627326935617","","797.1000000089407","trial","","40","500","1297.1000000089407","images/stimuli/complex_17_A_a.gif","images/stimuli/complex_14_A_b.gif","forced_short","310","","","","","","7","complex_dissimilar","images/stimuli/complex_14_A_b.gif","",""
"","html-keyboard-response","131","426844","0.0-32.0-0.1","SS1627326935617","","null","","","null","","","","","","","","","","","<p><img src= images/blank.png width =""600"" height = ""600"" style=""position:fixed;top:50%; left:50%; transform: translate(-50%, -50%); border:5px solid black"">","","","","",""
"","stimuli-presentation","132","430230","0.0-32.0-1.1","SS1627326935617","","2878.9000000059605","trial","","40","500","3378.9000000059605","images/stimuli/complex_17_A_a.gif","images/stimuli/complex_14_A_b.gif","forced_short","310","","","","","","7","complex_dissimilar","images/stimuli/complex_14_A_b.gif","",""
"","html-keyboard-response","133","431134","0.0-32.0-0.2","SS1627326935617","","null","","","null","","","","","","","","","","","<p><img src= images/blank.png width =""600"" height = ""600"" style=""position:fixed;top:50%; left:50%; transform: translate(-50%, -50%); border:5px solid black"">","","","","",""
"","stimuli-presentation","134","434127","0.0-32.0-1.2","SS1627326935617","","2486.5","trial","","40","500","2986.5","images/stimuli/complex_17_A_a.gif","images/stimuli/complex_14_A_b.gif","forced_short","310","","","","","","7","complex_dissimilar","images/stimuli/complex_14_A_b.gif","",""
"","html-keyboard-response","135","435062","0.0-32.0-0.3","SS1627326935617","","null","","","null","","","","","","","","","","","<p><img src= images/blank.png width =""600"" height = ""600"" style=""position:fixed;top:50%; left:50%; transform: translate(-50%, -50%); border:5px solid black"">","","","","",""
"","stimuli-presentation","136","439137","0.0-32.0-1.3","SS1627326935617","","3563.699999988079","trial","","40","500","4063.699999988079","images/stimuli/complex_17_A_a.gif","images/stimuli/complex_14_A_b.gif","forced_short","310","","","","","","7","complex_dissimilar","images/stimuli/complex_14_A_b.gif","",""
"","html-keyboard-response","137","440346","0.0-32.0-0.4","SS1627326935617","","null","","","null","","","","","","","","","","","<p><img src= images/blank.png width =""600"" height = ""600"" style=""position:fixed;top:50%; left:50%; transform: translate(-50%, -50%); border:5px solid black"">","","","","",""
"","stimuli-presentation","138","441131","0.0-32.0-1.4","SS1627326935617","","277.6000000089407","trial","","40","500","777.6000000089407","images/stimuli/complex_17_A_a.gif","images/stimuli/complex_14_A_b.gif","forced_short","310","","","","","","7","complex_dissimilar","images/stimuli/complex_14_A_b.gif","",""
"","html-keyboard-response","139","442151","0.0-32.0-0.5","SS1627326935617","","null","","","null","","","","","","","","","","","<p><img src= images/blank.png width =""600"" height = ""600"" style=""position:fixed;top:50%; left:50%; transform: translate(-50%, -50%); border:5px solid black"">","","","","",""
"","stimuli-presentation","140","443150","0.0-32.0-1.5","SS1627326935617","","487.8999999910593","trial","","40","500","987.8999999910593","images/stimuli/complex_17_A_a.gif","images/stimuli/complex_14_A_b.gif","forced_short","310","","","","","","7","complex_dissimilar","images/stimuli/complex_14_A_b.gif","",""
"","survey-multi-choice","141","446099","0.0-33.0","SS1627326935617","","2943.5","memory_test","","","","","","","","","{""Q0"":""Yes""}","[0]","images/stimuli/complex_14_A_b.gif","7","","","","","",""
"","survey-multi-choice","142","448616","0.0-34.0","SS1627326935617","","2509.6000000089407","memory_test","","","","","","","","","{""Q0"":""No""}","[0]","images/stimuli/complex_18_A_b.gif","7","","","","","",""
"","instructions","143","454199","0.0-35.0","SS1627326935617","[{""page_index"":0,""viewing_time"":5575.5}]","5576.0999999940395","instructions","","","","","","","","","","","","","","","","","",""
"","survey-likert","144","462736","0.0-36.0","SS1627326935617","","8527.59999999404","similarity_question","","","","","","","","","{""Q0"":1}","[0]","","","","","","","images/stimuli/complex_16_A_a.gif","images/stimuli/complex_05_A_a.gif"
"","survey-likert","145","472867","0.0-37.0","SS1627326935617","","10123","similarity_question","","","","","","","","","{""Q0"":4}","[0]","","","","","","","images/stimuli/complex_06_A_b.gif","images/stimuli/complex_19_A_a.gif"
"","survey-likert","146","480960","0.0-38.0","SS1627326935617","","8084.5","similarity_question","","","","","","","","","{""Q0"":0}","[0]","","","","","","","images/stimuli/complex_12_A_b.gif","images/stimuli/complex_23_A_b.gif"
"","survey-likert","147","496540","0.0-39.0","SS1627326935617","","15571","similarity_question","","","","","","","","","{""Q0"":4}","[0]","","","","","","","images/stimuli/complex_13_A_b.gif","images/stimuli/complex_10_A_b.gif"
"","survey-likert","148","514467","0.0-40.0","SS1627326935617","","17918.59999999404","similarity_question","","","","","","","","","{""Q0"":0}","[0]","","","","","","","images/stimuli/complex_03_A_b.gif","images/stimuli/complex_21_A_a.gif"
"","survey-likert","149","522732","0.0-41.0","SS1627326935617","","8255.59999999404","similarity_question","","","","","","","","","{""Q0"":0}","[0]","","","","","","","images/stimuli/complex_14_A_b.gif","images/stimuli/complex_17_A_a.gif"
"","survey-likert","150","531007","0.0-42.0","SS1627326935617","","8265.60000000894","similarity_question","","","","","","","","","{""Q0"":4}","[0]","","","","","","","images/stimuli/complex_01_A_b.gif","images/stimuli/complex_09_A_a.gif"
"","survey-likert","151","535947","0.0-43.0","SS1627326935617","","4932.100000008941","similarity_question","","","","","","","","","{""Q0"":0}","[0]","","","","","","","images/stimuli/complex_11_A_a.gif","images/stimuli/complex_24_A_b.gif"
"","instructions","152","543043","0.0-44.0","SS1627326935617","[{""page_index"":0,""viewing_time"":7090.20000000298}]","7090.899999991059","instructions","","","","","","","","","","","","","","","","","",""
"","survey-likert","153","589505","0.0-45.0","SS1627326935617","","46453.60000000894","","","","","","","","","","{""Q0"":4}","[0]","","","images/stimuli/complex_21_A_a.gif","","","","",""
"","survey-likert","154","596363","0.0-46.0","SS1627326935617","","6848.79999999702","","","","","","","","","","{""Q0"":2}","[0]","","","images/stimuli/complex_09_A_a.gif","","","","",""
"","survey-likert","155","600612","0.0-47.0","SS1627326935617","","4240.70000000298","","","","","","","","","","{""Q0"":4}","[0]","","","images/stimuli/complex_19_A_a.gif","","","","",""
"","survey-likert","156","606589","0.0-48.0","SS1627326935617","","5968.600000008941","","","","","","","","","","{""Q0"":2}","[0]","","","images/stimuli/complex_17_A_a.gif","","","","",""
"","survey-likert","157","613356","0.0-49.0","SS1627326935617","","6758","","","","","","","","","","{""Q0"":5}","[0]","","","images/stimuli/complex_11_A_a.gif","","","","",""
"","survey-likert","158","622272","0.0-50.0","SS1627326935617","","8908.79999999702","","","","","","","","","","{""Q0"":5}","[0]","","","images/stimuli/complex_05_A_a.gif","","","","",""
"","survey-likert","159","625801","0.0-51.0","SS1627326935617","","3519.800000011921","","","","","","","","","","{""Q0"":4}","[0]","","","images/stimuli/complex_10_A_b.gif","","","","",""
"","survey-likert","160","629129","0.0-52.0","SS1627326935617","","3322","","","","","","","","","","{""Q0"":6}","[0]","","","images/stimuli/complex_12_A_b.gif","","","","",""
"true","fullscreen","161","630139","0.0-53.0","SS1627326935617","","","","","","","","","","","","","","","","","","","","",""
"","instructions","162","632257","0.0-54.0","SS1627326935617","[{""page_index"":0,""viewing_time"":2112.5999999940395}]","2113.0999999940395","instructions","","","","","","","","","","","","","","","","","",""
"","demog-age","163","635162","0.0-55.0","SS1627326935617","","2894.7000000029802","","","","","","","","","","{""age"":""21""}","","","","","","","","",""
"","demog-ethnic-US","164","641517","0.0-56.0","SS1627326935617","","6340.899999991059","","","","","","","","","","{""ethnicity"":[""White""]}","[0]","","","","","","","",""
"","demog-gender-and-education","165","663657","0.0-57.0","SS1627326935617","","22131.10000000894","","","","","","","","","","{""gender"":""Female"",""education"":""High school diploma""}","[0,1]","","","","","","","",""
"","survey-text","166","678228","0.0-58.0","SS1627326935617","","14561.10000000894","feedback","","","","","","","","","{""Q0"":""no issues""}","","","","","","","","",""
"","instructions","167","684607","0.0-59.0","SS1627326935617","[{""page_index"":0,""viewing_time"":6371.0999999940395}]","6371.79999999702","instructions","","","","","","","","","","","","","","","","","",""
