"success","trial_type","trial_index","time_elapsed","internal_node_id","subject","view_history","rt","stimulus_type","trial_stimulus","key_press","minimum_viewing_duration","trial_looking_time","block_deviant","block_background","exposure_type","forced_exposure_time","responses","question_order","memory_question_stimuli","memory_block_index","stimulus","block_number","block_type","stimulus_displayed","stimulus_left","stimulus_right"
"true","fullscreen","0","8269","0.0-0.0","SS1627326901725","","","","","","","","","","","","","","","","","","","","",""
"","instructions","1","45751","0.0-1.0","SS1627326901725","[{""page_index"":0,""viewing_time"":37473}]","37473","","","","","","","","","","","","","","","","","","",""
"","instructions","2","82930","0.0-2.0","SS1627326901725","[{""page_index"":0,""viewing_time"":23984},{""page_index"":1,""viewing_time"":11190}]","35174","instructions","","","","","","","","","","","","","","","","","",""
"","stimuli-presentation","3","101901","0.0-3.0","SS1627326901725","","18465","","","40","500","18965","null","null","self_paced","0","","","","","","","","","",""
"","instructions","4","140138","0.0-4.0","SS1627326901725","[{""page_index"":0,""viewing_time"":38235}]","38235","instructions","","","","","","","","","","","","","","","","","",""
"","stimuli-presentation","5","187524","0.0-5.0","SS1627326901725","","46880","","","40","500","47380","null","null","forced_short","500","","","","","","","","","",""
"","stimuli-presentation","6","189157","0.0-6.0","SS1627326901725","","1127","","","40","500","1627","null","null","forced_short","500","","","","","","","","","",""
"","instructions","7","206591","0.0-7.0","SS1627326901725","[{""page_index"":0,""viewing_time"":17432}]","17432","instructions","","","","","","","","","","","","","","","","","",""
"","survey-multi-choice","8","215788","0.0-8.0","SS1627326901725","","9195","memory_test_practice","","","","","","","","","{""Q0"":""Yes""}","[0]","images/practice/instructions_example_spore2.gif","0","","","","","",""
"","survey-multi-choice","9","220335","0.0-9.0","SS1627326901725","","4542","memory_test_practice","","","","","","","","","{""Q0"":""No""}","[0]","images/practice/instructions_example_spore0.gif","0","","","","","",""
"","instructions","10","244031","0.0-10.0","SS1627326901725","[{""page_index"":0,""viewing_time"":21352},{""page_index"":1,""viewing_time"":2342}]","23694","instructions","","","","","","","","","","","","","","","","","",""
"","html-keyboard-response","11","245072","0.0-11.0-0.0","SS1627326901725","","null","","","null","","","","","","","","","","","<p><img src= images/blank.png width =""600"" height = ""600"" style=""position:fixed;top:50%; left:50%; transform: translate(-50%, -50%); border:5px solid black"">","","","","",""
"","stimuli-presentation","12","249398","0.0-11.0-1.0","SS1627326901725","","3998","trial","","40","500","4498","images/stimuli/complex_09_A_b.gif","images/stimuli/complex_08_A_a.gif","forced_short","310","","","","","","0","complex_dissimilar","images/stimuli/complex_08_A_a.gif","",""
"","html-keyboard-response","13","250396","0.0-11.0-0.1","SS1627326901725","","null","","","null","","","","","","","","","","","<p><img src= images/blank.png width =""600"" height = ""600"" style=""position:fixed;top:50%; left:50%; transform: translate(-50%, -50%); border:5px solid black"">","","","","",""
"","stimuli-presentation","14","286580","0.0-11.0-1.1","SS1627326901725","","35674","trial","","40","500","36174","images/stimuli/complex_09_A_b.gif","images/stimuli/complex_08_A_a.gif","forced_short","310","","","","","","0","complex_dissimilar","images/stimuli/complex_08_A_a.gif","",""
"","html-keyboard-response","15","287814","0.0-11.0-0.2","SS1627326901725","","null","","","null","","","","","","","","","","","<p><img src= images/blank.png width =""600"" height = ""600"" style=""position:fixed;top:50%; left:50%; transform: translate(-50%, -50%); border:5px solid black"">","","","","",""
"","stimuli-presentation","16","294425","0.0-11.0-1.2","SS1627326901725","","6100","trial","","40","500","6600","images/stimuli/complex_09_A_b.gif","images/stimuli/complex_08_A_a.gif","forced_short","310","","","","","","0","complex_dissimilar","images/stimuli/complex_08_A_a.gif","",""
"","html-keyboard-response","17","295659","0.0-11.0-0.3","SS1627326901725","","null","","","null","","","","","","","","","","","<p><img src= images/blank.png width =""600"" height = ""600"" style=""position:fixed;top:50%; left:50%; transform: translate(-50%, -50%); border:5px solid black"">","","","","",""
"","stimuli-presentation","18","307451","0.0-11.0-1.3","SS1627326901725","","11285","trial","","40","500","11785","images/stimuli/complex_09_A_b.gif","images/stimuli/complex_08_A_a.gif","forced_short","310","","","","","","0","complex_dissimilar","images/stimuli/complex_09_A_b.gif","",""
"","html-keyboard-response","19","308725","0.0-11.0-0.4","SS1627326901725","","null","","","null","","","","","","","","","","","<p><img src= images/blank.png width =""600"" height = ""600"" style=""position:fixed;top:50%; left:50%; transform: translate(-50%, -50%); border:5px solid black"">","","","","",""
"","stimuli-presentation","20","323115","0.0-11.0-1.4","SS1627326901725","","13881","trial","","40","500","14381","images/stimuli/complex_09_A_b.gif","images/stimuli/complex_08_A_a.gif","forced_short","310","","","","","","0","complex_dissimilar","images/stimuli/complex_08_A_a.gif","",""
"","html-keyboard-response","21","324077","0.0-11.0-0.5","SS1627326901725","","null","","","null","","","","","","","","","","","<p><img src= images/blank.png width =""600"" height = ""600"" style=""position:fixed;top:50%; left:50%; transform: translate(-50%, -50%); border:5px solid black"">","","","","",""
"","stimuli-presentation","22","330147","0.0-11.0-1.5","SS1627326901725","","5564","trial","","40","500","6064","images/stimuli/complex_09_A_b.gif","images/stimuli/complex_08_A_a.gif","forced_short","310","","","","","","0","complex_dissimilar","images/stimuli/complex_08_A_a.gif","",""
"","html-keyboard-response","23","330999","0.0-11.0-0.6","SS1627326901725","","null","","","null","","","","","","","","","","","<p><img src= images/blank.png width =""600"" height = ""600"" style=""position:fixed;top:50%; left:50%; transform: translate(-50%, -50%); border:5px solid black"">","","","","",""
"","stimuli-presentation","24","340899","0.0-11.0-1.6","SS1627326901725","","9385","trial","","40","500","9885","images/stimuli/complex_09_A_b.gif","images/stimuli/complex_08_A_a.gif","forced_short","310","","","","","","0","complex_dissimilar","images/stimuli/complex_08_A_a.gif","",""
"","survey-multi-choice","25","345282","0.0-12.0","SS1627326901725","","4380","memory_test","","","","","","","","","{""Q0"":""Yes""}","[0]","images/stimuli/complex_08_A_a.gif","0","","","","","",""
"","survey-multi-choice","26","350722","0.0-13.0","SS1627326901725","","5436","memory_test","","","","","","","","","{""Q0"":""No""}","[0]","images/stimuli/complex_16_A_a.gif","0","","","","","",""
"","html-keyboard-response","27","351801","0.0-14.0-0.0","SS1627326901725","","null","","","null","","","","","","","","","","","<p><img src= images/blank.png width =""600"" height = ""600"" style=""position:fixed;top:50%; left:50%; transform: translate(-50%, -50%); border:5px solid black"">","","","","",""
"","stimuli-presentation","28","357054","0.0-14.0-1.0","SS1627326901725","","4617","trial","","40","500","5117","images/stimuli/complex_20_A_b.gif","images/stimuli/complex_06_A_a.gif","forced_short","620","","","","","","1","complex_dissimilar","images/stimuli/complex_06_A_a.gif","",""
"","html-keyboard-response","29","358297","0.0-14.0-0.1","SS1627326901725","","null","","","null","","","","","","","","","","","<p><img src= images/blank.png width =""600"" height = ""600"" style=""position:fixed;top:50%; left:50%; transform: translate(-50%, -50%); border:5px solid black"">","","","","",""
"","stimuli-presentation","30","365631","0.0-14.0-1.1","SS1627326901725","","6823","trial","","40","500","7323","images/stimuli/complex_20_A_b.gif","images/stimuli/complex_06_A_a.gif","forced_short","620","","","","","","1","complex_dissimilar","images/stimuli/complex_06_A_a.gif","",""
"","html-keyboard-response","31","366635","0.0-14.0-0.2","SS1627326901725","","null","","","null","","","","","","","","","","","<p><img src= images/blank.png width =""600"" height = ""600"" style=""position:fixed;top:50%; left:50%; transform: translate(-50%, -50%); border:5px solid black"">","","","","",""
"","stimuli-presentation","32","373166","0.0-14.0-1.2","SS1627326901725","","6019","trial","","40","500","6519","images/stimuli/complex_20_A_b.gif","images/stimuli/complex_06_A_a.gif","forced_short","620","","","","","","1","complex_dissimilar","images/stimuli/complex_06_A_a.gif","",""
"","html-keyboard-response","33","374383","0.0-14.0-0.3","SS1627326901725","","null","","","null","","","","","","","","","","","<p><img src= images/blank.png width =""600"" height = ""600"" style=""position:fixed;top:50%; left:50%; transform: translate(-50%, -50%); border:5px solid black"">","","","","",""
"","stimuli-presentation","34","375548","0.0-14.0-1.3","SS1627326901725","","656","trial","","40","500","1156","images/stimuli/complex_20_A_b.gif","images/stimuli/complex_06_A_a.gif","forced_short","620","","","","","","1","complex_dissimilar","images/stimuli/complex_06_A_a.gif","",""
"","html-keyboard-response","35","376538","0.0-14.0-0.4","SS1627326901725","","null","","","null","","","","","","","","","","","<p><img src= images/blank.png width =""600"" height = ""600"" style=""position:fixed;top:50%; left:50%; transform: translate(-50%, -50%); border:5px solid black"">","","","","",""
"","stimuli-presentation","36","383019","0.0-14.0-1.4","SS1627326901725","","5966","trial","","40","500","6466","images/stimuli/complex_20_A_b.gif","images/stimuli/complex_06_A_a.gif","forced_short","620","","","","","","1","complex_dissimilar","images/stimuli/complex_20_A_b.gif","",""
"","html-keyboard-response","37","383942","0.0-14.0-0.5","SS1627326901725","","null","","","null","","","","","","","","","","","<p><img src= images/blank.png width =""600"" height = ""600"" style=""position:fixed;top:50%; left:50%; transform: translate(-50%, -50%); border:5px solid black"">","","","","",""
"","stimuli-presentation","38","389801","0.0-14.0-1.5","SS1627326901725","","5347","trial","","40","500","5847","images/stimuli/complex_20_A_b.gif","images/stimuli/complex_06_A_a.gif","forced_short","620","","","","","","1","complex_dissimilar","images/stimuli/complex_06_A_a.gif","",""
"","html-keyboard-response","39","390859","0.0-14.0-0.6","SS1627326901725","","null","","","null","","","","","","","","","","","<p><img src= images/blank.png width =""600"" height = ""600"" style=""position:fixed;top:50%; left:50%; transform: translate(-50%, -50%); border:5px solid black"">","","","","",""
"","stimuli-presentation","40","392064","0.0-14.0-1.6","SS1627326901725","","691","trial","","40","500","1191","images/stimuli/complex_20_A_b.gif","images/stimuli/complex_06_A_a.gif","forced_short","620","","","","","","1","complex_dissimilar","images/stimuli/complex_06_A_a.gif","",""
"","html-keyboard-response","41","393361","0.0-14.0-0.7","SS1627326901725","","null","","","null","","","","","","","","","","","<p><img src= images/blank.png width =""600"" height = ""600"" style=""position:fixed;top:50%; left:50%; transform: translate(-50%, -50%); border:5px solid black"">","","","","",""
"","stimuli-presentation","42","395710","0.0-14.0-1.7","SS1627326901725","","1835","trial","","40","500","2335","images/stimuli/complex_20_A_b.gif","images/stimuli/complex_06_A_a.gif","forced_short","620","","","","","","1","complex_dissimilar","images/stimuli/complex_20_A_b.gif","",""
"","survey-multi-choice","43","401207","0.0-15.0","SS1627326901725","","5490","memory_test","","","","","","","","","{""Q0"":""No""}","[0]","images/stimuli/complex_22_A_b.gif","1","","","","","",""
"","survey-multi-choice","44","406584","0.0-16.0","SS1627326901725","","5374","memory_test","","","","","","","","","{""Q0"":""Yes""}","[0]","images/stimuli/complex_06_A_a.gif","1","","","","","",""
"","html-keyboard-response","45","407564","0.0-17.0-0.0","SS1627326901725","","null","","","null","","","","","","","","","","","<p><img src= images/blank.png width =""600"" height = ""600"" style=""position:fixed;top:50%; left:50%; transform: translate(-50%, -50%); border:5px solid black"">","","","","",""
"","stimuli-presentation","46","411976","0.0-17.0-1.0","SS1627326901725","","3419","trial","","40","500","3919","images/stimuli/complex_14_A_b.gif","images/stimuli/complex_23_A_b.gif","forced_short","980","","","","","","2","complex_dissimilar","images/stimuli/complex_23_A_b.gif","",""
"","html-keyboard-response","47","413081","0.0-17.0-0.1","SS1627326901725","","null","","","null","","","","","","","","","","","<p><img src= images/blank.png width =""600"" height = ""600"" style=""position:fixed;top:50%; left:50%; transform: translate(-50%, -50%); border:5px solid black"">","","","","",""
"","stimuli-presentation","48","418271","0.0-17.0-1.1","SS1627326901725","","4684","trial","","40","500","5184","images/stimuli/complex_14_A_b.gif","images/stimuli/complex_23_A_b.gif","forced_short","980","","","","","","2","complex_dissimilar","images/stimuli/complex_23_A_b.gif","",""
"","html-keyboard-response","49","419269","0.0-17.0-0.2","SS1627326901725","","null","","","null","","","","","","","","","","","<p><img src= images/blank.png width =""600"" height = ""600"" style=""position:fixed;top:50%; left:50%; transform: translate(-50%, -50%); border:5px solid black"">","","","","",""
"","stimuli-presentation","50","426645","0.0-17.0-1.2","SS1627326901725","","6871","trial","","40","500","7371","images/stimuli/complex_14_A_b.gif","images/stimuli/complex_23_A_b.gif","forced_short","980","","","","","","2","complex_dissimilar","images/stimuli/complex_23_A_b.gif","",""
"","html-keyboard-response","51","427746","0.0-17.0-0.3","SS1627326901725","","null","","","null","","","","","","","","","","","<p><img src= images/blank.png width =""600"" height = ""600"" style=""position:fixed;top:50%; left:50%; transform: translate(-50%, -50%); border:5px solid black"">","","","","",""
"","stimuli-presentation","52","428651","0.0-17.0-1.3","SS1627326901725","","387","trial","","40","500","887","images/stimuli/complex_14_A_b.gif","images/stimuli/complex_23_A_b.gif","forced_short","980","","","","","","2","complex_dissimilar","images/stimuli/complex_23_A_b.gif","",""
"","html-keyboard-response","53","429536","0.0-17.0-0.4","SS1627326901725","","null","","","null","","","","","","","","","","","<p><img src= images/blank.png width =""600"" height = ""600"" style=""position:fixed;top:50%; left:50%; transform: translate(-50%, -50%); border:5px solid black"">","","","","",""
"","stimuli-presentation","54","430392","0.0-17.0-1.4","SS1627326901725","","354","trial","","40","500","854","images/stimuli/complex_14_A_b.gif","images/stimuli/complex_23_A_b.gif","forced_short","980","","","","","","2","complex_dissimilar","images/stimuli/complex_23_A_b.gif","",""
"","html-keyboard-response","55","431249","0.0-17.0-0.5","SS1627326901725","","null","","","null","","","","","","","","","","","<p><img src= images/blank.png width =""600"" height = ""600"" style=""position:fixed;top:50%; left:50%; transform: translate(-50%, -50%); border:5px solid black"">","","","","",""
"","stimuli-presentation","56","433663","0.0-17.0-1.5","SS1627326901725","","1896","trial","","40","500","2396","images/stimuli/complex_14_A_b.gif","images/stimuli/complex_23_A_b.gif","forced_short","980","","","","","","2","complex_dissimilar","images/stimuli/complex_14_A_b.gif","",""
"","html-keyboard-response","57","434609","0.0-17.0-0.6","SS1627326901725","","null","","","null","","","","","","","","","","","<p><img src= images/blank.png width =""600"" height = ""600"" style=""position:fixed;top:50%; left:50%; transform: translate(-50%, -50%); border:5px solid black"">","","","","",""
"","stimuli-presentation","58","435245","0.0-17.0-1.6","SS1627326901725","","133","trial","","40","500","633","images/stimuli/complex_14_A_b.gif","images/stimuli/complex_23_A_b.gif","forced_short","980","","","","","","2","complex_dissimilar","images/stimuli/complex_23_A_b.gif","",""
"","html-keyboard-response","59","436055","0.0-17.0-0.7","SS1627326901725","","null","","","null","","","","","","","","","","","<p><img src= images/blank.png width =""600"" height = ""600"" style=""position:fixed;top:50%; left:50%; transform: translate(-50%, -50%); border:5px solid black"">","","","","",""
"","stimuli-presentation","60","436796","0.0-17.0-1.7","SS1627326901725","","236","trial","","40","500","736","images/stimuli/complex_14_A_b.gif","images/stimuli/complex_23_A_b.gif","forced_short","980","","","","","","2","complex_dissimilar","images/stimuli/complex_23_A_b.gif","",""
"","survey-multi-choice","61","440133","0.0-18.0","SS1627326901725","","3334","memory_test","","","","","","","","","{""Q0"":""Yes""}","[0]","images/stimuli/complex_23_A_b.gif","2","","","","","",""
"","survey-multi-choice","62","444929","0.0-19.0","SS1627326901725","","4792","memory_test","","","","","","","","","{""Q0"":""No""}","[0]","images/stimuli/complex_03_A_b.gif","2","","","","","",""
"","html-keyboard-response","63","445942","0.0-20.0-0.0","SS1627326901725","","null","","","null","","","","","","","","","","","<p><img src= images/blank.png width =""600"" height = ""600"" style=""position:fixed;top:50%; left:50%; transform: translate(-50%, -50%); border:5px solid black"">","","","","",""
"","stimuli-presentation","64","448042","0.0-20.0-1.0","SS1627326901725","","1378","trial","","40","500","1878","images/stimuli/complex_19_A_b.gif","images/stimuli/complex_07_A_a.gif","forced_short","710","","","","","","3","complex_dissimilar","images/stimuli/complex_07_A_a.gif","",""
"","html-keyboard-response","65","449036","0.0-20.0-0.1","SS1627326901725","","null","","","null","","","","","","","","","","","<p><img src= images/blank.png width =""600"" height = ""600"" style=""position:fixed;top:50%; left:50%; transform: translate(-50%, -50%); border:5px solid black"">","","","","",""
"","stimuli-presentation","66","451056","0.0-20.0-1.1","SS1627326901725","","1512","trial","","40","500","2012","images/stimuli/complex_19_A_b.gif","images/stimuli/complex_07_A_a.gif","forced_short","710","","","","","","3","complex_dissimilar","images/stimuli/complex_07_A_a.gif","",""
"","html-keyboard-response","67","452007","0.0-20.0-0.2","SS1627326901725","","null","","","null","","","","","","","","","","","<p><img src= images/blank.png width =""600"" height = ""600"" style=""position:fixed;top:50%; left:50%; transform: translate(-50%, -50%); border:5px solid black"">","","","","",""
"","stimuli-presentation","68","457159","0.0-20.0-1.2","SS1627326901725","","4635","trial","","40","500","5135","images/stimuli/complex_19_A_b.gif","images/stimuli/complex_07_A_a.gif","forced_short","710","","","","","","3","complex_dissimilar","images/stimuli/complex_19_A_b.gif","",""
"","html-keyboard-response","69","458282","0.0-20.0-0.3","SS1627326901725","","null","","","null","","","","","","","","","","","<p><img src= images/blank.png width =""600"" height = ""600"" style=""position:fixed;top:50%; left:50%; transform: translate(-50%, -50%); border:5px solid black"">","","","","",""
"","stimuli-presentation","70","459261","0.0-20.0-1.3","SS1627326901725","","461","trial","","40","500","961","images/stimuli/complex_19_A_b.gif","images/stimuli/complex_07_A_a.gif","forced_short","710","","","","","","3","complex_dissimilar","images/stimuli/complex_07_A_a.gif","",""
"","html-keyboard-response","71","460367","0.0-20.0-0.4","SS1627326901725","","null","","","null","","","","","","","","","","","<p><img src= images/blank.png width =""600"" height = ""600"" style=""position:fixed;top:50%; left:50%; transform: translate(-50%, -50%); border:5px solid black"">","","","","",""
"","stimuli-presentation","72","461290","0.0-20.0-1.4","SS1627326901725","","417","trial","","40","500","917","images/stimuli/complex_19_A_b.gif","images/stimuli/complex_07_A_a.gif","forced_short","710","","","","","","3","complex_dissimilar","images/stimuli/complex_19_A_b.gif","",""
"","html-keyboard-response","73","462242","0.0-20.0-0.5","SS1627326901725","","null","","","null","","","","","","","","","","","<p><img src= images/blank.png width =""600"" height = ""600"" style=""position:fixed;top:50%; left:50%; transform: translate(-50%, -50%); border:5px solid black"">","","","","",""
"","stimuli-presentation","74","462993","0.0-20.0-1.5","SS1627326901725","","232","trial","","40","500","732","images/stimuli/complex_19_A_b.gif","images/stimuli/complex_07_A_a.gif","forced_short","710","","","","","","3","complex_dissimilar","images/stimuli/complex_07_A_a.gif","",""
"","html-keyboard-response","75","464203","0.0-20.0-0.6","SS1627326901725","","null","","","null","","","","","","","","","","","<p><img src= images/blank.png width =""600"" height = ""600"" style=""position:fixed;top:50%; left:50%; transform: translate(-50%, -50%); border:5px solid black"">","","","","",""
"","stimuli-presentation","76","464735","0.0-20.0-1.6","SS1627326901725","","19","trial","","40","500","519","images/stimuli/complex_19_A_b.gif","images/stimuli/complex_07_A_a.gif","forced_short","710","","","","","","3","complex_dissimilar","images/stimuli/complex_07_A_a.gif","",""
"","survey-multi-choice","77","469146","0.0-21.0","SS1627326901725","","4410","memory_test","","","","","","","","","{""Q0"":""No""}","[0]","images/stimuli/complex_11_A_a.gif","3","","","","","",""
"","survey-multi-choice","78","472956","0.0-22.0","SS1627326901725","","3804","memory_test","","","","","","","","","{""Q0"":""Yes""}","[0]","images/stimuli/complex_07_A_a.gif","3","","","","","",""
"","html-keyboard-response","79","474174","0.0-23.0-0.0","SS1627326901725","","null","","","null","","","","","","","","","","","<p><img src= images/blank.png width =""600"" height = ""600"" style=""position:fixed;top:50%; left:50%; transform: translate(-50%, -50%); border:5px solid black"">","","","","",""
"","stimuli-presentation","80","476952","0.0-23.0-1.0","SS1627326901725","","2514","trial","","40","500","3014","images/stimuli/complex_05_A_b.gif","images/stimuli/complex_17_A_a.gif","forced_short","250","","","","","","4","complex_dissimilar","images/stimuli/complex_17_A_a.gif","",""
"","html-keyboard-response","81","477792","0.0-23.0-0.1","SS1627326901725","","null","","","null","","","","","","","","","","","<p><img src= images/blank.png width =""600"" height = ""600"" style=""position:fixed;top:50%; left:50%; transform: translate(-50%, -50%); border:5px solid black"">","","","","",""
"","stimuli-presentation","82","481404","0.0-23.0-1.1","SS1627326901725","","3090","trial","","40","500","3590","images/stimuli/complex_05_A_b.gif","images/stimuli/complex_17_A_a.gif","forced_short","250","","","","","","4","complex_dissimilar","images/stimuli/complex_17_A_a.gif","",""
"","html-keyboard-response","83","482417","0.0-23.0-0.2","SS1627326901725","","null","","","null","","","","","","","","","","","<p><img src= images/blank.png width =""600"" height = ""600"" style=""position:fixed;top:50%; left:50%; transform: translate(-50%, -50%); border:5px solid black"">","","","","",""
"","stimuli-presentation","84","483700","0.0-23.0-1.2","SS1627326901725","","770","trial","","40","500","1270","images/stimuli/complex_05_A_b.gif","images/stimuli/complex_17_A_a.gif","forced_short","250","","","","","","4","complex_dissimilar","images/stimuli/complex_17_A_a.gif","",""
"","html-keyboard-response","85","484549","0.0-23.0-0.3","SS1627326901725","","null","","","null","","","","","","","","","","","<p><img src= images/blank.png width =""600"" height = ""600"" style=""position:fixed;top:50%; left:50%; transform: translate(-50%, -50%); border:5px solid black"">","","","","",""
"","stimuli-presentation","86","486034","0.0-23.0-1.3","SS1627326901725","","978","trial","","40","500","1478","images/stimuli/complex_05_A_b.gif","images/stimuli/complex_17_A_a.gif","forced_short","250","","","","","","4","complex_dissimilar","images/stimuli/complex_05_A_b.gif","",""
"","html-keyboard-response","87","487219","0.0-23.0-0.4","SS1627326901725","","null","","","null","","","","","","","","","","","<p><img src= images/blank.png width =""600"" height = ""600"" style=""position:fixed;top:50%; left:50%; transform: translate(-50%, -50%); border:5px solid black"">","","","","",""
"","stimuli-presentation","88","487870","0.0-23.0-1.4","SS1627326901725","","135","trial","","40","500","635","images/stimuli/complex_05_A_b.gif","images/stimuli/complex_17_A_a.gif","forced_short","250","","","","","","4","complex_dissimilar","images/stimuli/complex_17_A_a.gif","",""
"","html-keyboard-response","89","488814","0.0-23.0-0.5","SS1627326901725","","null","","","null","","","","","","","","","","","<p><img src= images/blank.png width =""600"" height = ""600"" style=""position:fixed;top:50%; left:50%; transform: translate(-50%, -50%); border:5px solid black"">","","","","",""
"","stimuli-presentation","90","489508","0.0-23.0-1.5","SS1627326901725","","177","trial","","40","500","677","images/stimuli/complex_05_A_b.gif","images/stimuli/complex_17_A_a.gif","forced_short","250","","","","","","4","complex_dissimilar","images/stimuli/complex_17_A_a.gif","",""
"","survey-multi-choice","91","492970","0.0-24.0","SS1627326901725","","3456","memory_test","","","","","","","","","{""Q0"":""Yes""}","[0]","images/stimuli/complex_17_A_a.gif","4","","","","","",""
"","survey-multi-choice","92","497263","0.0-25.0","SS1627326901725","","4287","memory_test","","","","","","","","","{""Q0"":""No""}","[0]","images/stimuli/complex_04_A_a.gif","4","","","","","",""
"","html-keyboard-response","93","498453","0.0-26.0-0.0","SS1627326901725","","null","","","null","","","","","","","","","","","<p><img src= images/blank.png width =""600"" height = ""600"" style=""position:fixed;top:50%; left:50%; transform: translate(-50%, -50%); border:5px solid black"">","","","","",""
"","stimuli-presentation","94","504051","0.0-26.0-1.0","SS1627326901725","","4621","trial","","40","500","5121","images/stimuli/complex_10_A_b.gif","images/stimuli/complex_24_A_b.gif","forced_short","970","","","","","","5","complex_dissimilar","images/stimuli/complex_24_A_b.gif","",""
"","html-keyboard-response","95","504874","0.0-26.0-0.1","SS1627326901725","","null","","","null","","","","","","","","","","","<p><img src= images/blank.png width =""600"" height = ""600"" style=""position:fixed;top:50%; left:50%; transform: translate(-50%, -50%); border:5px solid black"">","","","","",""
"","stimuli-presentation","96","505418","0.0-26.0-1.1","SS1627326901725","","31","trial","","40","500","531","images/stimuli/complex_10_A_b.gif","images/stimuli/complex_24_A_b.gif","forced_short","970","","","","","","5","complex_dissimilar","images/stimuli/complex_24_A_b.gif","",""
"","html-keyboard-response","97","506283","0.0-26.0-0.2","SS1627326901725","","null","","","null","","","","","","","","","","","<p><img src= images/blank.png width =""600"" height = ""600"" style=""position:fixed;top:50%; left:50%; transform: translate(-50%, -50%); border:5px solid black"">","","","","",""
"","stimuli-presentation","98","506888","0.0-26.0-1.2","SS1627326901725","","97","trial","","40","500","597","images/stimuli/complex_10_A_b.gif","images/stimuli/complex_24_A_b.gif","forced_short","970","","","","","","5","complex_dissimilar","images/stimuli/complex_24_A_b.gif","",""
"","html-keyboard-response","99","507810","0.0-26.0-0.3","SS1627326901725","","null","","","null","","","","","","","","","","","<p><img src= images/blank.png width =""600"" height = ""600"" style=""position:fixed;top:50%; left:50%; transform: translate(-50%, -50%); border:5px solid black"">","","","","",""
"","stimuli-presentation","100","508350","0.0-26.0-1.3","SS1627326901725","","31","trial","","40","500","531","images/stimuli/complex_10_A_b.gif","images/stimuli/complex_24_A_b.gif","forced_short","970","","","","","","5","complex_dissimilar","images/stimuli/complex_24_A_b.gif","",""
"","html-keyboard-response","101","509234","0.0-26.0-0.4","SS1627326901725","","null","","","null","","","","","","","","","","","<p><img src= images/blank.png width =""600"" height = ""600"" style=""position:fixed;top:50%; left:50%; transform: translate(-50%, -50%); border:5px solid black"">","","","","",""
"","stimuli-presentation","102","511835","0.0-26.0-1.4","SS1627326901725","","2090","trial","","40","500","2590","images/stimuli/complex_10_A_b.gif","images/stimuli/complex_24_A_b.gif","forced_short","970","","","","","","5","complex_dissimilar","images/stimuli/complex_24_A_b.gif","",""
"","html-keyboard-response","103","512840","0.0-26.0-0.5","SS1627326901725","","null","","","null","","","","","","","","","","","<p><img src= images/blank.png width =""600"" height = ""600"" style=""position:fixed;top:50%; left:50%; transform: translate(-50%, -50%); border:5px solid black"">","","","","",""
"","stimuli-presentation","104","513409","0.0-26.0-1.5","SS1627326901725","","56","trial","","40","500","556","images/stimuli/complex_10_A_b.gif","images/stimuli/complex_24_A_b.gif","forced_short","970","","","","","","5","complex_dissimilar","images/stimuli/complex_24_A_b.gif","",""
"","html-keyboard-response","105","514567","0.0-26.0-0.6","SS1627326901725","","null","","","null","","","","","","","","","","","<p><img src= images/blank.png width =""600"" height = ""600"" style=""position:fixed;top:50%; left:50%; transform: translate(-50%, -50%); border:5px solid black"">","","","","",""
"","stimuli-presentation","106","516150","0.0-26.0-1.6","SS1627326901725","","1073","trial","","40","500","1573","images/stimuli/complex_10_A_b.gif","images/stimuli/complex_24_A_b.gif","forced_short","970","","","","","","5","complex_dissimilar","images/stimuli/complex_24_A_b.gif","",""
"","survey-multi-choice","107","520090","0.0-27.0","SS1627326901725","","3930","memory_test","","","","","","","","","{""Q0"":""Yes""}","[0]","images/stimuli/complex_24_A_b.gif","5","","","","","",""
"","survey-multi-choice","108","523245","0.0-28.0","SS1627326901725","","3151","memory_test","","","","","","","","","{""Q0"":""No""}","[0]","images/stimuli/complex_15_A_b.gif","5","","","","","",""
"","html-keyboard-response","109","524196","0.0-29.0-0.0","SS1627326901725","","null","","","null","","","","","","","","","","","<p><img src= images/blank.png width =""600"" height = ""600"" style=""position:fixed;top:50%; left:50%; transform: translate(-50%, -50%); border:5px solid black"">","","","","",""
"","stimuli-presentation","110","525589","0.0-29.0-1.0","SS1627326901725","","1052","trial","","40","500","1552","images/stimuli/complex_21_A_a.gif","images/stimuli/complex_13_A_b.gif","forced_short","330","","","","","","6","complex_dissimilar","images/stimuli/complex_13_A_b.gif","",""
"","html-keyboard-response","111","526534","0.0-29.0-0.1","SS1627326901725","","null","","","null","","","","","","","","","","","<p><img src= images/blank.png width =""600"" height = ""600"" style=""position:fixed;top:50%; left:50%; transform: translate(-50%, -50%); border:5px solid black"">","","","","",""
"","stimuli-presentation","112","527292","0.0-29.0-1.1","SS1627326901725","","245","trial","","40","500","745","images/stimuli/complex_21_A_a.gif","images/stimuli/complex_13_A_b.gif","forced_short","330","","","","","","6","complex_dissimilar","images/stimuli/complex_13_A_b.gif","",""
"","html-keyboard-response","113","528144","0.0-29.0-0.2","SS1627326901725","","null","","","null","","","","","","","","","","","<p><img src= images/blank.png width =""600"" height = ""600"" style=""position:fixed;top:50%; left:50%; transform: translate(-50%, -50%); border:5px solid black"">","","","","",""
"","stimuli-presentation","114","528739","0.0-29.0-1.2","SS1627326901725","","82","trial","","40","500","582","images/stimuli/complex_21_A_a.gif","images/stimuli/complex_13_A_b.gif","forced_short","330","","","","","","6","complex_dissimilar","images/stimuli/complex_13_A_b.gif","",""
"","html-keyboard-response","115","529912","0.0-29.0-0.3","SS1627326901725","","null","","","null","","","","","","","","","","","<p><img src= images/blank.png width =""600"" height = ""600"" style=""position:fixed;top:50%; left:50%; transform: translate(-50%, -50%); border:5px solid black"">","","","","",""
"","stimuli-presentation","116","532005","0.0-29.0-1.3","SS1627326901725","","1583","trial","","40","500","2083","images/stimuli/complex_21_A_a.gif","images/stimuli/complex_13_A_b.gif","forced_short","330","","","","","","6","complex_dissimilar","images/stimuli/complex_13_A_b.gif","",""
"","html-keyboard-response","117","533155","0.0-29.0-0.4","SS1627326901725","","null","","","null","","","","","","","","","","","<p><img src= images/blank.png width =""600"" height = ""600"" style=""position:fixed;top:50%; left:50%; transform: translate(-50%, -50%); border:5px solid black"">","","","","",""
"","stimuli-presentation","118","535394","0.0-29.0-1.4","SS1627326901725","","1719","trial","","40","500","2219","images/stimuli/complex_21_A_a.gif","images/stimuli/complex_13_A_b.gif","forced_short","330","","","","","","6","complex_dissimilar","images/stimuli/complex_13_A_b.gif","",""
"","html-keyboard-response","119","536433","0.0-29.0-0.5","SS1627326901725","","null","","","null","","","","","","","","","","","<p><img src= images/blank.png width =""600"" height = ""600"" style=""position:fixed;top:50%; left:50%; transform: translate(-50%, -50%); border:5px solid black"">","","","","",""
"","stimuli-presentation","120","538000","0.0-29.0-1.5","SS1627326901725","","1047","trial","","40","500","1547","images/stimuli/complex_21_A_a.gif","images/stimuli/complex_13_A_b.gif","forced_short","330","","","","","","6","complex_dissimilar","images/stimuli/complex_13_A_b.gif","",""
"","html-keyboard-response","121","539024","0.0-29.0-0.6","SS1627326901725","","null","","","null","","","","","","","","","","","<p><img src= images/blank.png width =""600"" height = ""600"" style=""position:fixed;top:50%; left:50%; transform: translate(-50%, -50%); border:5px solid black"">","","","","",""
"","stimuli-presentation","122","541534","0.0-29.0-1.6","SS1627326901725","","2002","trial","","40","500","2502","images/stimuli/complex_21_A_a.gif","images/stimuli/complex_13_A_b.gif","forced_short","330","","","","","","6","complex_dissimilar","images/stimuli/complex_13_A_b.gif","",""
"","html-keyboard-response","123","542819","0.0-29.0-0.7","SS1627326901725","","null","","","null","","","","","","","","","","","<p><img src= images/blank.png width =""600"" height = ""600"" style=""position:fixed;top:50%; left:50%; transform: translate(-50%, -50%); border:5px solid black"">","","","","",""
"","stimuli-presentation","124","545845","0.0-29.0-1.7","SS1627326901725","","2510","trial","","40","500","3010","images/stimuli/complex_21_A_a.gif","images/stimuli/complex_13_A_b.gif","forced_short","330","","","","","","6","complex_dissimilar","images/stimuli/complex_13_A_b.gif","",""
"","survey-multi-choice","125","550179","0.0-30.0","SS1627326901725","","4331","memory_test","","","","","","","","","{""Q0"":""Yes""}","[0]","images/stimuli/complex_13_A_b.gif","6","","","","","",""
"","survey-multi-choice","126","557170","0.0-31.0","SS1627326901725","","6984","memory_test","","","","","","","","","{""Q0"":""No""}","[0]","images/stimuli/complex_18_A_b.gif","6","","","","","",""
"","html-keyboard-response","127","558363","0.0-32.0-0.0","SS1627326901725","","null","","","null","","","","","","","","","","","<p><img src= images/blank.png width =""600"" height = ""600"" style=""position:fixed;top:50%; left:50%; transform: translate(-50%, -50%); border:5px solid black"">","","","","",""
"","stimuli-presentation","128","560435","0.0-32.0-1.0","SS1627326901725","","1913","trial","","40","500","2413","images/stimuli/complex_01_A_a.gif","images/stimuli/complex_02_A_a.gif","forced_short","140","","","","","","7","complex_dissimilar","images/stimuli/complex_02_A_a.gif","",""
"","html-keyboard-response","129","561537","0.0-32.0-0.1","SS1627326901725","","null","","","null","","","","","","","","","","","<p><img src= images/blank.png width =""600"" height = ""600"" style=""position:fixed;top:50%; left:50%; transform: translate(-50%, -50%); border:5px solid black"">","","","","",""
"","stimuli-presentation","130","563361","0.0-32.0-1.1","SS1627326901725","","1304","trial","","40","500","1804","images/stimuli/complex_01_A_a.gif","images/stimuli/complex_02_A_a.gif","forced_short","140","","","","","","7","complex_dissimilar","images/stimuli/complex_02_A_a.gif","",""
"","html-keyboard-response","131","564450","0.0-32.0-0.2","SS1627326901725","","null","","","null","","","","","","","","","","","<p><img src= images/blank.png width =""600"" height = ""600"" style=""position:fixed;top:50%; left:50%; transform: translate(-50%, -50%); border:5px solid black"">","","","","",""
"","stimuli-presentation","132","566132","0.0-32.0-1.2","SS1627326901725","","1176","trial","","40","500","1676","images/stimuli/complex_01_A_a.gif","images/stimuli/complex_02_A_a.gif","forced_short","140","","","","","","7","complex_dissimilar","images/stimuli/complex_02_A_a.gif","",""
"","html-keyboard-response","133","566958","0.0-32.0-0.3","SS1627326901725","","null","","","null","","","","","","","","","","","<p><img src= images/blank.png width =""600"" height = ""600"" style=""position:fixed;top:50%; left:50%; transform: translate(-50%, -50%); border:5px solid black"">","","","","",""
"","stimuli-presentation","134","567659","0.0-32.0-1.3","SS1627326901725","","193","trial","","40","500","693","images/stimuli/complex_01_A_a.gif","images/stimuli/complex_02_A_a.gif","forced_short","140","","","","","","7","complex_dissimilar","images/stimuli/complex_02_A_a.gif","",""
"","html-keyboard-response","135","568792","0.0-32.0-0.4","SS1627326901725","","null","","","null","","","","","","","","","","","<p><img src= images/blank.png width =""600"" height = ""600"" style=""position:fixed;top:50%; left:50%; transform: translate(-50%, -50%); border:5px solid black"">","","","","",""
"","stimuli-presentation","136","570288","0.0-32.0-1.4","SS1627326901725","","984","trial","","40","500","1484","images/stimuli/complex_01_A_a.gif","images/stimuli/complex_02_A_a.gif","forced_short","140","","","","","","7","complex_dissimilar","images/stimuli/complex_01_A_a.gif","",""
"","html-keyboard-response","137","571118","0.0-32.0-0.5","SS1627326901725","","null","","","null","","","","","","","","","","","<p><img src= images/blank.png width =""600"" height = ""600"" style=""position:fixed;top:50%; left:50%; transform: translate(-50%, -50%); border:5px solid black"">","","","","",""
"","stimuli-presentation","138","571710","0.0-32.0-1.5","SS1627326901725","","77","trial","","40","500","577","images/stimuli/complex_01_A_a.gif","images/stimuli/complex_02_A_a.gif","forced_short","140","","","","","","7","complex_dissimilar","images/stimuli/complex_01_A_a.gif","",""
"","survey-multi-choice","139","575519","0.0-33.0","SS1627326901725","","3805","memory_test","","","","","","","","","{""Q0"":""Yes""}","[0]","images/stimuli/complex_02_A_a.gif","7","","","","","",""
"","survey-multi-choice","140","580551","0.0-34.0","SS1627326901725","","5027","memory_test","","","","","","","","","{""Q0"":""No""}","[0]","images/stimuli/complex_12_A_b.gif","7","","","","","",""
"","instructions","141","588655","0.0-35.0","SS1627326901725","[{""page_index"":0,""viewing_time"":8100}]","8100","instructions","","","","","","","","","","","","","","","","","",""
"","survey-likert","142","644835","0.0-36.0","SS1627326901725","","56172","similarity_question","","","","","","","","","{""Q0"":2}","[0]","","","","","","","images/stimuli/complex_01_A_a.gif","images/stimuli/complex_02_A_a.gif"
"","survey-likert","143","658504","0.0-37.0","SS1627326901725","","13664","similarity_question","","","","","","","","","{""Q0"":2}","[0]","","","","","","","images/stimuli/complex_24_A_b.gif","images/stimuli/complex_10_A_b.gif"
"","survey-likert","144","663770","0.0-38.0","SS1627326901725","","5260","similarity_question","","","","","","","","","{""Q0"":2}","[0]","","","","","","","images/stimuli/complex_08_A_a.gif","images/stimuli/complex_09_A_b.gif"
"","survey-likert","145","671196","0.0-39.0","SS1627326901725","","7420","similarity_question","","","","","","","","","{""Q0"":2}","[0]","","","","","","","images/stimuli/complex_07_A_a.gif","images/stimuli/complex_19_A_b.gif"
"","survey-likert","146","676425","0.0-40.0","SS1627326901725","","5222","similarity_question","","","","","","","","","{""Q0"":2}","[0]","","","","","","","images/stimuli/complex_13_A_b.gif","images/stimuli/complex_21_A_a.gif"
"","survey-likert","147","681384","0.0-41.0","SS1627326901725","","4952","similarity_question","","","","","","","","","{""Q0"":2}","[0]","","","","","","","images/stimuli/complex_17_A_a.gif","images/stimuli/complex_05_A_b.gif"
"","survey-likert","148","688157","0.0-42.0","SS1627326901725","","6765","similarity_question","","","","","","","","","{""Q0"":2}","[0]","","","","","","","images/stimuli/complex_23_A_b.gif","images/stimuli/complex_14_A_b.gif"
"","survey-likert","149","691611","0.0-43.0","SS1627326901725","","3449","similarity_question","","","","","","","","","{""Q0"":2}","[0]","","","","","","","images/stimuli/complex_06_A_a.gif","images/stimuli/complex_20_A_b.gif"
"","instructions","150","700837","0.0-44.0","SS1627326901725","[{""page_index"":0,""viewing_time"":9222}]","9222","instructions","","","","","","","","","","","","","","","","","",""
"","survey-likert","151","717257","0.0-45.0","SS1627326901725","","16415","","","","","","","","","","{""Q0"":2}","[0]","","","images/stimuli/complex_08_A_a.gif","","","","",""
"","survey-likert","152","733023","0.0-46.0","SS1627326901725","","15761","","","","","","","","","","{""Q0"":4}","[0]","","","images/stimuli/complex_20_A_b.gif","","","","",""
"","survey-likert","153","745512","0.0-47.0","SS1627326901725","","12480","","","","","","","","","","{""Q0"":2}","[0]","","","images/stimuli/complex_19_A_b.gif","","","","",""
"","survey-likert","154","765631","0.0-48.0","SS1627326901725","","20114","","","","","","","","","","{""Q0"":2}","[0]","","","images/stimuli/complex_13_A_b.gif","","","","",""
"","survey-likert","155","785742","0.0-49.0","SS1627326901725","","20103","","","","","","","","","","{""Q0"":2}","[0]","","","images/stimuli/complex_05_A_b.gif","","","","",""
"","survey-likert","156","789789","0.0-50.0","SS1627326901725","","4040","","","","","","","","","","{""Q0"":4}","[0]","","","images/stimuli/complex_10_A_b.gif","","","","",""
"","survey-likert","157","795069","0.0-51.0","SS1627326901725","","5275","","","","","","","","","","{""Q0"":2}","[0]","","","images/stimuli/complex_01_A_a.gif","","","","",""
"","survey-likert","158","799734","0.0-52.0","SS1627326901725","","4659","","","","","","","","","","{""Q0"":4}","[0]","","","images/stimuli/complex_14_A_b.gif","","","","",""
"true","fullscreen","159","800743","0.0-53.0","SS1627326901725","","","","","","","","","","","","","","","","","","","","",""
"","instructions","160","805249","0.0-54.0","SS1627326901725","[{""page_index"":0,""viewing_time"":4503}]","4503","instructions","","","","","","","","","","","","","","","","","",""
"","demog-age","161","810926","0.0-55.0","SS1627326901725","","5670","","","","","","","","","","{""age"":""50""}","","","","","","","","",""
"","demog-ethnic-US","162","815294","0.0-56.0","SS1627326901725","","4358","","","","","","","","","","{""ethnicity"":[""Other""]}","[0]","","","","","","","",""
"","demog-gender-and-education","163","832826","0.0-57.0","SS1627326901725","","17526","","","","","","","","","","{""gender"":""Decline to Answer"",""education"":""Master's Degree""}","[0,1]","","","","","","","",""
"","survey-text","164","843126","0.0-58.0","SS1627326901725","","10291","feedback","","","","","","","","","{""Q0"":""No""}","","","","","","","","",""
"","instructions","165","848171","0.0-59.0","SS1627326901725","[{""page_index"":0,""viewing_time"":5039}]","5039","instructions","","","","","","","","","","","","","","","","","",""
