"success","trial_type","trial_index","time_elapsed","internal_node_id","subject","view_history","rt","stimulus_type","trial_stimulus","key_press","minimum_viewing_duration","trial_looking_time","block_deviant","block_background","exposure_type","forced_exposure_time","responses","question_order","memory_question_stimuli","memory_block_index","stimulus","block_number","block_type","stimulus_displayed","stimulus_left","stimulus_right"
"true","fullscreen","0","4770","0.0-0.0","SS1627327142652","","","","","","","","","","","","","","","","","","","","",""
"","instructions","1","20647","0.0-1.0","SS1627327142652","[{""page_index"":0,""viewing_time"":15855.400000000023}]","15858.400000000023","","","","","","","","","","","","","","","","","","",""
"","instructions","2","39837","0.0-2.0","SS1627327142652","[{""page_index"":0,""viewing_time"":13256.899999999965},{""page_index"":1,""viewing_time"":3910.7000000000116}]","17168.79999999999","instructions","","","","","","","","","","","","","","","","","",""
"","stimuli-presentation","3","53548","0.0-3.0","SS1627327142652","","13202","","","40","500","13702","null","null","self_paced","0","","","","","","","","","",""
"","instructions","4","65833","0.0-4.0","SS1627327142652","[{""page_index"":0,""viewing_time"":12280.900000000023}]","12281.5","instructions","","","","","","","","","","","","","","","","","",""
"","stimuli-presentation","5","83436","0.0-5.0","SS1627327142652","","17090.29999999999","","","40","500","17590.29999999999","null","null","forced_short","500","","","","","","","","","",""
"","stimuli-presentation","6","87449","0.0-6.0","SS1627327142652","","3507.899999999965","","","40","500","4007.899999999965","null","null","forced_short","500","","","","","","","","","",""
"","instructions","7","91284","0.0-7.0","SS1627327142652","[{""page_index"":0,""viewing_time"":3830.9000000000233}]","3832.2000000000116","instructions","","","","","","","","","","","","","","","","","",""
"","survey-multi-choice","8","95617","0.0-8.0","SS1627327142652","","4315.799999999988","memory_test_practice","","","","","","","","","{""Q0"":""Yes""}","[0]","images/practice/instructions_example_spore2.gif","0","","","","","",""
"","survey-multi-choice","9","101251","0.0-9.0","SS1627327142652","","5626","memory_test_practice","","","","","","","","","{""Q0"":""No""}","[0]","images/practice/instructions_example_spore0.gif","0","","","","","",""
"","instructions","10","111174","0.0-10.0","SS1627327142652","[{""page_index"":0,""viewing_time"":7894.200000000012},{""page_index"":1,""viewing_time"":2023.2000000000116}]","9918","instructions","","","","","","","","","","","","","","","","","",""
"","html-keyboard-response","11","112427","0.0-11.0-0.0","SS1627327142652","","null","","","null","","","","","","","","","","","<p><img src= images/blank.png width =""600"" height = ""600"" style=""position:fixed;top:50%; left:50%; transform: translate(-50%, -50%); border:5px solid black"">","","","","",""
"","stimuli-presentation","12","114614","0.0-11.0-1.0","SS1627327142652","","2061.7999999999884","trial","","40","500","2561.7999999999884","images/stimuli/complex_16_A_a.gif","images/stimuli/complex_18_A_b.gif","forced_short","80","","","","","","0","complex_dissimilar","images/stimuli/complex_18_A_b.gif","",""
"","html-keyboard-response","13","115889","0.0-11.0-0.1","SS1627327142652","","null","","","null","","","","","","","","","","","<p><img src= images/blank.png width =""600"" height = ""600"" style=""position:fixed;top:50%; left:50%; transform: translate(-50%, -50%); border:5px solid black"">","","","","",""
"","stimuli-presentation","14","189551","0.0-11.0-1.1","SS1627327142652","","73149.5","trial","","40","500","73649.5","images/stimuli/complex_16_A_a.gif","images/stimuli/complex_18_A_b.gif","forced_short","80","","","","","","0","complex_dissimilar","images/stimuli/complex_18_A_b.gif","",""
"","html-keyboard-response","15","190608","0.0-11.0-0.2","SS1627327142652","","null","","","null","","","","","","","","","","","<p><img src= images/blank.png width =""600"" height = ""600"" style=""position:fixed;top:50%; left:50%; transform: translate(-50%, -50%); border:5px solid black"">","","","","",""
"","stimuli-presentation","16","193098","0.0-11.0-1.2","SS1627327142652","","1964.600000000035","trial","","40","500","2464.600000000035","images/stimuli/complex_16_A_a.gif","images/stimuli/complex_18_A_b.gif","forced_short","80","","","","","","0","complex_dissimilar","images/stimuli/complex_18_A_b.gif","",""
"","html-keyboard-response","17","194128","0.0-11.0-0.3","SS1627327142652","","null","","","null","","","","","","","","","","","<p><img src= images/blank.png width =""600"" height = ""600"" style=""position:fixed;top:50%; left:50%; transform: translate(-50%, -50%); border:5px solid black"">","","","","",""
"","stimuli-presentation","18","195016","0.0-11.0-1.3","SS1627327142652","","380.0999999999767","trial","","40","500","880.0999999999767","images/stimuli/complex_16_A_a.gif","images/stimuli/complex_18_A_b.gif","forced_short","80","","","","","","0","complex_dissimilar","images/stimuli/complex_18_A_b.gif","",""
"","html-keyboard-response","19","195849","0.0-11.0-0.4","SS1627327142652","","null","","","null","","","","","","","","","","","<p><img src= images/blank.png width =""600"" height = ""600"" style=""position:fixed;top:50%; left:50%; transform: translate(-50%, -50%); border:5px solid black"">","","","","",""
"","stimuli-presentation","20","201835","0.0-11.0-1.4","SS1627327142652","","5452.099999999977","trial","","40","500","5952.099999999977","images/stimuli/complex_16_A_a.gif","images/stimuli/complex_18_A_b.gif","forced_short","80","","","","","","0","complex_dissimilar","images/stimuli/complex_16_A_a.gif","",""
"","html-keyboard-response","21","203009","0.0-11.0-0.5","SS1627327142652","","null","","","null","","","","","","","","","","","<p><img src= images/blank.png width =""600"" height = ""600"" style=""position:fixed;top:50%; left:50%; transform: translate(-50%, -50%); border:5px solid black"">","","","","",""
"","stimuli-presentation","22","203779","0.0-11.0-1.5","SS1627327142652","","250.20000000006985","trial","","40","500","750.2000000000698","images/stimuli/complex_16_A_a.gif","images/stimuli/complex_18_A_b.gif","forced_short","80","","","","","","0","complex_dissimilar","images/stimuli/complex_18_A_b.gif","",""
"","html-keyboard-response","23","204844","0.0-11.0-0.6","SS1627327142652","","null","","","null","","","","","","","","","","","<p><img src= images/blank.png width =""600"" height = ""600"" style=""position:fixed;top:50%; left:50%; transform: translate(-50%, -50%); border:5px solid black"">","","","","",""
"","stimuli-presentation","24","209665","0.0-11.0-1.6","SS1627327142652","","4298","trial","","40","500","4798","images/stimuli/complex_16_A_a.gif","images/stimuli/complex_18_A_b.gif","forced_short","80","","","","","","0","complex_dissimilar","images/stimuli/complex_18_A_b.gif","",""
"","survey-multi-choice","25","213910","0.0-12.0","SS1627327142652","","4237.70000000007","memory_test","","","","","","","","","{""Q0"":""Yes""}","[0]","images/stimuli/complex_18_A_b.gif","0","","","","","",""
"","survey-multi-choice","26","217556","0.0-13.0","SS1627327142652","","3638","memory_test","","","","","","","","","{""Q0"":""No""}","[0]","images/stimuli/complex_21_A_a.gif","0","","","","","",""
"","html-keyboard-response","27","218470","0.0-14.0-0.0","SS1627327142652","","null","","","null","","","","","","","","","","","<p><img src= images/blank.png width =""600"" height = ""600"" style=""position:fixed;top:50%; left:50%; transform: translate(-50%, -50%); border:5px solid black"">","","","","",""
"","stimuli-presentation","28","221535","0.0-14.0-1.0","SS1627327142652","","2450.0999999999767","trial","","40","500","2950.0999999999767","images/stimuli/complex_19_A_b.gif","images/stimuli/complex_06_A_a.gif","forced_short","590","","","","","","1","complex_dissimilar","images/stimuli/complex_06_A_a.gif","",""
"","html-keyboard-response","29","222510","0.0-14.0-0.1","SS1627327142652","","null","","","null","","","","","","","","","","","<p><img src= images/blank.png width =""600"" height = ""600"" style=""position:fixed;top:50%; left:50%; transform: translate(-50%, -50%); border:5px solid black"">","","","","",""
"","stimuli-presentation","30","224013","0.0-14.0-1.1","SS1627327142652","","989.0999999999767","trial","","40","500","1489.0999999999767","images/stimuli/complex_19_A_b.gif","images/stimuli/complex_06_A_a.gif","forced_short","590","","","","","","1","complex_dissimilar","images/stimuli/complex_19_A_b.gif","",""
"","html-keyboard-response","31","224919","0.0-14.0-0.2","SS1627327142652","","null","","","null","","","","","","","","","","","<p><img src= images/blank.png width =""600"" height = ""600"" style=""position:fixed;top:50%; left:50%; transform: translate(-50%, -50%); border:5px solid black"">","","","","",""
"","stimuli-presentation","32","226779","0.0-14.0-1.2","SS1627327142652","","1347.7000000000698","trial","","40","500","1847.7000000000698","images/stimuli/complex_19_A_b.gif","images/stimuli/complex_06_A_a.gif","forced_short","590","","","","","","1","complex_dissimilar","images/stimuli/complex_06_A_a.gif","",""
"","html-keyboard-response","33","228101","0.0-14.0-0.3","SS1627327142652","","null","","","null","","","","","","","","","","","<p><img src= images/blank.png width =""600"" height = ""600"" style=""position:fixed;top:50%; left:50%; transform: translate(-50%, -50%); border:5px solid black"">","","","","",""
"","stimuli-presentation","34","228781","0.0-14.0-1.3","SS1627327142652","","167.40000000002328","trial","","40","500","667.4000000000233","images/stimuli/complex_19_A_b.gif","images/stimuli/complex_06_A_a.gif","forced_short","590","","","","","","1","complex_dissimilar","images/stimuli/complex_06_A_a.gif","",""
"","html-keyboard-response","35","229939","0.0-14.0-0.4","SS1627327142652","","null","","","null","","","","","","","","","","","<p><img src= images/blank.png width =""600"" height = ""600"" style=""position:fixed;top:50%; left:50%; transform: translate(-50%, -50%); border:5px solid black"">","","","","",""
"","stimuli-presentation","36","231203","0.0-14.0-1.4","SS1627327142652","","751.6000000000931","trial","","40","500","1251.6000000000931","images/stimuli/complex_19_A_b.gif","images/stimuli/complex_06_A_a.gif","forced_short","590","","","","","","1","complex_dissimilar","images/stimuli/complex_06_A_a.gif","",""
"","html-keyboard-response","37","232411","0.0-14.0-0.5","SS1627327142652","","null","","","null","","","","","","","","","","","<p><img src= images/blank.png width =""600"" height = ""600"" style=""position:fixed;top:50%; left:50%; transform: translate(-50%, -50%); border:5px solid black"">","","","","",""
"","stimuli-presentation","38","233574","0.0-14.0-1.5","SS1627327142652","","645.4000000000233","trial","","40","500","1145.4000000000233","images/stimuli/complex_19_A_b.gif","images/stimuli/complex_06_A_a.gif","forced_short","590","","","","","","1","complex_dissimilar","images/stimuli/complex_19_A_b.gif","",""
"","html-keyboard-response","39","234633","0.0-14.0-0.6","SS1627327142652","","null","","","null","","","","","","","","","","","<p><img src= images/blank.png width =""600"" height = ""600"" style=""position:fixed;top:50%; left:50%; transform: translate(-50%, -50%); border:5px solid black"">","","","","",""
"","stimuli-presentation","40","235855","0.0-14.0-1.6","SS1627327142652","","702.4000000000233","trial","","40","500","1202.4000000000233","images/stimuli/complex_19_A_b.gif","images/stimuli/complex_06_A_a.gif","forced_short","590","","","","","","1","complex_dissimilar","images/stimuli/complex_06_A_a.gif","",""
"","survey-multi-choice","41","239975","0.0-15.0","SS1627327142652","","4109.599999999977","memory_test","","","","","","","","","{""Q0"":""No""}","[0]","images/stimuli/complex_20_A_a.gif","1","","","","","",""
"","survey-multi-choice","42","243333","0.0-16.0","SS1627327142652","","3341.6999999999534","memory_test","","","","","","","","","{""Q0"":""Yes""}","[0]","images/stimuli/complex_06_A_a.gif","1","","","","","",""
"","html-keyboard-response","43","244221","0.0-17.0-0.0","SS1627327142652","","null","","","null","","","","","","","","","","","<p><img src= images/blank.png width =""600"" height = ""600"" style=""position:fixed;top:50%; left:50%; transform: translate(-50%, -50%); border:5px solid black"">","","","","",""
"","stimuli-presentation","44","247322","0.0-17.0-1.0","SS1627327142652","","2172.0999999999767","trial","","40","500","2672.0999999999767","images/stimuli/complex_05_A_b.gif","images/stimuli/complex_14_A_b.gif","forced_short","920","","","","","","2","complex_dissimilar","images/stimuli/complex_14_A_b.gif","",""
"","html-keyboard-response","45","248515","0.0-17.0-0.1","SS1627327142652","","null","","","null","","","","","","","","","","","<p><img src= images/blank.png width =""600"" height = ""600"" style=""position:fixed;top:50%; left:50%; transform: translate(-50%, -50%); border:5px solid black"">","","","","",""
"","stimuli-presentation","46","249630","0.0-17.0-1.1","SS1627327142652","","607","trial","","40","500","1107","images/stimuli/complex_05_A_b.gif","images/stimuli/complex_14_A_b.gif","forced_short","920","","","","","","2","complex_dissimilar","images/stimuli/complex_14_A_b.gif","",""
"","html-keyboard-response","47","250720","0.0-17.0-0.2","SS1627327142652","","null","","","null","","","","","","","","","","","<p><img src= images/blank.png width =""600"" height = ""600"" style=""position:fixed;top:50%; left:50%; transform: translate(-50%, -50%); border:5px solid black"">","","","","",""
"","stimuli-presentation","48","252286","0.0-17.0-1.2","SS1627327142652","","1051.6000000000931","trial","","40","500","1551.6000000000931","images/stimuli/complex_05_A_b.gif","images/stimuli/complex_14_A_b.gif","forced_short","920","","","","","","2","complex_dissimilar","images/stimuli/complex_14_A_b.gif","",""
"","html-keyboard-response","49","253539","0.0-17.0-0.3","SS1627327142652","","null","","","null","","","","","","","","","","","<p><img src= images/blank.png width =""600"" height = ""600"" style=""position:fixed;top:50%; left:50%; transform: translate(-50%, -50%); border:5px solid black"">","","","","",""
"","stimuli-presentation","50","254557","0.0-17.0-1.3","SS1627327142652","","491.29999999993015","trial","","40","500","991.2999999999302","images/stimuli/complex_05_A_b.gif","images/stimuli/complex_14_A_b.gif","forced_short","920","","","","","","2","complex_dissimilar","images/stimuli/complex_14_A_b.gif","",""
"","html-keyboard-response","51","255633","0.0-17.0-0.4","SS1627327142652","","null","","","null","","","","","","","","","","","<p><img src= images/blank.png width =""600"" height = ""600"" style=""position:fixed;top:50%; left:50%; transform: translate(-50%, -50%); border:5px solid black"">","","","","",""
"","stimuli-presentation","52","256618","0.0-17.0-1.4","SS1627327142652","","463","trial","","40","500","963","images/stimuli/complex_05_A_b.gif","images/stimuli/complex_14_A_b.gif","forced_short","920","","","","","","2","complex_dissimilar","images/stimuli/complex_14_A_b.gif","",""
"","html-keyboard-response","53","257750","0.0-17.0-0.5","SS1627327142652","","null","","","null","","","","","","","","","","","<p><img src= images/blank.png width =""600"" height = ""600"" style=""position:fixed;top:50%; left:50%; transform: translate(-50%, -50%); border:5px solid black"">","","","","",""
"","stimuli-presentation","54","261047","0.0-17.0-1.5","SS1627327142652","","2770.0999999999767","trial","","40","500","3270.0999999999767","images/stimuli/complex_05_A_b.gif","images/stimuli/complex_14_A_b.gif","forced_short","920","","","","","","2","complex_dissimilar","images/stimuli/complex_05_A_b.gif","",""
"","html-keyboard-response","55","262028","0.0-17.0-0.6","SS1627327142652","","null","","","null","","","","","","","","","","","<p><img src= images/blank.png width =""600"" height = ""600"" style=""position:fixed;top:50%; left:50%; transform: translate(-50%, -50%); border:5px solid black"">","","","","",""
"","stimuli-presentation","56","262783","0.0-17.0-1.6","SS1627327142652","","246.40000000002328","trial","","40","500","746.4000000000233","images/stimuli/complex_05_A_b.gif","images/stimuli/complex_14_A_b.gif","forced_short","920","","","","","","2","complex_dissimilar","images/stimuli/complex_14_A_b.gif","",""
"","html-keyboard-response","57","263920","0.0-17.0-0.7","SS1627327142652","","null","","","null","","","","","","","","","","","<p><img src= images/blank.png width =""600"" height = ""600"" style=""position:fixed;top:50%; left:50%; transform: translate(-50%, -50%); border:5px solid black"">","","","","",""
"","stimuli-presentation","58","264660","0.0-17.0-1.7","SS1627327142652","","232.5","trial","","40","500","732.5","images/stimuli/complex_05_A_b.gif","images/stimuli/complex_14_A_b.gif","forced_short","920","","","","","","2","complex_dissimilar","images/stimuli/complex_05_A_b.gif","",""
"","survey-multi-choice","59","268121","0.0-18.0","SS1627327142652","","3439.1999999999534","memory_test","","","","","","","","","{""Q0"":""Yes""}","[0]","images/stimuli/complex_14_A_b.gif","2","","","","","",""
"","survey-multi-choice","60","270898","0.0-19.0","SS1627327142652","","2766","memory_test","","","","","","","","","{""Q0"":""No""}","[0]","images/stimuli/complex_03_A_b.gif","2","","","","","",""
"","html-keyboard-response","61","272147","0.0-20.0-0.0","SS1627327142652","","null","","","null","","","","","","","","","","","<p><img src= images/blank.png width =""600"" height = ""600"" style=""position:fixed;top:50%; left:50%; transform: translate(-50%, -50%); border:5px solid black"">","","","","",""
"","stimuli-presentation","62","274436","0.0-20.0-1.0","SS1627327142652","","2093.9000000000233","trial","","40","500","2593.9000000000233","images/stimuli/complex_17_A_b.gif","images/stimuli/complex_04_A_a.gif","forced_short","180","","","","","","3","complex_dissimilar","images/stimuli/complex_04_A_a.gif","",""
"","html-keyboard-response","63","275416","0.0-20.0-0.1","SS1627327142652","","null","","","null","","","","","","","","","","","<p><img src= images/blank.png width =""600"" height = ""600"" style=""position:fixed;top:50%; left:50%; transform: translate(-50%, -50%); border:5px solid black"">","","","","",""
"","stimuli-presentation","64","279534","0.0-20.0-1.1","SS1627327142652","","3591.4000000000233","trial","","40","500","4091.4000000000233","images/stimuli/complex_17_A_b.gif","images/stimuli/complex_04_A_a.gif","forced_short","180","","","","","","3","complex_dissimilar","images/stimuli/complex_04_A_a.gif","",""
"","html-keyboard-response","65","280621","0.0-20.0-0.2","SS1627327142652","","null","","","null","","","","","","","","","","","<p><img src= images/blank.png width =""600"" height = ""600"" style=""position:fixed;top:50%; left:50%; transform: translate(-50%, -50%); border:5px solid black"">","","","","",""
"","stimuli-presentation","66","281408","0.0-20.0-1.2","SS1627327142652","","260.70000000006985","trial","","40","500","760.7000000000698","images/stimuli/complex_17_A_b.gif","images/stimuli/complex_04_A_a.gif","forced_short","180","","","","","","3","complex_dissimilar","images/stimuli/complex_04_A_a.gif","",""
"","html-keyboard-response","67","282304","0.0-20.0-0.3","SS1627327142652","","null","","","null","","","","","","","","","","","<p><img src= images/blank.png width =""600"" height = ""600"" style=""position:fixed;top:50%; left:50%; transform: translate(-50%, -50%); border:5px solid black"">","","","","",""
"","stimuli-presentation","68","283742","0.0-20.0-1.3","SS1627327142652","","928.9000000000233","trial","","40","500","1428.9000000000233","images/stimuli/complex_17_A_b.gif","images/stimuli/complex_04_A_a.gif","forced_short","180","","","","","","3","complex_dissimilar","images/stimuli/complex_04_A_a.gif","",""
"","html-keyboard-response","69","284609","0.0-20.0-0.4","SS1627327142652","","null","","","null","","","","","","","","","","","<p><img src= images/blank.png width =""600"" height = ""600"" style=""position:fixed;top:50%; left:50%; transform: translate(-50%, -50%); border:5px solid black"">","","","","",""
"","stimuli-presentation","70","286483","0.0-20.0-1.4","SS1627327142652","","1355.0999999999767","trial","","40","500","1855.0999999999767","images/stimuli/complex_17_A_b.gif","images/stimuli/complex_04_A_a.gif","forced_short","180","","","","","","3","complex_dissimilar","images/stimuli/complex_04_A_a.gif","",""
"","html-keyboard-response","71","287656","0.0-20.0-0.5","SS1627327142652","","null","","","null","","","","","","","","","","","<p><img src= images/blank.png width =""600"" height = ""600"" style=""position:fixed;top:50%; left:50%; transform: translate(-50%, -50%); border:5px solid black"">","","","","",""
"","stimuli-presentation","72","288702","0.0-20.0-1.5","SS1627327142652","","519.0999999999767","trial","","40","500","1019.0999999999767","images/stimuli/complex_17_A_b.gif","images/stimuli/complex_04_A_a.gif","forced_short","180","","","","","","3","complex_dissimilar","images/stimuli/complex_04_A_a.gif","",""
"","survey-multi-choice","73","293428","0.0-21.0","SS1627327142652","","4718.599999999977","memory_test","","","","","","","","","{""Q0"":""No""}","[0]","images/stimuli/complex_07_A_b.gif","3","","","","","",""
"","survey-multi-choice","74","296085","0.0-22.0","SS1627327142652","","2644.0999999999767","memory_test","","","","","","","","","{""Q0"":""Yes""}","[0]","images/stimuli/complex_04_A_a.gif","3","","","","","",""
"","html-keyboard-response","75","297145","0.0-23.0-0.0","SS1627327142652","","null","","","null","","","","","","","","","","","<p><img src= images/blank.png width =""600"" height = ""600"" style=""position:fixed;top:50%; left:50%; transform: translate(-50%, -50%); border:5px solid black"">","","","","",""
"","stimuli-presentation","76","299759","0.0-23.0-1.0","SS1627327142652","","2333.6999999999534","trial","","40","500","2833.6999999999534","images/stimuli/complex_24_A_a.gif","images/stimuli/complex_23_A_b.gif","forced_short","270","","","","","","4","complex_dissimilar","images/stimuli/complex_23_A_b.gif","",""
"","html-keyboard-response","77","300729","0.0-23.0-0.1","SS1627327142652","","null","","","null","","","","","","","","","","","<p><img src= images/blank.png width =""600"" height = ""600"" style=""position:fixed;top:50%; left:50%; transform: translate(-50%, -50%); border:5px solid black"">","","","","",""
"","stimuli-presentation","78","302120","0.0-23.0-1.1","SS1627327142652","","865.4000000000233","trial","","40","500","1365.4000000000233","images/stimuli/complex_24_A_a.gif","images/stimuli/complex_23_A_b.gif","forced_short","270","","","","","","4","complex_dissimilar","images/stimuli/complex_23_A_b.gif","",""
"","html-keyboard-response","79","303195","0.0-23.0-0.2","SS1627327142652","","null","","","null","","","","","","","","","","","<p><img src= images/blank.png width =""600"" height = ""600"" style=""position:fixed;top:50%; left:50%; transform: translate(-50%, -50%); border:5px solid black"">","","","","",""
"","stimuli-presentation","80","303835","0.0-23.0-1.2","SS1627327142652","","124.20000000006985","trial","","40","500","624.2000000000698","images/stimuli/complex_24_A_a.gif","images/stimuli/complex_23_A_b.gif","forced_short","270","","","","","","4","complex_dissimilar","images/stimuli/complex_23_A_b.gif","",""
"","html-keyboard-response","81","304897","0.0-23.0-0.3","SS1627327142652","","null","","","null","","","","","","","","","","","<p><img src= images/blank.png width =""600"" height = ""600"" style=""position:fixed;top:50%; left:50%; transform: translate(-50%, -50%); border:5px solid black"">","","","","",""
"","stimuli-presentation","82","307071","0.0-23.0-1.3","SS1627327142652","","1619.2000000000698","trial","","40","500","2119.20000000007","images/stimuli/complex_24_A_a.gif","images/stimuli/complex_23_A_b.gif","forced_short","270","","","","","","4","complex_dissimilar","images/stimuli/complex_23_A_b.gif","",""
"","html-keyboard-response","83","307894","0.0-23.0-0.4","SS1627327142652","","null","","","null","","","","","","","","","","","<p><img src= images/blank.png width =""600"" height = ""600"" style=""position:fixed;top:50%; left:50%; transform: translate(-50%, -50%); border:5px solid black"">","","","","",""
"","stimuli-presentation","84","308415","0.0-23.0-1.4","SS1627327142652","","2.400000000023283","trial","","40","500","502.4000000000233","images/stimuli/complex_24_A_a.gif","images/stimuli/complex_23_A_b.gif","forced_short","270","","","","","","4","complex_dissimilar","images/stimuli/complex_23_A_b.gif","",""
"","html-keyboard-response","85","309274","0.0-23.0-0.5","SS1627327142652","","null","","","null","","","","","","","","","","","<p><img src= images/blank.png width =""600"" height = ""600"" style=""position:fixed;top:50%; left:50%; transform: translate(-50%, -50%); border:5px solid black"">","","","","",""
"","stimuli-presentation","86","310652","0.0-23.0-1.5","SS1627327142652","","851.5","trial","","40","500","1351.5","images/stimuli/complex_24_A_a.gif","images/stimuli/complex_23_A_b.gif","forced_short","270","","","","","","4","complex_dissimilar","images/stimuli/complex_23_A_b.gif","",""
"","html-keyboard-response","87","311890","0.0-23.0-0.6","SS1627327142652","","null","","","null","","","","","","","","","","","<p><img src= images/blank.png width =""600"" height = ""600"" style=""position:fixed;top:50%; left:50%; transform: translate(-50%, -50%); border:5px solid black"">","","","","",""
"","stimuli-presentation","88","312918","0.0-23.0-1.6","SS1627327142652","","508.79999999993015","trial","","40","500","1008.7999999999302","images/stimuli/complex_24_A_a.gif","images/stimuli/complex_23_A_b.gif","forced_short","270","","","","","","4","complex_dissimilar","images/stimuli/complex_24_A_a.gif","",""
"","html-keyboard-response","89","314206","0.0-23.0-0.7","SS1627327142652","","null","","","null","","","","","","","","","","","<p><img src= images/blank.png width =""600"" height = ""600"" style=""position:fixed;top:50%; left:50%; transform: translate(-50%, -50%); border:5px solid black"">","","","","",""
"","stimuli-presentation","90","314794","0.0-23.0-1.7","SS1627327142652","","56.29999999993015","trial","","40","500","556.2999999999302","images/stimuli/complex_24_A_a.gif","images/stimuli/complex_23_A_b.gif","forced_short","270","","","","","","4","complex_dissimilar","images/stimuli/complex_24_A_a.gif","",""
"","survey-multi-choice","91","317904","0.0-24.0","SS1627327142652","","3083.20000000007","memory_test","","","","","","","","","{""Q0"":""Yes""}","[0]","images/stimuli/complex_24_A_a.gif","4","","","","","",""
"","survey-multi-choice","92","320811","0.0-25.0","SS1627327142652","","2892.1999999999534","memory_test","","","","","","","","","{""Q0"":""No""}","[0]","images/stimuli/complex_01_A_a.gif","4","","","","","",""
"","html-keyboard-response","93","322028","0.0-26.0-0.0","SS1627327142652","","null","","","null","","","","","","","","","","","<p><img src= images/blank.png width =""600"" height = ""600"" style=""position:fixed;top:50%; left:50%; transform: translate(-50%, -50%); border:5px solid black"">","","","","",""
"","stimuli-presentation","94","324410","0.0-26.0-1.0","SS1627327142652","","1712.0999999999767","trial","","40","500","2212.0999999999767","images/stimuli/complex_10_A_a.gif","images/stimuli/complex_11_A_b.gif","forced_short","660","","","","","","5","complex_dissimilar","images/stimuli/complex_11_A_b.gif","",""
"","html-keyboard-response","95","325263","0.0-26.0-0.1","SS1627327142652","","null","","","null","","","","","","","","","","","<p><img src= images/blank.png width =""600"" height = ""600"" style=""position:fixed;top:50%; left:50%; transform: translate(-50%, -50%); border:5px solid black"">","","","","",""
"","stimuli-presentation","96","326027","0.0-26.0-1.1","SS1627327142652","","232.20000000006985","trial","","40","500","732.2000000000698","images/stimuli/complex_10_A_a.gif","images/stimuli/complex_11_A_b.gif","forced_short","660","","","","","","5","complex_dissimilar","images/stimuli/complex_11_A_b.gif","",""
"","html-keyboard-response","97","327113","0.0-26.0-0.2","SS1627327142652","","null","","","null","","","","","","","","","","","<p><img src= images/blank.png width =""600"" height = ""600"" style=""position:fixed;top:50%; left:50%; transform: translate(-50%, -50%); border:5px solid black"">","","","","",""
"","stimuli-presentation","98","329199","0.0-26.0-1.2","SS1627327142652","","1543.8000000000466","trial","","40","500","2043.8000000000466","images/stimuli/complex_10_A_a.gif","images/stimuli/complex_11_A_b.gif","forced_short","660","","","","","","5","complex_dissimilar","images/stimuli/complex_11_A_b.gif","",""
"","html-keyboard-response","99","330315","0.0-26.0-0.3","SS1627327142652","","null","","","null","","","","","","","","","","","<p><img src= images/blank.png width =""600"" height = ""600"" style=""position:fixed;top:50%; left:50%; transform: translate(-50%, -50%); border:5px solid black"">","","","","",""
"","stimuli-presentation","100","331000","0.0-26.0-1.3","SS1627327142652","","163.30000000004657","trial","","40","500","663.3000000000466","images/stimuli/complex_10_A_a.gif","images/stimuli/complex_11_A_b.gif","forced_short","660","","","","","","5","complex_dissimilar","images/stimuli/complex_11_A_b.gif","",""
"","html-keyboard-response","101","332285","0.0-26.0-0.4","SS1627327142652","","null","","","null","","","","","","","","","","","<p><img src= images/blank.png width =""600"" height = ""600"" style=""position:fixed;top:50%; left:50%; transform: translate(-50%, -50%); border:5px solid black"">","","","","",""
"","stimuli-presentation","102","333262","0.0-26.0-1.4","SS1627327142652","","460.10000000009313","trial","","40","500","960.1000000000931","images/stimuli/complex_10_A_a.gif","images/stimuli/complex_11_A_b.gif","forced_short","660","","","","","","5","complex_dissimilar","images/stimuli/complex_11_A_b.gif","",""
"","html-keyboard-response","103","334395","0.0-26.0-0.5","SS1627327142652","","null","","","null","","","","","","","","","","","<p><img src= images/blank.png width =""600"" height = ""600"" style=""position:fixed;top:50%; left:50%; transform: translate(-50%, -50%); border:5px solid black"">","","","","",""
"","stimuli-presentation","104","335156","0.0-26.0-1.5","SS1627327142652","","228.10000000009313","trial","","40","500","728.1000000000931","images/stimuli/complex_10_A_a.gif","images/stimuli/complex_11_A_b.gif","forced_short","660","","","","","","5","complex_dissimilar","images/stimuli/complex_10_A_a.gif","",""
"","html-keyboard-response","105","336000","0.0-26.0-0.6","SS1627327142652","","null","","","null","","","","","","","","","","","<p><img src= images/blank.png width =""600"" height = ""600"" style=""position:fixed;top:50%; left:50%; transform: translate(-50%, -50%); border:5px solid black"">","","","","",""
"","stimuli-presentation","106","336792","0.0-26.0-1.6","SS1627327142652","","265.4000000000233","trial","","40","500","765.4000000000233","images/stimuli/complex_10_A_a.gif","images/stimuli/complex_11_A_b.gif","forced_short","660","","","","","","5","complex_dissimilar","images/stimuli/complex_11_A_b.gif","",""
"","html-keyboard-response","107","337892","0.0-26.0-0.7","SS1627327142652","","null","","","null","","","","","","","","","","","<p><img src= images/blank.png width =""600"" height = ""600"" style=""position:fixed;top:50%; left:50%; transform: translate(-50%, -50%); border:5px solid black"">","","","","",""
"","stimuli-presentation","108","339017","0.0-26.0-1.7","SS1627327142652","","615.6999999999534","trial","","40","500","1115.6999999999534","images/stimuli/complex_10_A_a.gif","images/stimuli/complex_11_A_b.gif","forced_short","660","","","","","","5","complex_dissimilar","images/stimuli/complex_10_A_a.gif","",""
"","survey-multi-choice","109","342610","0.0-27.0","SS1627327142652","","3572.100000000093","memory_test","","","","","","","","","{""Q0"":""No""}","[0]","images/stimuli/complex_15_A_b.gif","5","","","","","",""
"","survey-multi-choice","110","345153","0.0-28.0","SS1627327142652","","2529.4000000000233","memory_test","","","","","","","","","{""Q0"":""Yes""}","[0]","images/stimuli/complex_10_A_a.gif","5","","","","","",""
"","html-keyboard-response","111","346035","0.0-29.0-0.0","SS1627327142652","","null","","","null","","","","","","","","","","","<p><img src= images/blank.png width =""600"" height = ""600"" style=""position:fixed;top:50%; left:50%; transform: translate(-50%, -50%); border:5px solid black"">","","","","",""
"","stimuli-presentation","112","348999","0.0-29.0-1.0","SS1627327142652","","2361.9000000000233","trial","","40","500","2861.9000000000233","images/stimuli/complex_12_A_a.gif","images/stimuli/complex_08_A_a.gif","forced_short","590","","","","","","6","complex_dissimilar","images/stimuli/complex_08_A_a.gif","",""
"","html-keyboard-response","113","349978","0.0-29.0-0.1","SS1627327142652","","null","","","null","","","","","","","","","","","<p><img src= images/blank.png width =""600"" height = ""600"" style=""position:fixed;top:50%; left:50%; transform: translate(-50%, -50%); border:5px solid black"">","","","","",""
"","stimuli-presentation","114","352305","0.0-29.0-1.1","SS1627327142652","","1787.4000000000233","trial","","40","500","2287.4000000000233","images/stimuli/complex_12_A_a.gif","images/stimuli/complex_08_A_a.gif","forced_short","590","","","","","","6","complex_dissimilar","images/stimuli/complex_08_A_a.gif","",""
"","html-keyboard-response","115","353182","0.0-29.0-0.2","SS1627327142652","","null","","","null","","","","","","","","","","","<p><img src= images/blank.png width =""600"" height = ""600"" style=""position:fixed;top:50%; left:50%; transform: translate(-50%, -50%); border:5px solid black"">","","","","",""
"","stimuli-presentation","116","353998","0.0-29.0-1.2","SS1627327142652","","303.80000000004657","trial","","40","500","803.8000000000466","images/stimuli/complex_12_A_a.gif","images/stimuli/complex_08_A_a.gif","forced_short","590","","","","","","6","complex_dissimilar","images/stimuli/complex_12_A_a.gif","",""
"","html-keyboard-response","117","355043","0.0-29.0-0.3","SS1627327142652","","null","","","null","","","","","","","","","","","<p><img src= images/blank.png width =""600"" height = ""600"" style=""position:fixed;top:50%; left:50%; transform: translate(-50%, -50%); border:5px solid black"">","","","","",""
"","stimuli-presentation","118","356627","0.0-29.0-1.3","SS1627327142652","","1068.3000000000466","trial","","40","500","1568.3000000000466","images/stimuli/complex_12_A_a.gif","images/stimuli/complex_08_A_a.gif","forced_short","590","","","","","","6","complex_dissimilar","images/stimuli/complex_08_A_a.gif","",""
"","html-keyboard-response","119","357701","0.0-29.0-0.4","SS1627327142652","","null","","","null","","","","","","","","","","","<p><img src= images/blank.png width =""600"" height = ""600"" style=""position:fixed;top:50%; left:50%; transform: translate(-50%, -50%); border:5px solid black"">","","","","",""
"","stimuli-presentation","120","358596","0.0-29.0-1.4","SS1627327142652","","350","trial","","40","500","850","images/stimuli/complex_12_A_a.gif","images/stimuli/complex_08_A_a.gif","forced_short","590","","","","","","6","complex_dissimilar","images/stimuli/complex_08_A_a.gif","",""
"","html-keyboard-response","121","359605","0.0-29.0-0.5","SS1627327142652","","null","","","null","","","","","","","","","","","<p><img src= images/blank.png width =""600"" height = ""600"" style=""position:fixed;top:50%; left:50%; transform: translate(-50%, -50%); border:5px solid black"">","","","","",""
"","stimuli-presentation","122","360797","0.0-29.0-1.5","SS1627327142652","","658.5","trial","","40","500","1158.5","images/stimuli/complex_12_A_a.gif","images/stimuli/complex_08_A_a.gif","forced_short","590","","","","","","6","complex_dissimilar","images/stimuli/complex_08_A_a.gif","",""
"","html-keyboard-response","123","361658","0.0-29.0-0.6","SS1627327142652","","null","","","null","","","","","","","","","","","<p><img src= images/blank.png width =""600"" height = ""600"" style=""position:fixed;top:50%; left:50%; transform: translate(-50%, -50%); border:5px solid black"">","","","","",""
"","stimuli-presentation","124","362368","0.0-29.0-1.6","SS1627327142652","","200.40000000002328","trial","","40","500","700.4000000000233","images/stimuli/complex_12_A_a.gif","images/stimuli/complex_08_A_a.gif","forced_short","590","","","","","","6","complex_dissimilar","images/stimuli/complex_12_A_a.gif","",""
"","html-keyboard-response","125","363209","0.0-29.0-0.7","SS1627327142652","","null","","","null","","","","","","","","","","","<p><img src= images/blank.png width =""600"" height = ""600"" style=""position:fixed;top:50%; left:50%; transform: translate(-50%, -50%); border:5px solid black"">","","","","",""
"","stimuli-presentation","126","364048","0.0-29.0-1.7","SS1627327142652","","305.5999999999767","trial","","40","500","805.5999999999767","images/stimuli/complex_12_A_a.gif","images/stimuli/complex_08_A_a.gif","forced_short","590","","","","","","6","complex_dissimilar","images/stimuli/complex_08_A_a.gif","",""
"","survey-multi-choice","127","367349","0.0-30.0","SS1627327142652","","3262.9000000000233","memory_test","","","","","","","","","{""Q0"":""Yes""}","[0]","images/stimuli/complex_08_A_a.gif","6","","","","","",""
"","survey-multi-choice","128","370606","0.0-31.0","SS1627327142652","","3231.0999999999767","memory_test","","","","","","","","","{""Q0"":""No""}","[0]","images/stimuli/complex_09_A_b.gif","6","","","","","",""
"","html-keyboard-response","129","371760","0.0-32.0-0.0","SS1627327142652","","null","","","null","","","","","","","","","","","<p><img src= images/blank.png width =""600"" height = ""600"" style=""position:fixed;top:50%; left:50%; transform: translate(-50%, -50%); border:5px solid black"">","","","","",""
"","stimuli-presentation","130","372645","0.0-32.0-1.0","SS1627327142652","","666.5999999999767","trial","","40","500","1166.5999999999767","images/stimuli/complex_13_A_b.gif","images/stimuli/complex_22_A_b.gif","forced_short","100","","","","","","7","complex_dissimilar","images/stimuli/complex_22_A_b.gif","",""
"","html-keyboard-response","131","373878","0.0-32.0-0.1","SS1627327142652","","null","","","null","","","","","","","","","","","<p><img src= images/blank.png width =""600"" height = ""600"" style=""position:fixed;top:50%; left:50%; transform: translate(-50%, -50%); border:5px solid black"">","","","","",""
"","stimuli-presentation","132","374568","0.0-32.0-1.1","SS1627327142652","","179.90000000002328","trial","","40","500","679.9000000000233","images/stimuli/complex_13_A_b.gif","images/stimuli/complex_22_A_b.gif","forced_short","100","","","","","","7","complex_dissimilar","images/stimuli/complex_22_A_b.gif","",""
"","html-keyboard-response","133","375692","0.0-32.0-0.2","SS1627327142652","","null","","","null","","","","","","","","","","","<p><img src= images/blank.png width =""600"" height = ""600"" style=""position:fixed;top:50%; left:50%; transform: translate(-50%, -50%); border:5px solid black"">","","","","",""
"","stimuli-presentation","134","376658","0.0-32.0-1.2","SS1627327142652","","447","trial","","40","500","947","images/stimuli/complex_13_A_b.gif","images/stimuli/complex_22_A_b.gif","forced_short","100","","","","","","7","complex_dissimilar","images/stimuli/complex_22_A_b.gif","",""
"","html-keyboard-response","135","377592","0.0-32.0-0.3","SS1627327142652","","null","","","null","","","","","","","","","","","<p><img src= images/blank.png width =""600"" height = ""600"" style=""position:fixed;top:50%; left:50%; transform: translate(-50%, -50%); border:5px solid black"">","","","","",""
"","stimuli-presentation","136","378701","0.0-32.0-1.3","SS1627327142652","","599.5999999999767","trial","","40","500","1099.5999999999767","images/stimuli/complex_13_A_b.gif","images/stimuli/complex_22_A_b.gif","forced_short","100","","","","","","7","complex_dissimilar","images/stimuli/complex_22_A_b.gif","",""
"","html-keyboard-response","137","379946","0.0-32.0-0.4","SS1627327142652","","null","","","null","","","","","","","","","","","<p><img src= images/blank.png width =""600"" height = ""600"" style=""position:fixed;top:50%; left:50%; transform: translate(-50%, -50%); border:5px solid black"">","","","","",""
"","stimuli-presentation","138","381213","0.0-32.0-1.4","SS1627327142652","","712.8000000000466","trial","","40","500","1212.8000000000466","images/stimuli/complex_13_A_b.gif","images/stimuli/complex_22_A_b.gif","forced_short","100","","","","","","7","complex_dissimilar","images/stimuli/complex_22_A_b.gif","",""
"","html-keyboard-response","139","382296","0.0-32.0-0.5","SS1627327142652","","null","","","null","","","","","","","","","","","<p><img src= images/blank.png width =""600"" height = ""600"" style=""position:fixed;top:50%; left:50%; transform: translate(-50%, -50%); border:5px solid black"">","","","","",""
"","stimuli-presentation","140","383496","0.0-32.0-1.5","SS1627327142652","","689.6999999999534","trial","","40","500","1189.6999999999534","images/stimuli/complex_13_A_b.gif","images/stimuli/complex_22_A_b.gif","forced_short","100","","","","","","7","complex_dissimilar","images/stimuli/complex_13_A_b.gif","",""
"","html-keyboard-response","141","384330","0.0-32.0-0.6","SS1627327142652","","null","","","null","","","","","","","","","","","<p><img src= images/blank.png width =""600"" height = ""600"" style=""position:fixed;top:50%; left:50%; transform: translate(-50%, -50%); border:5px solid black"">","","","","",""
"","stimuli-presentation","142","385228","0.0-32.0-1.6","SS1627327142652","","385.39999999990687","trial","","40","500","885.3999999999069","images/stimuli/complex_13_A_b.gif","images/stimuli/complex_22_A_b.gif","forced_short","100","","","","","","7","complex_dissimilar","images/stimuli/complex_22_A_b.gif","",""
"","survey-multi-choice","143","388144","0.0-33.0","SS1627327142652","","2902.899999999907","memory_test","","","","","","","","","{""Q0"":""Yes""}","[0]","images/stimuli/complex_13_A_b.gif","7","","","","","",""
"","survey-multi-choice","144","391652","0.0-34.0","SS1627327142652","","3494.0999999999767","memory_test","","","","","","","","","{""Q0"":""No""}","[0]","images/stimuli/complex_02_A_b.gif","7","","","","","",""
"","instructions","145","398415","0.0-35.0","SS1627327142652","[{""page_index"":0,""viewing_time"":6746.899999999907}]","6748.29999999993","instructions","","","","","","","","","","","","","","","","","",""
"","survey-likert","146","412858","0.0-36.0","SS1627327142652","","14424.600000000093","similarity_question","","","","","","","","","{""Q0"":2}","[0]","","","","","","","images/stimuli/complex_23_A_b.gif","images/stimuli/complex_24_A_a.gif"
"","survey-likert","147","427055","0.0-37.0","SS1627327142652","","14179.70000000007","similarity_question","","","","","","","","","{""Q0"":2}","[0]","","","","","","","images/stimuli/complex_14_A_b.gif","images/stimuli/complex_05_A_b.gif"
"","survey-likert","148","430897","0.0-38.0","SS1627327142652","","3826","similarity_question","","","","","","","","","{""Q0"":1}","[0]","","","","","","","images/stimuli/complex_11_A_b.gif","images/stimuli/complex_10_A_a.gif"
"","survey-likert","149","434753","0.0-39.0","SS1627327142652","","3841.0999999999767","similarity_question","","","","","","","","","{""Q0"":1}","[0]","","","","","","","images/stimuli/complex_12_A_a.gif","images/stimuli/complex_08_A_a.gif"
"","survey-likert","150","442939","0.0-40.0","SS1627327142652","","8169.300000000047","similarity_question","","","","","","","","","{""Q0"":1}","[0]","","","","","","","images/stimuli/complex_04_A_a.gif","images/stimuli/complex_17_A_b.gif"
"","survey-likert","151","450022","0.0-41.0","SS1627327142652","","7067.099999999977","similarity_question","","","","","","","","","{""Q0"":1}","[0]","","","","","","","images/stimuli/complex_13_A_b.gif","images/stimuli/complex_22_A_b.gif"
"","survey-likert","152","458059","0.0-42.0","SS1627327142652","","8023.400000000023","similarity_question","","","","","","","","","{""Q0"":4}","[0]","","","","","","","images/stimuli/complex_19_A_b.gif","images/stimuli/complex_06_A_a.gif"
"","survey-likert","153","462403","0.0-43.0","SS1627327142652","","4327.899999999907","similarity_question","","","","","","","","","{""Q0"":1}","[0]","","","","","","","images/stimuli/complex_16_A_a.gif","images/stimuli/complex_18_A_b.gif"
"","instructions","154","470202","0.0-44.0","SS1627327142652","[{""page_index"":0,""viewing_time"":7782.599999999977}]","7784.400000000023","instructions","","","","","","","","","","","","","","","","","",""
"","survey-likert","155","480079","0.0-45.0","SS1627327142652","","9857.5","","","","","","","","","","{""Q0"":4}","[0]","","","images/stimuli/complex_24_A_a.gif","","","","",""
"","survey-likert","156","487859","0.0-46.0","SS1627327142652","","7761.099999999977","","","","","","","","","","{""Q0"":6}","[0]","","","images/stimuli/complex_18_A_b.gif","","","","",""
"","survey-likert","157","491221","0.0-47.0","SS1627327142652","","3344.5999999999767","","","","","","","","","","{""Q0"":2}","[0]","","","images/stimuli/complex_05_A_b.gif","","","","",""
"","survey-likert","158","502306","0.0-48.0","SS1627327142652","","11063.800000000047","","","","","","","","","","{""Q0"":4}","[0]","","","images/stimuli/complex_11_A_b.gif","","","","",""
"","survey-likert","159","507322","0.0-49.0","SS1627327142652","","4997.699999999953","","","","","","","","","","{""Q0"":2}","[0]","","","images/stimuli/complex_17_A_b.gif","","","","",""
"","survey-likert","160","514695","0.0-50.0","SS1627327142652","","7357","","","","","","","","","","{""Q0"":3}","[0]","","","images/stimuli/complex_22_A_b.gif","","","","",""
"","survey-likert","161","525423","0.0-51.0","SS1627327142652","","10712.300000000047","","","","","","","","","","{""Q0"":4}","[0]","","","images/stimuli/complex_08_A_a.gif","","","","",""
"","survey-likert","162","532664","0.0-52.0","SS1627327142652","","7223.29999999993","","","","","","","","","","{""Q0"":4}","[0]","","","images/stimuli/complex_06_A_a.gif","","","","",""
"true","fullscreen","163","533678","0.0-53.0","SS1627327142652","","","","","","","","","","","","","","","","","","","","",""
"","instructions","164","538858","0.0-54.0","SS1627327142652","[{""page_index"":0,""viewing_time"":5164.099999999977}]","5165.29999999993","instructions","","","","","","","","","","","","","","","","","",""
"","demog-age","165","544699","0.0-55.0","SS1627327142652","","5814.900000000023","","","","","","","","","","{""age"":""33""}","","","","","","","","",""
"","demog-ethnic-US","166","555119","0.0-56.0","SS1627327142652","","10376.70000000007","","","","","","","","","","{""ethnicity"":[""White""]}","[0]","","","","","","","",""
"","demog-gender-and-education","167","578406","0.0-57.0","SS1627327142652","","23270.900000000023","","","","","","","","","","{""gender"":""Male"",""education"":""Other""}","[0,1]","","","","","","","",""
"","survey-text","168","606623","0.0-58.0","SS1627327142652","","28199.400000000023","feedback","","","","","","","","","{""Q0"":""No issues in lagging.""}","","","","","","","","",""
