"success","trial_type","trial_index","time_elapsed","internal_node_id","subject","view_history","rt","stimulus_type","trial_stimulus","key_press","minimum_viewing_duration","trial_looking_time","block_deviant","block_background","exposure_type","forced_exposure_time","responses","question_order","memory_question_stimuli","memory_block_index","stimulus","block_number","block_type","stimulus_displayed","stimulus_left","stimulus_right"
"true","fullscreen","0","21665","0.0-0.0","SS1627327018910","","","","","","","","","","","","","","","","","","","","",""
"","instructions","1","38482","0.0-1.0","SS1627327018910","[{""page_index"":0,""viewing_time"":16812.899999976158}]","16814.200000047684","","","","","","","","","","","","","","","","","","",""
"","instructions","2","59180","0.0-2.0","SS1627327018910","[{""page_index"":0,""viewing_time"":13307.099999904633},{""page_index"":1,""viewing_time"":5387}]","18694.5","instructions","","","","","","","","","","","","","","","","","",""
"","stimuli-presentation","3","73045","0.0-3.0","SS1627327018910","","13362.399999976158","","","40","500","13862.399999976158","null","null","self_paced","0","","","","","","","","","",""
"","instructions","4","83620","0.0-4.0","SS1627327018910","[{""page_index"":0,""viewing_time"":10573}]","10573.399999976158","instructions","","","","","","","","","","","","","","","","","",""
"","stimuli-presentation","5","88310","0.0-5.0","SS1627327018910","","4185.900000095367","","","40","500","4685.900000095367","null","null","forced_short","500","","","","","","","","","",""
"","stimuli-presentation","6","96113","0.0-6.0","SS1627327018910","","7299.299999952316","","","40","500","7799.299999952316","null","null","forced_short","500","","","","","","","","","",""
"","instructions","7","108507","0.0-7.0","SS1627327018910","[{""page_index"":0,""viewing_time"":12392.800000071526}]","12393.100000023842","instructions","","","","","","","","","","","","","","","","","",""
"","survey-multi-choice","8","114056","0.0-8.0","SS1627327018910","","5543.800000071526","memory_test_practice","","","","","","","","","{""Q0"":""Yes""}","[0]","images/practice/instructions_example_spore2.gif","0","","","","","",""
"","survey-multi-choice","9","119309","0.0-9.0","SS1627327018910","","5250.200000047684","memory_test_practice","","","","","","","","","{""Q0"":""No""}","[0]","images/practice/instructions_example_spore0.gif","0","","","","","",""
"","instructions","10","132135","0.0-10.0","SS1627327018910","[{""page_index"":0,""viewing_time"":11140.299999952316},{""page_index"":1,""viewing_time"":1683}]","12823.799999952316","instructions","","","","","","","","","","","","","","","","","",""
"","html-keyboard-response","11","133270","0.0-11.0-0.0","SS1627327018910","","null","","","null","","","","","","","","","","","<p><img src= images/blank.png width =""600"" height = ""600"" style=""position:fixed;top:50%; left:50%; transform: translate(-50%, -50%); border:5px solid black"">","","","","",""
"","stimuli-presentation","12","135493","0.0-11.0-1.0","SS1627327018910","","2028.6000000238419","trial","","40","500","2528.600000023842","images/stimuli/complex_09_A_a.gif","images/stimuli/complex_21_A_a.gif","forced_short","190","","","","","","0","complex_dissimilar","images/stimuli/complex_21_A_a.gif","",""
"","html-keyboard-response","13","136447","0.0-11.0-0.1","SS1627327018910","","null","","","null","","","","","","","","","","","<p><img src= images/blank.png width =""600"" height = ""600"" style=""position:fixed;top:50%; left:50%; transform: translate(-50%, -50%); border:5px solid black"">","","","","",""
"","stimuli-presentation","14","141126","0.0-11.0-1.1","SS1627327018910","","4176.200000047684","trial","","40","500","4676.200000047684","images/stimuli/complex_09_A_a.gif","images/stimuli/complex_21_A_a.gif","forced_short","190","","","","","","0","complex_dissimilar","images/stimuli/complex_21_A_a.gif","",""
"","html-keyboard-response","15","142173","0.0-11.0-0.2","SS1627327018910","","null","","","null","","","","","","","","","","","<p><img src= images/blank.png width =""600"" height = ""600"" style=""position:fixed;top:50%; left:50%; transform: translate(-50%, -50%); border:5px solid black"">","","","","",""
"","stimuli-presentation","16","149725","0.0-11.0-1.2","SS1627327018910","","7049","trial","","40","500","7549","images/stimuli/complex_09_A_a.gif","images/stimuli/complex_21_A_a.gif","forced_short","190","","","","","","0","complex_dissimilar","images/stimuli/complex_21_A_a.gif","",""
"","html-keyboard-response","17","150785","0.0-11.0-0.3","SS1627327018910","","null","","","null","","","","","","","","","","","<p><img src= images/blank.png width =""600"" height = ""600"" style=""position:fixed;top:50%; left:50%; transform: translate(-50%, -50%); border:5px solid black"">","","","","",""
"","stimuli-presentation","18","152538","0.0-11.0-1.3","SS1627327018910","","1237.1000000238419","trial","","40","500","1737.1000000238419","images/stimuli/complex_09_A_a.gif","images/stimuli/complex_21_A_a.gif","forced_short","190","","","","","","0","complex_dissimilar","images/stimuli/complex_21_A_a.gif","",""
"","html-keyboard-response","19","153797","0.0-11.0-0.4","SS1627327018910","","null","","","null","","","","","","","","","","","<p><img src= images/blank.png width =""600"" height = ""600"" style=""position:fixed;top:50%; left:50%; transform: translate(-50%, -50%); border:5px solid black"">","","","","",""
"","stimuli-presentation","20","159203","0.0-11.0-1.4","SS1627327018910","","4898.799999952316","trial","","40","500","5398.799999952316","images/stimuli/complex_09_A_a.gif","images/stimuli/complex_21_A_a.gif","forced_short","190","","","","","","0","complex_dissimilar","images/stimuli/complex_09_A_a.gif","",""
"","html-keyboard-response","21","160188","0.0-11.0-0.5","SS1627327018910","","null","","","null","","","","","","","","","","","<p><img src= images/blank.png width =""600"" height = ""600"" style=""position:fixed;top:50%; left:50%; transform: translate(-50%, -50%); border:5px solid black"">","","","","",""
"","stimuli-presentation","22","163610","0.0-11.0-1.5","SS1627327018910","","2917.7999999523163","trial","","40","500","3417.7999999523163","images/stimuli/complex_09_A_a.gif","images/stimuli/complex_21_A_a.gif","forced_short","190","","","","","","0","complex_dissimilar","images/stimuli/complex_21_A_a.gif","",""
"","html-keyboard-response","23","164498","0.0-11.0-0.6","SS1627327018910","","null","","","null","","","","","","","","","","","<p><img src= images/blank.png width =""600"" height = ""600"" style=""position:fixed;top:50%; left:50%; transform: translate(-50%, -50%); border:5px solid black"">","","","","",""
"","stimuli-presentation","24","166244","0.0-11.0-1.6","SS1627327018910","","1241.7999999523163","trial","","40","500","1741.7999999523163","images/stimuli/complex_09_A_a.gif","images/stimuli/complex_21_A_a.gif","forced_short","190","","","","","","0","complex_dissimilar","images/stimuli/complex_21_A_a.gif","",""
"","html-keyboard-response","25","167063","0.0-11.0-0.7","SS1627327018910","","null","","","null","","","","","","","","","","","<p><img src= images/blank.png width =""600"" height = ""600"" style=""position:fixed;top:50%; left:50%; transform: translate(-50%, -50%); border:5px solid black"">","","","","",""
"","stimuli-presentation","26","170321","0.0-11.0-1.7","SS1627327018910","","2754.7000000476837","trial","","40","500","3254.7000000476837","images/stimuli/complex_09_A_a.gif","images/stimuli/complex_21_A_a.gif","forced_short","190","","","","","","0","complex_dissimilar","images/stimuli/complex_09_A_a.gif","",""
"","survey-multi-choice","27","174604","0.0-12.0","SS1627327018910","","4280.799999952316","memory_test","","","","","","","","","{""Q0"":""No""}","[0]","images/stimuli/complex_08_A_b.gif","0","","","","","",""
"","survey-multi-choice","28","178105","0.0-13.0","SS1627327018910","","3497.399999976158","memory_test","","","","","","","","","{""Q0"":""Yes""}","[0]","images/stimuli/complex_21_A_a.gif","0","","","","","",""
"","html-keyboard-response","29","179032","0.0-14.0-0.0","SS1627327018910","","null","","","null","","","","","","","","","","","<p><img src= images/blank.png width =""600"" height = ""600"" style=""position:fixed;top:50%; left:50%; transform: translate(-50%, -50%); border:5px solid black"">","","","","",""
"","stimuli-presentation","30","182727","0.0-14.0-1.0","SS1627327018910","","3080.5","trial","","40","500","3580.5","images/stimuli/complex_02_A_b.gif","images/stimuli/complex_07_A_b.gif","forced_short","610","","","","","","1","complex_dissimilar","images/stimuli/complex_07_A_b.gif","",""
"","html-keyboard-response","31","183859","0.0-14.0-0.1","SS1627327018910","","null","","","null","","","","","","","","","","","<p><img src= images/blank.png width =""600"" height = ""600"" style=""position:fixed;top:50%; left:50%; transform: translate(-50%, -50%); border:5px solid black"">","","","","",""
"","stimuli-presentation","32","188950","0.0-14.0-1.1","SS1627327018910","","4587.5","trial","","40","500","5087.5","images/stimuli/complex_02_A_b.gif","images/stimuli/complex_07_A_b.gif","forced_short","610","","","","","","1","complex_dissimilar","images/stimuli/complex_07_A_b.gif","",""
"","html-keyboard-response","33","189923","0.0-14.0-0.2","SS1627327018910","","null","","","null","","","","","","","","","","","<p><img src= images/blank.png width =""600"" height = ""600"" style=""position:fixed;top:50%; left:50%; transform: translate(-50%, -50%); border:5px solid black"">","","","","",""
"","stimuli-presentation","34","190826","0.0-14.0-1.2","SS1627327018910","","398.60000002384186","trial","","40","500","898.6000000238419","images/stimuli/complex_02_A_b.gif","images/stimuli/complex_07_A_b.gif","forced_short","610","","","","","","1","complex_dissimilar","images/stimuli/complex_07_A_b.gif","",""
"","html-keyboard-response","35","191652","0.0-14.0-0.3","SS1627327018910","","null","","","null","","","","","","","","","","","<p><img src= images/blank.png width =""600"" height = ""600"" style=""position:fixed;top:50%; left:50%; transform: translate(-50%, -50%); border:5px solid black"">","","","","",""
"","stimuli-presentation","36","193969","0.0-14.0-1.3","SS1627327018910","","1812","trial","","40","500","2312","images/stimuli/complex_02_A_b.gif","images/stimuli/complex_07_A_b.gif","forced_short","610","","","","","","1","complex_dissimilar","images/stimuli/complex_07_A_b.gif","",""
"","html-keyboard-response","37","195080","0.0-14.0-0.4","SS1627327018910","","null","","","null","","","","","","","","","","","<p><img src= images/blank.png width =""600"" height = ""600"" style=""position:fixed;top:50%; left:50%; transform: translate(-50%, -50%); border:5px solid black"">","","","","",""
"","stimuli-presentation","38","196217","0.0-14.0-1.4","SS1627327018910","","632.8999999761581","trial","","40","500","1132.8999999761581","images/stimuli/complex_02_A_b.gif","images/stimuli/complex_07_A_b.gif","forced_short","610","","","","","","1","complex_dissimilar","images/stimuli/complex_07_A_b.gif","",""
"","html-keyboard-response","39","197268","0.0-14.0-0.5","SS1627327018910","","null","","","null","","","","","","","","","","","<p><img src= images/blank.png width =""600"" height = ""600"" style=""position:fixed;top:50%; left:50%; transform: translate(-50%, -50%); border:5px solid black"">","","","","",""
"","stimuli-presentation","40","198098","0.0-14.0-1.5","SS1627327018910","","325.60000002384186","trial","","40","500","825.6000000238419","images/stimuli/complex_02_A_b.gif","images/stimuli/complex_07_A_b.gif","forced_short","610","","","","","","1","complex_dissimilar","images/stimuli/complex_07_A_b.gif","",""
"","html-keyboard-response","41","198955","0.0-14.0-0.6","SS1627327018910","","null","","","null","","","","","","","","","","","<p><img src= images/blank.png width =""600"" height = ""600"" style=""position:fixed;top:50%; left:50%; transform: translate(-50%, -50%); border:5px solid black"">","","","","",""
"","stimuli-presentation","42","200805","0.0-14.0-1.6","SS1627327018910","","1346","trial","","40","500","1846","images/stimuli/complex_02_A_b.gif","images/stimuli/complex_07_A_b.gif","forced_short","610","","","","","","1","complex_dissimilar","images/stimuli/complex_07_A_b.gif","",""
"","survey-multi-choice","43","204082","0.0-15.0","SS1627327018910","","3274.600000023842","memory_test","","","","","","","","","{""Q0"":""No""}","[0]","images/stimuli/complex_15_A_b.gif","1","","","","","",""
"","survey-multi-choice","44","207126","0.0-16.0","SS1627327018910","","3040.600000023842","memory_test","","","","","","","","","{""Q0"":""Yes""}","[0]","images/stimuli/complex_07_A_b.gif","1","","","","","",""
"","html-keyboard-response","45","208116","0.0-17.0-0.0","SS1627327018910","","null","","","null","","","","","","","","","","","<p><img src= images/blank.png width =""600"" height = ""600"" style=""position:fixed;top:50%; left:50%; transform: translate(-50%, -50%); border:5px solid black"">","","","","",""
"","stimuli-presentation","46","210596","0.0-17.0-1.0","SS1627327018910","","2105.7999999523163","trial","","40","500","2605.7999999523163","images/stimuli/complex_06_A_b.gif","images/stimuli/complex_05_A_b.gif","forced_short","370","","","","","","2","complex_dissimilar","images/stimuli/complex_05_A_b.gif","",""
"","html-keyboard-response","47","211855","0.0-17.0-0.1","SS1627327018910","","null","","","null","","","","","","","","","","","<p><img src= images/blank.png width =""600"" height = ""600"" style=""position:fixed;top:50%; left:50%; transform: translate(-50%, -50%); border:5px solid black"">","","","","",""
"","stimuli-presentation","48","216886","0.0-17.0-1.1","SS1627327018910","","4528.800000071526","trial","","40","500","5028.800000071526","images/stimuli/complex_06_A_b.gif","images/stimuli/complex_05_A_b.gif","forced_short","370","","","","","","2","complex_dissimilar","images/stimuli/complex_05_A_b.gif","",""
"","html-keyboard-response","49","218007","0.0-17.0-0.2","SS1627327018910","","null","","","null","","","","","","","","","","","<p><img src= images/blank.png width =""600"" height = ""600"" style=""position:fixed;top:50%; left:50%; transform: translate(-50%, -50%); border:5px solid black"">","","","","",""
"","stimuli-presentation","50","218535","0.0-17.0-1.2","SS1627327018910","","25","trial","","40","500","525","images/stimuli/complex_06_A_b.gif","images/stimuli/complex_05_A_b.gif","forced_short","370","","","","","","2","complex_dissimilar","images/stimuli/complex_05_A_b.gif","",""
"","html-keyboard-response","51","219581","0.0-17.0-0.3","SS1627327018910","","null","","","null","","","","","","","","","","","<p><img src= images/blank.png width =""600"" height = ""600"" style=""position:fixed;top:50%; left:50%; transform: translate(-50%, -50%); border:5px solid black"">","","","","",""
"","stimuli-presentation","52","221364","0.0-17.0-1.3","SS1627327018910","","1279.5","trial","","40","500","1779.5","images/stimuli/complex_06_A_b.gif","images/stimuli/complex_05_A_b.gif","forced_short","370","","","","","","2","complex_dissimilar","images/stimuli/complex_05_A_b.gif","",""
"","html-keyboard-response","53","222272","0.0-17.0-0.4","SS1627327018910","","null","","","null","","","","","","","","","","","<p><img src= images/blank.png width =""600"" height = ""600"" style=""position:fixed;top:50%; left:50%; transform: translate(-50%, -50%); border:5px solid black"">","","","","",""
"","stimuli-presentation","54","225810","0.0-17.0-1.4","SS1627327018910","","3033.5","trial","","40","500","3533.5","images/stimuli/complex_06_A_b.gif","images/stimuli/complex_05_A_b.gif","forced_short","370","","","","","","2","complex_dissimilar","images/stimuli/complex_06_A_b.gif","",""
"","html-keyboard-response","55","226901","0.0-17.0-0.5","SS1627327018910","","null","","","null","","","","","","","","","","","<p><img src= images/blank.png width =""600"" height = ""600"" style=""position:fixed;top:50%; left:50%; transform: translate(-50%, -50%); border:5px solid black"">","","","","",""
"","stimuli-presentation","56","227958","0.0-17.0-1.5","SS1627327018910","","552.3999999761581","trial","","40","500","1052.3999999761581","images/stimuli/complex_06_A_b.gif","images/stimuli/complex_05_A_b.gif","forced_short","370","","","","","","2","complex_dissimilar","images/stimuli/complex_05_A_b.gif","",""
"","html-keyboard-response","57","228940","0.0-17.0-0.6","SS1627327018910","","null","","","null","","","","","","","","","","","<p><img src= images/blank.png width =""600"" height = ""600"" style=""position:fixed;top:50%; left:50%; transform: translate(-50%, -50%); border:5px solid black"">","","","","",""
"","stimuli-presentation","58","229506","0.0-17.0-1.6","SS1627327018910","","63.39999997615814","trial","","40","500","563.3999999761581","images/stimuli/complex_06_A_b.gif","images/stimuli/complex_05_A_b.gif","forced_short","370","","","","","","2","complex_dissimilar","images/stimuli/complex_05_A_b.gif","",""
"","html-keyboard-response","59","230704","0.0-17.0-0.7","SS1627327018910","","null","","","null","","","","","","","","","","","<p><img src= images/blank.png width =""600"" height = ""600"" style=""position:fixed;top:50%; left:50%; transform: translate(-50%, -50%); border:5px solid black"">","","","","",""
"","stimuli-presentation","60","233069","0.0-17.0-1.7","SS1627327018910","","1862","trial","","40","500","2362","images/stimuli/complex_06_A_b.gif","images/stimuli/complex_05_A_b.gif","forced_short","370","","","","","","2","complex_dissimilar","images/stimuli/complex_06_A_b.gif","",""
"","survey-multi-choice","61","235924","0.0-18.0","SS1627327018910","","2851.399999976158","memory_test","","","","","","","","","{""Q0"":""Yes""}","[0]","images/stimuli/complex_06_A_b.gif","2","","","","","",""
"","survey-multi-choice","62","239015","0.0-19.0","SS1627327018910","","3085.899999976158","memory_test","","","","","","","","","{""Q0"":""No""}","[0]","images/stimuli/complex_03_A_b.gif","2","","","","","",""
"","html-keyboard-response","63","240169","0.0-20.0-0.0","SS1627327018910","","null","","","null","","","","","","","","","","","<p><img src= images/blank.png width =""600"" height = ""600"" style=""position:fixed;top:50%; left:50%; transform: translate(-50%, -50%); border:5px solid black"">","","","","",""
"","stimuli-presentation","64","245048","0.0-20.0-1.0","SS1627327018910","","3884.2999999523163","trial","","40","500","4384.299999952316","images/stimuli/complex_04_A_b.gif","images/stimuli/complex_23_A_a.gif","forced_short","990","","","","","","3","complex_dissimilar","images/stimuli/complex_23_A_a.gif","",""
"","html-keyboard-response","65","246319","0.0-20.0-0.1","SS1627327018910","","null","","","null","","","","","","","","","","","<p><img src= images/blank.png width =""600"" height = ""600"" style=""position:fixed;top:50%; left:50%; transform: translate(-50%, -50%); border:5px solid black"">","","","","",""
"","stimuli-presentation","66","250077","0.0-20.0-1.1","SS1627327018910","","3253.7999999523163","trial","","40","500","3753.7999999523163","images/stimuli/complex_04_A_b.gif","images/stimuli/complex_23_A_a.gif","forced_short","990","","","","","","3","complex_dissimilar","images/stimuli/complex_04_A_b.gif","",""
"","html-keyboard-response","67","251022","0.0-20.0-0.2","SS1627327018910","","null","","","null","","","","","","","","","","","<p><img src= images/blank.png width =""600"" height = ""600"" style=""position:fixed;top:50%; left:50%; transform: translate(-50%, -50%); border:5px solid black"">","","","","",""
"","stimuli-presentation","68","255164","0.0-20.0-1.2","SS1627327018910","","3637.899999976158","trial","","40","500","4137.899999976158","images/stimuli/complex_04_A_b.gif","images/stimuli/complex_23_A_a.gif","forced_short","990","","","","","","3","complex_dissimilar","images/stimuli/complex_23_A_a.gif","",""
"","html-keyboard-response","69","256423","0.0-20.0-0.3","SS1627327018910","","null","","","null","","","","","","","","","","","<p><img src= images/blank.png width =""600"" height = ""600"" style=""position:fixed;top:50%; left:50%; transform: translate(-50%, -50%); border:5px solid black"">","","","","",""
"","stimuli-presentation","70","258474","0.0-20.0-1.3","SS1627327018910","","1546.8999999761581","trial","","40","500","2046.8999999761581","images/stimuli/complex_04_A_b.gif","images/stimuli/complex_23_A_a.gif","forced_short","990","","","","","","3","complex_dissimilar","images/stimuli/complex_04_A_b.gif","",""
"","html-keyboard-response","71","259488","0.0-20.0-0.4","SS1627327018910","","null","","","null","","","","","","","","","","","<p><img src= images/blank.png width =""600"" height = ""600"" style=""position:fixed;top:50%; left:50%; transform: translate(-50%, -50%); border:5px solid black"">","","","","",""
"","stimuli-presentation","72","261007","0.0-20.0-1.4","SS1627327018910","","1014.7999999523163","trial","","40","500","1514.7999999523163","images/stimuli/complex_04_A_b.gif","images/stimuli/complex_23_A_a.gif","forced_short","990","","","","","","3","complex_dissimilar","images/stimuli/complex_23_A_a.gif","",""
"","html-keyboard-response","73","261974","0.0-20.0-0.5","SS1627327018910","","null","","","null","","","","","","","","","","","<p><img src= images/blank.png width =""600"" height = ""600"" style=""position:fixed;top:50%; left:50%; transform: translate(-50%, -50%); border:5px solid black"">","","","","",""
"","stimuli-presentation","74","262710","0.0-20.0-1.5","SS1627327018910","","232.39999997615814","trial","","40","500","732.3999999761581","images/stimuli/complex_04_A_b.gif","images/stimuli/complex_23_A_a.gif","forced_short","990","","","","","","3","complex_dissimilar","images/stimuli/complex_23_A_a.gif","",""
"","html-keyboard-response","75","263675","0.0-20.0-0.6","SS1627327018910","","null","","","null","","","","","","","","","","","<p><img src= images/blank.png width =""600"" height = ""600"" style=""position:fixed;top:50%; left:50%; transform: translate(-50%, -50%); border:5px solid black"">","","","","",""
"","stimuli-presentation","76","266044","0.0-20.0-1.6","SS1627327018910","","1865.7999999523163","trial","","40","500","2365.7999999523163","images/stimuli/complex_04_A_b.gif","images/stimuli/complex_23_A_a.gif","forced_short","990","","","","","","3","complex_dissimilar","images/stimuli/complex_23_A_a.gif","",""
"","html-keyboard-response","77","266905","0.0-20.0-0.7","SS1627327018910","","null","","","null","","","","","","","","","","","<p><img src= images/blank.png width =""600"" height = ""600"" style=""position:fixed;top:50%; left:50%; transform: translate(-50%, -50%); border:5px solid black"">","","","","",""
"","stimuli-presentation","78","267952","0.0-20.0-1.7","SS1627327018910","","543","trial","","40","500","1043","images/stimuli/complex_04_A_b.gif","images/stimuli/complex_23_A_a.gif","forced_short","990","","","","","","3","complex_dissimilar","images/stimuli/complex_23_A_a.gif","",""
"","survey-multi-choice","79","271919","0.0-21.0","SS1627327018910","","3964.100000023842","memory_test","","","","","","","","","{""Q0"":""No""}","[0]","images/stimuli/complex_17_A_a.gif","3","","","","","",""
"","survey-multi-choice","80","274424","0.0-22.0","SS1627327018910","","2500.7000000476837","memory_test","","","","","","","","","{""Q0"":""Yes""}","[0]","images/stimuli/complex_23_A_a.gif","3","","","","","",""
"","html-keyboard-response","81","275534","0.0-23.0-0.0","SS1627327018910","","null","","","null","","","","","","","","","","","<p><img src= images/blank.png width =""600"" height = ""600"" style=""position:fixed;top:50%; left:50%; transform: translate(-50%, -50%); border:5px solid black"">","","","","",""
"","stimuli-presentation","82","277740","0.0-23.0-1.0","SS1627327018910","","2000.1000000238419","trial","","40","500","2500.100000023842","images/stimuli/complex_14_A_b.gif","images/stimuli/complex_11_A_a.gif","forced_short","200","","","","","","4","complex_dissimilar","images/stimuli/complex_11_A_a.gif","",""
"","html-keyboard-response","83","278667","0.0-23.0-0.1","SS1627327018910","","null","","","null","","","","","","","","","","","<p><img src= images/blank.png width =""600"" height = ""600"" style=""position:fixed;top:50%; left:50%; transform: translate(-50%, -50%); border:5px solid black"">","","","","",""
"","stimuli-presentation","84","280843","0.0-23.0-1.1","SS1627327018910","","1670","trial","","40","500","2170","images/stimuli/complex_14_A_b.gif","images/stimuli/complex_11_A_a.gif","forced_short","200","","","","","","4","complex_dissimilar","images/stimuli/complex_11_A_a.gif","",""
"","html-keyboard-response","85","281806","0.0-23.0-0.2","SS1627327018910","","null","","","null","","","","","","","","","","","<p><img src= images/blank.png width =""600"" height = ""600"" style=""position:fixed;top:50%; left:50%; transform: translate(-50%, -50%); border:5px solid black"">","","","","",""
"","stimuli-presentation","86","286304","0.0-23.0-1.2","SS1627327018910","","3993","trial","","40","500","4493","images/stimuli/complex_14_A_b.gif","images/stimuli/complex_11_A_a.gif","forced_short","200","","","","","","4","complex_dissimilar","images/stimuli/complex_14_A_b.gif","",""
"","html-keyboard-response","87","287171","0.0-23.0-0.3","SS1627327018910","","null","","","null","","","","","","","","","","","<p><img src= images/blank.png width =""600"" height = ""600"" style=""position:fixed;top:50%; left:50%; transform: translate(-50%, -50%); border:5px solid black"">","","","","",""
"","stimuli-presentation","88","287695","0.0-23.0-1.3","SS1627327018910","","18","trial","","40","500","518","images/stimuli/complex_14_A_b.gif","images/stimuli/complex_11_A_a.gif","forced_short","200","","","","","","4","complex_dissimilar","images/stimuli/complex_11_A_a.gif","",""
"","html-keyboard-response","89","288850","0.0-23.0-0.4","SS1627327018910","","null","","","null","","","","","","","","","","","<p><img src= images/blank.png width =""600"" height = ""600"" style=""position:fixed;top:50%; left:50%; transform: translate(-50%, -50%); border:5px solid black"">","","","","",""
"","stimuli-presentation","90","289507","0.0-23.0-1.4","SS1627327018910","","147.60000002384186","trial","","40","500","647.6000000238419","images/stimuli/complex_14_A_b.gif","images/stimuli/complex_11_A_a.gif","forced_short","200","","","","","","4","complex_dissimilar","images/stimuli/complex_14_A_b.gif","",""
"","html-keyboard-response","91","290443","0.0-23.0-0.5","SS1627327018910","","null","","","null","","","","","","","","","","","<p><img src= images/blank.png width =""600"" height = ""600"" style=""position:fixed;top:50%; left:50%; transform: translate(-50%, -50%); border:5px solid black"">","","","","",""
"","stimuli-presentation","92","291011","0.0-23.0-1.5","SS1627327018910","","64","trial","","40","500","564","images/stimuli/complex_14_A_b.gif","images/stimuli/complex_11_A_a.gif","forced_short","200","","","","","","4","complex_dissimilar","images/stimuli/complex_11_A_a.gif","",""
"","html-keyboard-response","93","292287","0.0-23.0-0.6","SS1627327018910","","null","","","null","","","","","","","","","","","<p><img src= images/blank.png width =""600"" height = ""600"" style=""position:fixed;top:50%; left:50%; transform: translate(-50%, -50%); border:5px solid black"">","","","","",""
"","stimuli-presentation","94","293304","0.0-23.0-1.6","SS1627327018910","","508.2000000476837","trial","","40","500","1008.2000000476837","images/stimuli/complex_14_A_b.gif","images/stimuli/complex_11_A_a.gif","forced_short","200","","","","","","4","complex_dissimilar","images/stimuli/complex_11_A_a.gif","",""
"","html-keyboard-response","95","294591","0.0-23.0-0.7","SS1627327018910","","null","","","null","","","","","","","","","","","<p><img src= images/blank.png width =""600"" height = ""600"" style=""position:fixed;top:50%; left:50%; transform: translate(-50%, -50%); border:5px solid black"">","","","","",""
"","stimuli-presentation","96","295202","0.0-23.0-1.7","SS1627327018910","","106.70000004768372","trial","","40","500","606.7000000476837","images/stimuli/complex_14_A_b.gif","images/stimuli/complex_11_A_a.gif","forced_short","200","","","","","","4","complex_dissimilar","images/stimuli/complex_11_A_a.gif","",""
"","survey-multi-choice","97","298646","0.0-24.0","SS1627327018910","","3441.600000023842","memory_test","","","","","","","","","{""Q0"":""Yes""}","[0]","images/stimuli/complex_11_A_a.gif","4","","","","","",""
"","survey-multi-choice","98","301616","0.0-25.0","SS1627327018910","","2964.899999976158","memory_test","","","","","","","","","{""Q0"":""No""}","[0]","images/stimuli/complex_13_A_b.gif","4","","","","","",""
"","html-keyboard-response","99","302823","0.0-26.0-0.0","SS1627327018910","","null","","","null","","","","","","","","","","","<p><img src= images/blank.png width =""600"" height = ""600"" style=""position:fixed;top:50%; left:50%; transform: translate(-50%, -50%); border:5px solid black"">","","","","",""
"","stimuli-presentation","100","305161","0.0-26.0-1.0","SS1627327018910","","1713.3999999761581","trial","","40","500","2213.399999976158","images/stimuli/complex_22_A_b.gif","images/stimuli/complex_18_A_b.gif","forced_short","620","","","","","","5","complex_dissimilar","images/stimuli/complex_18_A_b.gif","",""
"","html-keyboard-response","101","306005","0.0-26.0-0.1","SS1627327018910","","null","","","null","","","","","","","","","","","<p><img src= images/blank.png width =""600"" height = ""600"" style=""position:fixed;top:50%; left:50%; transform: translate(-50%, -50%); border:5px solid black"">","","","","",""
"","stimuli-presentation","102","309389","0.0-26.0-1.1","SS1627327018910","","2879.899999976158","trial","","40","500","3379.899999976158","images/stimuli/complex_22_A_b.gif","images/stimuli/complex_18_A_b.gif","forced_short","620","","","","","","5","complex_dissimilar","images/stimuli/complex_18_A_b.gif","",""
"","html-keyboard-response","103","310544","0.0-26.0-0.2","SS1627327018910","","null","","","null","","","","","","","","","","","<p><img src= images/blank.png width =""600"" height = ""600"" style=""position:fixed;top:50%; left:50%; transform: translate(-50%, -50%); border:5px solid black"">","","","","",""
"","stimuli-presentation","104","311180","0.0-26.0-1.2","SS1627327018910","","131.70000004768372","trial","","40","500","631.7000000476837","images/stimuli/complex_22_A_b.gif","images/stimuli/complex_18_A_b.gif","forced_short","620","","","","","","5","complex_dissimilar","images/stimuli/complex_18_A_b.gif","",""
"","html-keyboard-response","105","312468","0.0-26.0-0.3","SS1627327018910","","null","","","null","","","","","","","","","","","<p><img src= images/blank.png width =""600"" height = ""600"" style=""position:fixed;top:50%; left:50%; transform: translate(-50%, -50%); border:5px solid black"">","","","","",""
"","stimuli-presentation","106","314382","0.0-26.0-1.3","SS1627327018910","","1409.7999999523163","trial","","40","500","1909.7999999523163","images/stimuli/complex_22_A_b.gif","images/stimuli/complex_18_A_b.gif","forced_short","620","","","","","","5","complex_dissimilar","images/stimuli/complex_18_A_b.gif","",""
"","html-keyboard-response","107","315414","0.0-26.0-0.4","SS1627327018910","","null","","","null","","","","","","","","","","","<p><img src= images/blank.png width =""600"" height = ""600"" style=""position:fixed;top:50%; left:50%; transform: translate(-50%, -50%); border:5px solid black"">","","","","",""
"","stimuli-presentation","108","316055","0.0-26.0-1.4","SS1627327018910","","136.70000004768372","trial","","40","500","636.7000000476837","images/stimuli/complex_22_A_b.gif","images/stimuli/complex_18_A_b.gif","forced_short","620","","","","","","5","complex_dissimilar","images/stimuli/complex_18_A_b.gif","",""
"","html-keyboard-response","109","317185","0.0-26.0-0.5","SS1627327018910","","null","","","null","","","","","","","","","","","<p><img src= images/blank.png width =""600"" height = ""600"" style=""position:fixed;top:50%; left:50%; transform: translate(-50%, -50%); border:5px solid black"">","","","","",""
"","stimuli-presentation","110","319182","0.0-26.0-1.5","SS1627327018910","","1492.8000000715256","trial","","40","500","1992.8000000715256","images/stimuli/complex_22_A_b.gif","images/stimuli/complex_18_A_b.gif","forced_short","620","","","","","","5","complex_dissimilar","images/stimuli/complex_18_A_b.gif","",""
"","survey-multi-choice","111","324413","0.0-27.0","SS1627327018910","","5227","memory_test","","","","","","","","","{""Q0"":""Yes""}","[0]","images/stimuli/complex_18_A_b.gif","5","","","","","",""
"","survey-multi-choice","112","328363","0.0-28.0","SS1627327018910","","3946","memory_test","","","","","","","","","{""Q0"":""No""}","[0]","images/stimuli/complex_10_A_a.gif","5","","","","","",""
"","html-keyboard-response","113","329308","0.0-29.0-0.0","SS1627327018910","","null","","","null","","","","","","","","","","","<p><img src= images/blank.png width =""600"" height = ""600"" style=""position:fixed;top:50%; left:50%; transform: translate(-50%, -50%); border:5px solid black"">","","","","",""
"","stimuli-presentation","114","330576","0.0-29.0-1.0","SS1627327018910","","562.6000000238419","trial","","40","500","1062.6000000238419","images/stimuli/complex_24_A_a.gif","images/stimuli/complex_19_A_a.gif","forced_short","700","","","","","","6","complex_dissimilar","images/stimuli/complex_19_A_a.gif","",""
"","html-keyboard-response","115","331406","0.0-29.0-0.1","SS1627327018910","","null","","","null","","","","","","","","","","","<p><img src= images/blank.png width =""600"" height = ""600"" style=""position:fixed;top:50%; left:50%; transform: translate(-50%, -50%); border:5px solid black"">","","","","",""
"","stimuli-presentation","116","332338","0.0-29.0-1.1","SS1627327018910","","427.7000000476837","trial","","40","500","927.7000000476837","images/stimuli/complex_24_A_a.gif","images/stimuli/complex_19_A_a.gif","forced_short","700","","","","","","6","complex_dissimilar","images/stimuli/complex_24_A_a.gif","",""
"","html-keyboard-response","117","333354","0.0-29.0-0.2","SS1627327018910","","null","","","null","","","","","","","","","","","<p><img src= images/blank.png width =""600"" height = ""600"" style=""position:fixed;top:50%; left:50%; transform: translate(-50%, -50%); border:5px solid black"">","","","","",""
"","stimuli-presentation","118","334090","0.0-29.0-1.2","SS1627327018910","","231.19999992847443","trial","","40","500","731.1999999284744","images/stimuli/complex_24_A_a.gif","images/stimuli/complex_19_A_a.gif","forced_short","700","","","","","","6","complex_dissimilar","images/stimuli/complex_19_A_a.gif","",""
"","html-keyboard-response","119","335120","0.0-29.0-0.3","SS1627327018910","","null","","","null","","","","","","","","","","","<p><img src= images/blank.png width =""600"" height = ""600"" style=""position:fixed;top:50%; left:50%; transform: translate(-50%, -50%); border:5px solid black"">","","","","",""
"","stimuli-presentation","120","335842","0.0-29.0-1.3","SS1627327018910","","217.29999995231628","trial","","40","500","717.2999999523163","images/stimuli/complex_24_A_a.gif","images/stimuli/complex_19_A_a.gif","forced_short","700","","","","","","6","complex_dissimilar","images/stimuli/complex_19_A_a.gif","",""
"","html-keyboard-response","121","337041","0.0-29.0-0.4","SS1627327018910","","null","","","null","","","","","","","","","","","<p><img src= images/blank.png width =""600"" height = ""600"" style=""position:fixed;top:50%; left:50%; transform: translate(-50%, -50%); border:5px solid black"">","","","","",""
"","stimuli-presentation","122","338516","0.0-29.0-1.4","SS1627327018910","","970.0999999046326","trial","","40","500","1470.0999999046326","images/stimuli/complex_24_A_a.gif","images/stimuli/complex_19_A_a.gif","forced_short","700","","","","","","6","complex_dissimilar","images/stimuli/complex_19_A_a.gif","",""
"","html-keyboard-response","123","339383","0.0-29.0-0.5","SS1627327018910","","null","","","null","","","","","","","","","","","<p><img src= images/blank.png width =""600"" height = ""600"" style=""position:fixed;top:50%; left:50%; transform: translate(-50%, -50%); border:5px solid black"">","","","","",""
"","stimuli-presentation","124","340973","0.0-29.0-1.5","SS1627327018910","","1085.6999999284744","trial","","40","500","1585.6999999284744","images/stimuli/complex_24_A_a.gif","images/stimuli/complex_19_A_a.gif","forced_short","700","","","","","","6","complex_dissimilar","images/stimuli/complex_19_A_a.gif","",""
"","html-keyboard-response","125","341776","0.0-29.0-0.6","SS1627327018910","","null","","","null","","","","","","","","","","","<p><img src= images/blank.png width =""600"" height = ""600"" style=""position:fixed;top:50%; left:50%; transform: translate(-50%, -50%); border:5px solid black"">","","","","",""
"","stimuli-presentation","126","342883","0.0-29.0-1.6","SS1627327018910","","602.8999999761581","trial","","40","500","1102.8999999761581","images/stimuli/complex_24_A_a.gif","images/stimuli/complex_19_A_a.gif","forced_short","700","","","","","","6","complex_dissimilar","images/stimuli/complex_24_A_a.gif","",""
"","survey-multi-choice","127","346683","0.0-30.0","SS1627327018910","","3795.100000023842","memory_test","","","","","","","","","{""Q0"":""Yes""}","[0]","images/stimuli/complex_24_A_a.gif","6","","","","","",""
"","survey-multi-choice","128","351477","0.0-31.0","SS1627327018910","","4789.200000047684","memory_test","","","","","","","","","{""Q0"":""No""}","[0]","images/stimuli/complex_20_A_b.gif","6","","","","","",""
"","html-keyboard-response","129","352371","0.0-32.0-0.0","SS1627327018910","","null","","","null","","","","","","","","","","","<p><img src= images/blank.png width =""600"" height = ""600"" style=""position:fixed;top:50%; left:50%; transform: translate(-50%, -50%); border:5px solid black"">","","","","",""
"","stimuli-presentation","130","356261","0.0-32.0-1.0","SS1627327018910","","2985.1999999284744","trial","","40","500","3485.1999999284744","images/stimuli/complex_16_A_a.gif","images/stimuli/complex_01_A_a.gif","forced_short","900","","","","","","7","complex_dissimilar","images/stimuli/complex_01_A_a.gif","",""
"","html-keyboard-response","131","357514","0.0-32.0-0.1","SS1627327018910","","null","","","null","","","","","","","","","","","<p><img src= images/blank.png width =""600"" height = ""600"" style=""position:fixed;top:50%; left:50%; transform: translate(-50%, -50%); border:5px solid black"">","","","","",""
"","stimuli-presentation","132","359751","0.0-32.0-1.1","SS1627327018910","","1731.3000000715256","trial","","40","500","2231.3000000715256","images/stimuli/complex_16_A_a.gif","images/stimuli/complex_01_A_a.gif","forced_short","900","","","","","","7","complex_dissimilar","images/stimuli/complex_01_A_a.gif","",""
"","html-keyboard-response","133","360823","0.0-32.0-0.2","SS1627327018910","","null","","","null","","","","","","","","","","","<p><img src= images/blank.png width =""600"" height = ""600"" style=""position:fixed;top:50%; left:50%; transform: translate(-50%, -50%); border:5px solid black"">","","","","",""
"","stimuli-presentation","134","361628","0.0-32.0-1.2","SS1627327018910","","300.2000000476837","trial","","40","500","800.2000000476837","images/stimuli/complex_16_A_a.gif","images/stimuli/complex_01_A_a.gif","forced_short","900","","","","","","7","complex_dissimilar","images/stimuli/complex_01_A_a.gif","",""
"","html-keyboard-response","135","362747","0.0-32.0-0.3","SS1627327018910","","null","","","null","","","","","","","","","","","<p><img src= images/blank.png width =""600"" height = ""600"" style=""position:fixed;top:50%; left:50%; transform: translate(-50%, -50%); border:5px solid black"">","","","","",""
"","stimuli-presentation","136","364863","0.0-32.0-1.3","SS1627327018910","","1611.6999999284744","trial","","40","500","2111.6999999284744","images/stimuli/complex_16_A_a.gif","images/stimuli/complex_01_A_a.gif","forced_short","900","","","","","","7","complex_dissimilar","images/stimuli/complex_16_A_a.gif","",""
"","html-keyboard-response","137","365788","0.0-32.0-0.4","SS1627327018910","","null","","","null","","","","","","","","","","","<p><img src= images/blank.png width =""600"" height = ""600"" style=""position:fixed;top:50%; left:50%; transform: translate(-50%, -50%); border:5px solid black"">","","","","",""
"","stimuli-presentation","138","367194","0.0-32.0-1.4","SS1627327018910","","901","trial","","40","500","1401","images/stimuli/complex_16_A_a.gif","images/stimuli/complex_01_A_a.gif","forced_short","900","","","","","","7","complex_dissimilar","images/stimuli/complex_01_A_a.gif","",""
"","html-keyboard-response","139","368422","0.0-32.0-0.5","SS1627327018910","","null","","","null","","","","","","","","","","","<p><img src= images/blank.png width =""600"" height = ""600"" style=""position:fixed;top:50%; left:50%; transform: translate(-50%, -50%); border:5px solid black"">","","","","",""
"","stimuli-presentation","140","370016","0.0-32.0-1.5","SS1627327018910","","1087.7999999523163","trial","","40","500","1587.7999999523163","images/stimuli/complex_16_A_a.gif","images/stimuli/complex_01_A_a.gif","forced_short","900","","","","","","7","complex_dissimilar","images/stimuli/complex_01_A_a.gif","",""
"","html-keyboard-response","141","371041","0.0-32.0-0.6","SS1627327018910","","null","","","null","","","","","","","","","","","<p><img src= images/blank.png width =""600"" height = ""600"" style=""position:fixed;top:50%; left:50%; transform: translate(-50%, -50%); border:5px solid black"">","","","","",""
"","stimuli-presentation","142","371887","0.0-32.0-1.6","SS1627327018910","","342.10000002384186","trial","","40","500","842.1000000238419","images/stimuli/complex_16_A_a.gif","images/stimuli/complex_01_A_a.gif","forced_short","900","","","","","","7","complex_dissimilar","images/stimuli/complex_01_A_a.gif","",""
"","html-keyboard-response","143","372936","0.0-32.0-0.7","SS1627327018910","","null","","","null","","","","","","","","","","","<p><img src= images/blank.png width =""600"" height = ""600"" style=""position:fixed;top:50%; left:50%; transform: translate(-50%, -50%); border:5px solid black"">","","","","",""
"","stimuli-presentation","144","374088","0.0-32.0-1.7","SS1627327018910","","646.8999999761581","trial","","40","500","1146.8999999761581","images/stimuli/complex_16_A_a.gif","images/stimuli/complex_01_A_a.gif","forced_short","900","","","","","","7","complex_dissimilar","images/stimuli/complex_01_A_a.gif","",""
"","survey-multi-choice","145","377779","0.0-33.0","SS1627327018910","","3686","memory_test","","","","","","","","","{""Q0"":""No""}","[0]","images/stimuli/complex_12_A_b.gif","7","","","","","",""
"","survey-multi-choice","146","380641","0.0-34.0","SS1627327018910","","2856.1999999284744","memory_test","","","","","","","","","{""Q0"":""Yes""}","[0]","images/stimuli/complex_01_A_a.gif","7","","","","","",""
"","instructions","147","386128","0.0-35.0","SS1627327018910","[{""page_index"":0,""viewing_time"":5483}]","5484","instructions","","","","","","","","","","","","","","","","","",""
"","survey-likert","148","395779","0.0-36.0","SS1627327018910","","9644.399999976158","similarity_question","","","","","","","","","{""Q0"":4}","[0]","","","","","","","images/stimuli/complex_19_A_a.gif","images/stimuli/complex_24_A_a.gif"
"","survey-likert","149","401662","0.0-37.0","SS1627327018910","","5878.300000071526","similarity_question","","","","","","","","","{""Q0"":1}","[0]","","","","","","","images/stimuli/complex_04_A_b.gif","images/stimuli/complex_23_A_a.gif"
"","survey-likert","150","411348","0.0-38.0","SS1627327018910","","9679.899999976158","similarity_question","","","","","","","","","{""Q0"":2}","[0]","","","","","","","images/stimuli/complex_01_A_a.gif","images/stimuli/complex_16_A_a.gif"
"","survey-likert","151","417347","0.0-39.0","SS1627327018910","","5993.5","similarity_question","","","","","","","","","{""Q0"":3}","[0]","","","","","","","images/stimuli/complex_02_A_b.gif","images/stimuli/complex_07_A_b.gif"
"","survey-likert","152","430370","0.0-40.0","SS1627327018910","","13018.399999976158","similarity_question","","","","","","","","","{""Q0"":4}","[0]","","","","","","","images/stimuli/complex_09_A_a.gif","images/stimuli/complex_21_A_a.gif"
"","survey-likert","153","436366","0.0-41.0","SS1627327018910","","5990.300000071526","similarity_question","","","","","","","","","{""Q0"":3}","[0]","","","","","","","images/stimuli/complex_05_A_b.gif","images/stimuli/complex_06_A_b.gif"
"","survey-likert","154","443126","0.0-42.0","SS1627327018910","","6754.699999928474","similarity_question","","","","","","","","","{""Q0"":5}","[0]","","","","","","","images/stimuli/complex_22_A_b.gif","images/stimuli/complex_18_A_b.gif"
"","survey-likert","155","448005","0.0-43.0","SS1627327018910","","4873.899999976158","similarity_question","","","","","","","","","{""Q0"":0}","[0]","","","","","","","images/stimuli/complex_11_A_a.gif","images/stimuli/complex_14_A_b.gif"
"","instructions","156","453542","0.0-44.0","SS1627327018910","[{""page_index"":0,""viewing_time"":5532.200000047684}]","5533","instructions","","","","","","","","","","","","","","","","","",""
"","survey-likert","157","459335","0.0-45.0","SS1627327018910","","5787.5","","","","","","","","","","{""Q0"":1}","[0]","","","images/stimuli/complex_09_A_a.gif","","","","",""
"","survey-likert","158","466265","0.0-46.0","SS1627327018910","","6925.200000047684","","","","","","","","","","{""Q0"":3}","[0]","","","images/stimuli/complex_02_A_b.gif","","","","",""
"","survey-likert","159","474692","0.0-47.0","SS1627327018910","","8420.900000095367","","","","","","","","","","{""Q0"":6}","[0]","","","images/stimuli/complex_11_A_a.gif","","","","",""
"","survey-likert","160","480955","0.0-48.0","SS1627327018910","","6257.600000023842","","","","","","","","","","{""Q0"":3}","[0]","","","images/stimuli/complex_24_A_a.gif","","","","",""
"","survey-likert","161","485934","0.0-49.0","SS1627327018910","","4973.200000047684","","","","","","","","","","{""Q0"":2}","[0]","","","images/stimuli/complex_01_A_a.gif","","","","",""
"","survey-likert","162","491382","0.0-50.0","SS1627327018910","","5443.399999976158","","","","","","","","","","{""Q0"":4}","[0]","","","images/stimuli/complex_06_A_b.gif","","","","",""
"","survey-likert","163","496327","0.0-51.0","SS1627327018910","","4939.700000047684","","","","","","","","","","{""Q0"":4}","[0]","","","images/stimuli/complex_22_A_b.gif","","","","",""
"","survey-likert","164","500829","0.0-52.0","SS1627327018910","","4497","","","","","","","","","","{""Q0"":3}","[0]","","","images/stimuli/complex_04_A_b.gif","","","","",""
"true","fullscreen","165","501834","0.0-53.0","SS1627327018910","","","","","","","","","","","","","","","","","","","","",""
"","instructions","166","504460","0.0-54.0","SS1627327018910","[{""page_index"":0,""viewing_time"":2622.7999999523163}]","2623.399999976158","instructions","","","","","","","","","","","","","","","","","",""
"","demog-age","167","506595","0.0-55.0","SS1627327018910","","2125","","","","","","","","","","{""age"":""23""}","","","","","","","","",""
"","demog-ethnic-US","168","521254","0.0-56.0","SS1627327018910","","14646.100000023842","","","","","","","","","","{""ethnicity"":[""Asian"",""Hispanic or Latino"",""White""]}","[0]","","","","","","","",""
"","demog-gender-and-education","169","535528","0.0-57.0","SS1627327018910","","14268.5","","","","","","","","","","{""gender"":""Female"",""education"":""High school diploma""}","[0,1]","","","","","","","",""
"","survey-text","170","542416","0.0-58.0","SS1627327018910","","6878.100000023842","feedback","","","","","","","","","{""Q0"":""no""}","","","","","","","","",""
"","instructions","171","546125","0.0-59.0","SS1627327018910","[{""page_index"":0,""viewing_time"":3705.2999999523163}]","3706","instructions","","","","","","","","","","","","","","","","","",""
