"success","trial_type","trial_index","time_elapsed","internal_node_id","subject","view_history","rt","stimulus_type","trial_stimulus","key_press","minimum_viewing_duration","trial_looking_time","block_deviant","block_background","exposure_type","forced_exposure_time","responses","question_order","memory_question_stimuli","memory_block_index","stimulus","block_number","block_type","stimulus_displayed","stimulus_left","stimulus_right"
"true","fullscreen","0","6436","0.0-0.0","SS1627326563764","","","","","","","","","","","","","","","","","","","","",""
"","instructions","1","38955","0.0-1.0","SS1627326563764","[{""page_index"":0,""viewing_time"":32512.60000000149}]","32513.300000000745","","","","","","","","","","","","","","","","","","",""
"","instructions","2","60067","0.0-2.0","SS1627326563764","[{""page_index"":0,""viewing_time"":14930.599999997765},{""page_index"":1,""viewing_time"":4176}]","19106.89999999851","instructions","","","","","","","","","","","","","","","","","",""
"","stimuli-presentation","3","74915","0.0-3.0","SS1627326563764","","14345.39999999851","","","40","500","14845.39999999851","null","null","self_paced","0","","","","","","","","","",""
"","instructions","4","90339","0.0-4.0","SS1627326563764","[{""page_index"":0,""viewing_time"":15420.300000000745}]","15420.5","instructions","","","","","","","","","","","","","","","","","",""
"","stimuli-presentation","5","101954","0.0-5.0","SS1627326563764","","11112.29999999702","","","40","500","11612.29999999702","null","null","forced_short","500","","","","","","","","","",""
"","stimuli-presentation","6","104522","0.0-6.0","SS1627326563764","","2061.099999997765","","","40","500","2561.099999997765","null","null","forced_short","500","","","","","","","","","",""
"","instructions","7","117443","0.0-7.0","SS1627326563764","[{""page_index"":0,""viewing_time"":12917.89999999851}]","12918.199999999255","instructions","","","","","","","","","","","","","","","","","",""
"","survey-multi-choice","8","121419","0.0-8.0","SS1627326563764","","3973.5","memory_test_practice","","","","","","","","","{""Q0"":""Yes""}","[0]","images/practice/instructions_example_spore2.gif","0","","","","","",""
"","survey-multi-choice","9","127179","0.0-9.0","SS1627326563764","","5755","memory_test_practice","","","","","","","","","{""Q0"":""No""}","[0]","images/practice/instructions_example_spore0.gif","0","","","","","",""
"","instructions","10","147555","0.0-10.0","SS1627326563764","[{""page_index"":0,""viewing_time"":18051.300000000745},{""page_index"":1,""viewing_time"":2319.89999999851}]","20371.5","instructions","","","","","","","","","","","","","","","","","",""
"","html-keyboard-response","11","148515","0.0-11.0-0.0","SS1627326563764","","null","","","null","","","","","","","","","","","<p><img src= images/blank.png width =""600"" height = ""600"" style=""position:fixed;top:50%; left:50%; transform: translate(-50%, -50%); border:5px solid black"">","","","","",""
"","stimuli-presentation","12","156719","0.0-11.0-1.0","SS1627326563764","","7799","trial","","40","500","8299","images/stimuli/complex_05_A_a.gif","images/stimuli/complex_23_A_a.gif","forced_short","400","","","","","","0","complex_dissimilar","images/stimuli/complex_23_A_a.gif","",""
"","html-keyboard-response","13","157807","0.0-11.0-0.1","SS1627326563764","","null","","","null","","","","","","","","","","","<p><img src= images/blank.png width =""600"" height = ""600"" style=""position:fixed;top:50%; left:50%; transform: translate(-50%, -50%); border:5px solid black"">","","","","",""
"","stimuli-presentation","14","167183","0.0-11.0-1.1","SS1627326563764","","8867.5","trial","","40","500","9367.5","images/stimuli/complex_05_A_a.gif","images/stimuli/complex_23_A_a.gif","forced_short","400","","","","","","0","complex_dissimilar","images/stimuli/complex_23_A_a.gif","",""
"","html-keyboard-response","15","168166","0.0-11.0-0.2","SS1627326563764","","null","","","null","","","","","","","","","","","<p><img src= images/blank.png width =""600"" height = ""600"" style=""position:fixed;top:50%; left:50%; transform: translate(-50%, -50%); border:5px solid black"">","","","","",""
"","stimuli-presentation","16","179703","0.0-11.0-1.2","SS1627326563764","","11029.10000000149","trial","","40","500","11529.10000000149","images/stimuli/complex_05_A_a.gif","images/stimuli/complex_23_A_a.gif","forced_short","400","","","","","","0","complex_dissimilar","images/stimuli/complex_23_A_a.gif","",""
"","html-keyboard-response","17","180557","0.0-11.0-0.3","SS1627326563764","","null","","","null","","","","","","","","","","","<p><img src= images/blank.png width =""600"" height = ""600"" style=""position:fixed;top:50%; left:50%; transform: translate(-50%, -50%); border:5px solid black"">","","","","",""
"","stimuli-presentation","18","185380","0.0-11.0-1.3","SS1627326563764","","4315.099999997765","trial","","40","500","4815.099999997765","images/stimuli/complex_05_A_a.gif","images/stimuli/complex_23_A_a.gif","forced_short","400","","","","","","0","complex_dissimilar","images/stimuli/complex_23_A_a.gif","",""
"","html-keyboard-response","19","186417","0.0-11.0-0.4","SS1627326563764","","null","","","null","","","","","","","","","","","<p><img src= images/blank.png width =""600"" height = ""600"" style=""position:fixed;top:50%; left:50%; transform: translate(-50%, -50%); border:5px solid black"">","","","","",""
"","stimuli-presentation","20","194950","0.0-11.0-1.4","SS1627326563764","","8015.29999999702","trial","","40","500","8515.29999999702","images/stimuli/complex_05_A_a.gif","images/stimuli/complex_23_A_a.gif","forced_short","400","","","","","","0","complex_dissimilar","images/stimuli/complex_23_A_a.gif","",""
"","html-keyboard-response","21","195936","0.0-11.0-0.5","SS1627326563764","","null","","","null","","","","","","","","","","","<p><img src= images/blank.png width =""600"" height = ""600"" style=""position:fixed;top:50%; left:50%; transform: translate(-50%, -50%); border:5px solid black"">","","","","",""
"","stimuli-presentation","22","200614","0.0-11.0-1.5","SS1627326563764","","4171.699999999255","trial","","40","500","4671.699999999255","images/stimuli/complex_05_A_a.gif","images/stimuli/complex_23_A_a.gif","forced_short","400","","","","","","0","complex_dissimilar","images/stimuli/complex_23_A_a.gif","",""
"","html-keyboard-response","23","201885","0.0-11.0-0.6","SS1627326563764","","null","","","null","","","","","","","","","","","<p><img src= images/blank.png width =""600"" height = ""600"" style=""position:fixed;top:50%; left:50%; transform: translate(-50%, -50%); border:5px solid black"">","","","","",""
"","stimuli-presentation","24","209857","0.0-11.0-1.6","SS1627326563764","","7462.800000000745","trial","","40","500","7962.800000000745","images/stimuli/complex_05_A_a.gif","images/stimuli/complex_23_A_a.gif","forced_short","400","","","","","","0","complex_dissimilar","images/stimuli/complex_05_A_a.gif","",""
"","survey-multi-choice","25","213699","0.0-12.0","SS1627326563764","","3836.89999999851","memory_test","","","","","","","","","{""Q0"":""Yes""}","[0]","images/stimuli/complex_05_A_a.gif","0","","","","","",""
"","survey-multi-choice","26","217851","0.0-13.0","SS1627326563764","","4147.199999999255","memory_test","","","","","","","","","{""Q0"":""No""}","[0]","images/stimuli/complex_07_A_a.gif","0","","","","","",""
"","html-keyboard-response","27","218680","0.0-14.0-0.0","SS1627326563764","","null","","","null","","","","","","","","","","","<p><img src= images/blank.png width =""600"" height = ""600"" style=""position:fixed;top:50%; left:50%; transform: translate(-50%, -50%); border:5px solid black"">","","","","",""
"","stimuli-presentation","28","222667","0.0-14.0-1.0","SS1627326563764","","3509.199999999255","trial","","40","500","4009.199999999255","images/stimuli/complex_24_A_a.gif","images/stimuli/complex_04_A_a.gif","forced_short","470","","","","","","1","complex_dissimilar","images/stimuli/complex_04_A_a.gif","",""
"","html-keyboard-response","29","223514","0.0-14.0-0.1","SS1627326563764","","null","","","null","","","","","","","","","","","<p><img src= images/blank.png width =""600"" height = ""600"" style=""position:fixed;top:50%; left:50%; transform: translate(-50%, -50%); border:5px solid black"">","","","","",""
"","stimuli-presentation","30","230684","0.0-14.0-1.1","SS1627326563764","","6664.099999997765","trial","","40","500","7164.099999997765","images/stimuli/complex_24_A_a.gif","images/stimuli/complex_04_A_a.gif","forced_short","470","","","","","","1","complex_dissimilar","images/stimuli/complex_04_A_a.gif","",""
"","html-keyboard-response","31","231954","0.0-14.0-0.2","SS1627326563764","","null","","","null","","","","","","","","","","","<p><img src= images/blank.png width =""600"" height = ""600"" style=""position:fixed;top:50%; left:50%; transform: translate(-50%, -50%); border:5px solid black"">","","","","",""
"","stimuli-presentation","32","235638","0.0-14.0-1.2","SS1627326563764","","3167.699999999255","trial","","40","500","3667.699999999255","images/stimuli/complex_24_A_a.gif","images/stimuli/complex_04_A_a.gif","forced_short","470","","","","","","1","complex_dissimilar","images/stimuli/complex_04_A_a.gif","",""
"","html-keyboard-response","33","236621","0.0-14.0-0.3","SS1627326563764","","null","","","null","","","","","","","","","","","<p><img src= images/blank.png width =""600"" height = ""600"" style=""position:fixed;top:50%; left:50%; transform: translate(-50%, -50%); border:5px solid black"">","","","","",""
"","stimuli-presentation","34","240841","0.0-14.0-1.3","SS1627326563764","","3720.800000000745","trial","","40","500","4220.800000000745","images/stimuli/complex_24_A_a.gif","images/stimuli/complex_04_A_a.gif","forced_short","470","","","","","","1","complex_dissimilar","images/stimuli/complex_04_A_a.gif","",""
"","html-keyboard-response","35","241814","0.0-14.0-0.4","SS1627326563764","","null","","","null","","","","","","","","","","","<p><img src= images/blank.png width =""600"" height = ""600"" style=""position:fixed;top:50%; left:50%; transform: translate(-50%, -50%); border:5px solid black"">","","","","",""
"","stimuli-presentation","36","246057","0.0-14.0-1.4","SS1627326563764","","3735.300000000745","trial","","40","500","4235.300000000745","images/stimuli/complex_24_A_a.gif","images/stimuli/complex_04_A_a.gif","forced_short","470","","","","","","1","complex_dissimilar","images/stimuli/complex_04_A_a.gif","",""
"","html-keyboard-response","37","247120","0.0-14.0-0.5","SS1627326563764","","null","","","null","","","","","","","","","","","<p><img src= images/blank.png width =""600"" height = ""600"" style=""position:fixed;top:50%; left:50%; transform: translate(-50%, -50%); border:5px solid black"">","","","","",""
"","stimuli-presentation","38","253265","0.0-14.0-1.5","SS1627326563764","","5635.900000002235","trial","","40","500","6135.900000002235","images/stimuli/complex_24_A_a.gif","images/stimuli/complex_04_A_a.gif","forced_short","470","","","","","","1","complex_dissimilar","images/stimuli/complex_04_A_a.gif","",""
"","survey-multi-choice","39","257258","0.0-15.0","SS1627326563764","","3988.39999999851","memory_test","","","","","","","","","{""Q0"":""No""}","[0]","images/stimuli/complex_09_A_a.gif","1","","","","","",""
"","survey-multi-choice","40","260682","0.0-16.0","SS1627326563764","","3418.900000002235","memory_test","","","","","","","","","{""Q0"":""Yes""}","[0]","images/stimuli/complex_04_A_a.gif","1","","","","","",""
"","html-keyboard-response","41","261759","0.0-17.0-0.0","SS1627326563764","","null","","","null","","","","","","","","","","","<p><img src= images/blank.png width =""600"" height = ""600"" style=""position:fixed;top:50%; left:50%; transform: translate(-50%, -50%); border:5px solid black"">","","","","",""
"","stimuli-presentation","42","266691","0.0-17.0-1.0","SS1627326563764","","4313.39999999851","trial","","40","500","4813.39999999851","images/stimuli/complex_02_A_a.gif","images/stimuli/complex_01_A_b.gif","forced_short","600","","","","","","2","complex_dissimilar","images/stimuli/complex_01_A_b.gif","",""
"","html-keyboard-response","43","267590","0.0-17.0-0.1","SS1627326563764","","null","","","null","","","","","","","","","","","<p><img src= images/blank.png width =""600"" height = ""600"" style=""position:fixed;top:50%; left:50%; transform: translate(-50%, -50%); border:5px solid black"">","","","","",""
"","stimuli-presentation","44","276478","0.0-17.0-1.1","SS1627326563764","","8379.300000000745","trial","","40","500","8879.300000000745","images/stimuli/complex_02_A_a.gif","images/stimuli/complex_01_A_b.gif","forced_short","600","","","","","","2","complex_dissimilar","images/stimuli/complex_01_A_b.gif","",""
"","html-keyboard-response","45","277411","0.0-17.0-0.2","SS1627326563764","","null","","","null","","","","","","","","","","","<p><img src= images/blank.png width =""600"" height = ""600"" style=""position:fixed;top:50%; left:50%; transform: translate(-50%, -50%); border:5px solid black"">","","","","",""
"","stimuli-presentation","46","281356","0.0-17.0-1.2","SS1627326563764","","3440.2999999970198","trial","","40","500","3940.2999999970198","images/stimuli/complex_02_A_a.gif","images/stimuli/complex_01_A_b.gif","forced_short","600","","","","","","2","complex_dissimilar","images/stimuli/complex_01_A_b.gif","",""
"","html-keyboard-response","47","282343","0.0-17.0-0.3","SS1627326563764","","null","","","null","","","","","","","","","","","<p><img src= images/blank.png width =""600"" height = ""600"" style=""position:fixed;top:50%; left:50%; transform: translate(-50%, -50%); border:5px solid black"">","","","","",""
"","stimuli-presentation","48","286527","0.0-17.0-1.3","SS1627326563764","","3672","trial","","40","500","4172","images/stimuli/complex_02_A_a.gif","images/stimuli/complex_01_A_b.gif","forced_short","600","","","","","","2","complex_dissimilar","images/stimuli/complex_01_A_b.gif","",""
"","html-keyboard-response","49","287813","0.0-17.0-0.4","SS1627326563764","","null","","","null","","","","","","","","","","","<p><img src= images/blank.png width =""600"" height = ""600"" style=""position:fixed;top:50%; left:50%; transform: translate(-50%, -50%); border:5px solid black"">","","","","",""
"","stimuli-presentation","50","291261","0.0-17.0-1.4","SS1627326563764","","2938.300000000745","trial","","40","500","3438.300000000745","images/stimuli/complex_02_A_a.gif","images/stimuli/complex_01_A_b.gif","forced_short","600","","","","","","2","complex_dissimilar","images/stimuli/complex_01_A_b.gif","",""
"","html-keyboard-response","51","292126","0.0-17.0-0.5","SS1627326563764","","null","","","null","","","","","","","","","","","<p><img src= images/blank.png width =""600"" height = ""600"" style=""position:fixed;top:50%; left:50%; transform: translate(-50%, -50%); border:5px solid black"">","","","","",""
"","stimuli-presentation","52","296360","0.0-17.0-1.5","SS1627326563764","","3712.599999997765","trial","","40","500","4212.599999997765","images/stimuli/complex_02_A_a.gif","images/stimuli/complex_01_A_b.gif","forced_short","600","","","","","","2","complex_dissimilar","images/stimuli/complex_01_A_b.gif","",""
"","survey-multi-choice","53","299554","0.0-18.0","SS1627326563764","","3187.699999999255","memory_test","","","","","","","","","{""Q0"":""No""}","[0]","images/stimuli/complex_11_A_a.gif","2","","","","","",""
"","survey-multi-choice","54","302963","0.0-19.0","SS1627326563764","","3394.800000000745","memory_test","","","","","","","","","{""Q0"":""Yes""}","[0]","images/stimuli/complex_01_A_b.gif","2","","","","","",""
"","html-keyboard-response","55","304034","0.0-20.0-0.0","SS1627326563764","","null","","","null","","","","","","","","","","","<p><img src= images/blank.png width =""600"" height = ""600"" style=""position:fixed;top:50%; left:50%; transform: translate(-50%, -50%); border:5px solid black"">","","","","",""
"","stimuli-presentation","56","306378","0.0-20.0-1.0","SS1627326563764","","2066.699999999255","trial","","40","500","2566.699999999255","images/stimuli/complex_06_A_b.gif","images/stimuli/complex_13_A_a.gif","forced_short","260","","","","","","3","complex_dissimilar","images/stimuli/complex_13_A_a.gif","",""
"","html-keyboard-response","57","307647","0.0-20.0-0.1","SS1627326563764","","null","","","null","","","","","","","","","","","<p><img src= images/blank.png width =""600"" height = ""600"" style=""position:fixed;top:50%; left:50%; transform: translate(-50%, -50%); border:5px solid black"">","","","","",""
"","stimuli-presentation","58","315000","0.0-20.0-1.1","SS1627326563764","","6845.10000000149","trial","","40","500","7345.10000000149","images/stimuli/complex_06_A_b.gif","images/stimuli/complex_13_A_a.gif","forced_short","260","","","","","","3","complex_dissimilar","images/stimuli/complex_13_A_a.gif","",""
"","html-keyboard-response","59","315857","0.0-20.0-0.2","SS1627326563764","","null","","","null","","","","","","","","","","","<p><img src= images/blank.png width =""600"" height = ""600"" style=""position:fixed;top:50%; left:50%; transform: translate(-50%, -50%); border:5px solid black"">","","","","",""
"","stimuli-presentation","60","320535","0.0-20.0-1.2","SS1627326563764","","4169.199999999255","trial","","40","500","4669.199999999255","images/stimuli/complex_06_A_b.gif","images/stimuli/complex_13_A_a.gif","forced_short","260","","","","","","3","complex_dissimilar","images/stimuli/complex_06_A_b.gif","",""
"","html-keyboard-response","61","321441","0.0-20.0-0.3","SS1627326563764","","null","","","null","","","","","","","","","","","<p><img src= images/blank.png width =""600"" height = ""600"" style=""position:fixed;top:50%; left:50%; transform: translate(-50%, -50%); border:5px solid black"">","","","","",""
"","stimuli-presentation","62","327229","0.0-20.0-1.3","SS1627326563764","","5279","trial","","40","500","5779","images/stimuli/complex_06_A_b.gif","images/stimuli/complex_13_A_a.gif","forced_short","260","","","","","","3","complex_dissimilar","images/stimuli/complex_13_A_a.gif","",""
"","html-keyboard-response","63","328212","0.0-20.0-0.4","SS1627326563764","","null","","","null","","","","","","","","","","","<p><img src= images/blank.png width =""600"" height = ""600"" style=""position:fixed;top:50%; left:50%; transform: translate(-50%, -50%); border:5px solid black"">","","","","",""
"","stimuli-presentation","64","332496","0.0-20.0-1.4","SS1627326563764","","3775.60000000149","trial","","40","500","4275.60000000149","images/stimuli/complex_06_A_b.gif","images/stimuli/complex_13_A_a.gif","forced_short","260","","","","","","3","complex_dissimilar","images/stimuli/complex_13_A_a.gif","",""
"","html-keyboard-response","65","333349","0.0-20.0-0.5","SS1627326563764","","null","","","null","","","","","","","","","","","<p><img src= images/blank.png width =""600"" height = ""600"" style=""position:fixed;top:50%; left:50%; transform: translate(-50%, -50%); border:5px solid black"">","","","","",""
"","stimuli-presentation","66","336493","0.0-20.0-1.5","SS1627326563764","","2631.300000000745","trial","","40","500","3131.300000000745","images/stimuli/complex_06_A_b.gif","images/stimuli/complex_13_A_a.gif","forced_short","260","","","","","","3","complex_dissimilar","images/stimuli/complex_13_A_a.gif","",""
"","html-keyboard-response","67","337757","0.0-20.0-0.6","SS1627326563764","","null","","","null","","","","","","","","","","","<p><img src= images/blank.png width =""600"" height = ""600"" style=""position:fixed;top:50%; left:50%; transform: translate(-50%, -50%); border:5px solid black"">","","","","",""
"","stimuli-presentation","68","341977","0.0-20.0-1.6","SS1627326563764","","3711.2000000029802","trial","","40","500","4211.20000000298","images/stimuli/complex_06_A_b.gif","images/stimuli/complex_13_A_a.gif","forced_short","260","","","","","","3","complex_dissimilar","images/stimuli/complex_13_A_a.gif","",""
"","html-keyboard-response","69","343101","0.0-20.0-0.7","SS1627326563764","","null","","","null","","","","","","","","","","","<p><img src= images/blank.png width =""600"" height = ""600"" style=""position:fixed;top:50%; left:50%; transform: translate(-50%, -50%); border:5px solid black"">","","","","",""
"","stimuli-presentation","70","344932","0.0-20.0-1.7","SS1627326563764","","1313","trial","","40","500","1813","images/stimuli/complex_06_A_b.gif","images/stimuli/complex_13_A_a.gif","forced_short","260","","","","","","3","complex_dissimilar","images/stimuli/complex_13_A_a.gif","",""
"","survey-multi-choice","71","349651","0.0-21.0","SS1627326563764","","4712.29999999702","memory_test","","","","","","","","","{""Q0"":""Yes""}","[0]","images/stimuli/complex_13_A_a.gif","3","","","","","",""
"","survey-multi-choice","72","354995","0.0-22.0","SS1627326563764","","5338.699999999255","memory_test","","","","","","","","","{""Q0"":""No""}","[0]","images/stimuli/complex_10_A_b.gif","3","","","","","",""
"","html-keyboard-response","73","355945","0.0-23.0-0.0","SS1627326563764","","null","","","null","","","","","","","","","","","<p><img src= images/blank.png width =""600"" height = ""600"" style=""position:fixed;top:50%; left:50%; transform: translate(-50%, -50%); border:5px solid black"">","","","","",""
"","stimuli-presentation","74","357856","0.0-23.0-1.0","SS1627326563764","","1137.699999999255","trial","","40","500","1637.699999999255","images/stimuli/complex_17_A_a.gif","images/stimuli/complex_21_A_b.gif","forced_short","750","","","","","","4","complex_dissimilar","images/stimuli/complex_21_A_b.gif","",""
"","html-keyboard-response","75","358678","0.0-23.0-0.1","SS1627326563764","","null","","","null","","","","","","","","","","","<p><img src= images/blank.png width =""600"" height = ""600"" style=""position:fixed;top:50%; left:50%; transform: translate(-50%, -50%); border:5px solid black"">","","","","",""
"","stimuli-presentation","76","365164","0.0-23.0-1.1","SS1627326563764","","5975.400000002235","trial","","40","500","6475.400000002235","images/stimuli/complex_17_A_a.gif","images/stimuli/complex_21_A_b.gif","forced_short","750","","","","","","4","complex_dissimilar","images/stimuli/complex_21_A_b.gif","",""
"","html-keyboard-response","77","366395","0.0-23.0-0.2","SS1627326563764","","null","","","null","","","","","","","","","","","<p><img src= images/blank.png width =""600"" height = ""600"" style=""position:fixed;top:50%; left:50%; transform: translate(-50%, -50%); border:5px solid black"">","","","","",""
"","stimuli-presentation","78","370904","0.0-23.0-1.2","SS1627326563764","","3999.599999997765","trial","","40","500","4499.599999997765","images/stimuli/complex_17_A_a.gif","images/stimuli/complex_21_A_b.gif","forced_short","750","","","","","","4","complex_dissimilar","images/stimuli/complex_21_A_b.gif","",""
"","html-keyboard-response","79","371915","0.0-23.0-0.3","SS1627326563764","","null","","","null","","","","","","","","","","","<p><img src= images/blank.png width =""600"" height = ""600"" style=""position:fixed;top:50%; left:50%; transform: translate(-50%, -50%); border:5px solid black"">","","","","",""
"","stimuli-presentation","80","428401","0.0-23.0-1.3","SS1627326563764","","55981.099999997765","trial","","40","500","56481.099999997765","images/stimuli/complex_17_A_a.gif","images/stimuli/complex_21_A_b.gif","forced_short","750","","","","","","4","complex_dissimilar","images/stimuli/complex_21_A_b.gif","",""
"","html-keyboard-response","81","429674","0.0-23.0-0.4","SS1627326563764","","null","","","null","","","","","","","","","","","<p><img src= images/blank.png width =""600"" height = ""600"" style=""position:fixed;top:50%; left:50%; transform: translate(-50%, -50%); border:5px solid black"">","","","","",""
"","stimuli-presentation","82","431168","0.0-23.0-1.4","SS1627326563764","","982.4000000022352","trial","","40","500","1482.4000000022352","images/stimuli/complex_17_A_a.gif","images/stimuli/complex_21_A_b.gif","forced_short","750","","","","","","4","complex_dissimilar","images/stimuli/complex_21_A_b.gif","",""
"","html-keyboard-response","83","432342","0.0-23.0-0.5","SS1627326563764","","null","","","null","","","","","","","","","","","<p><img src= images/blank.png width =""600"" height = ""600"" style=""position:fixed;top:50%; left:50%; transform: translate(-50%, -50%); border:5px solid black"">","","","","",""
"","stimuli-presentation","84","433931","0.0-23.0-1.5","SS1627326563764","","1074.800000000745","trial","","40","500","1574.800000000745","images/stimuli/complex_17_A_a.gif","images/stimuli/complex_21_A_b.gif","forced_short","750","","","","","","4","complex_dissimilar","images/stimuli/complex_21_A_b.gif","",""
"","survey-multi-choice","85","436059","0.0-24.0","SS1627326563764","","2120.10000000149","memory_test","","","","","","","","","{""Q0"":""Yes""}","[0]","images/stimuli/complex_21_A_b.gif","4","","","","","",""
"","survey-multi-choice","86","440515","0.0-25.0","SS1627326563764","","4450.800000000745","memory_test","","","","","","","","","{""Q0"":""No""}","[0]","images/stimuli/complex_15_A_a.gif","4","","","","","",""
"","html-keyboard-response","87","441359","0.0-26.0-0.0","SS1627326563764","","null","","","null","","","","","","","","","","","<p><img src= images/blank.png width =""600"" height = ""600"" style=""position:fixed;top:50%; left:50%; transform: translate(-50%, -50%); border:5px solid black"">","","","","",""
"","stimuli-presentation","88","443028","0.0-26.0-1.0","SS1627326563764","","826.6999999992549","trial","","40","500","1326.699999999255","images/stimuli/complex_22_A_b.gif","images/stimuli/complex_20_A_a.gif","forced_short","830","","","","","","5","complex_dissimilar","images/stimuli/complex_20_A_a.gif","",""
"","html-keyboard-response","89","443927","0.0-26.0-0.1","SS1627326563764","","null","","","null","","","","","","","","","","","<p><img src= images/blank.png width =""600"" height = ""600"" style=""position:fixed;top:50%; left:50%; transform: translate(-50%, -50%); border:5px solid black"">","","","","",""
"","stimuli-presentation","90","452204","0.0-26.0-1.1","SS1627326563764","","7752.900000002235","trial","","40","500","8252.900000002235","images/stimuli/complex_22_A_b.gif","images/stimuli/complex_20_A_a.gif","forced_short","830","","","","","","5","complex_dissimilar","images/stimuli/complex_20_A_a.gif","",""
"","html-keyboard-response","91","453450","0.0-26.0-0.2","SS1627326563764","","null","","","null","","","","","","","","","","","<p><img src= images/blank.png width =""600"" height = ""600"" style=""position:fixed;top:50%; left:50%; transform: translate(-50%, -50%); border:5px solid black"">","","","","",""
"","stimuli-presentation","92","459744","0.0-26.0-1.2","SS1627326563764","","5783.800000000745","trial","","40","500","6283.800000000745","images/stimuli/complex_22_A_b.gif","images/stimuli/complex_20_A_a.gif","forced_short","830","","","","","","5","complex_dissimilar","images/stimuli/complex_22_A_b.gif","",""
"","html-keyboard-response","93","460597","0.0-26.0-0.3","SS1627326563764","","null","","","null","","","","","","","","","","","<p><img src= images/blank.png width =""600"" height = ""600"" style=""position:fixed;top:50%; left:50%; transform: translate(-50%, -50%); border:5px solid black"">","","","","",""
"","stimuli-presentation","94","465307","0.0-26.0-1.3","SS1627326563764","","4201.5","trial","","40","500","4701.5","images/stimuli/complex_22_A_b.gif","images/stimuli/complex_20_A_a.gif","forced_short","830","","","","","","5","complex_dissimilar","images/stimuli/complex_20_A_a.gif","",""
"","html-keyboard-response","95","466150","0.0-26.0-0.4","SS1627326563764","","null","","","null","","","","","","","","","","","<p><img src= images/blank.png width =""600"" height = ""600"" style=""position:fixed;top:50%; left:50%; transform: translate(-50%, -50%); border:5px solid black"">","","","","",""
"","stimuli-presentation","96","469263","0.0-26.0-1.4","SS1627326563764","","2602.5","trial","","40","500","3102.5","images/stimuli/complex_22_A_b.gif","images/stimuli/complex_20_A_a.gif","forced_short","830","","","","","","5","complex_dissimilar","images/stimuli/complex_20_A_a.gif","",""
"","html-keyboard-response","97","470378","0.0-26.0-0.5","SS1627326563764","","null","","","null","","","","","","","","","","","<p><img src= images/blank.png width =""600"" height = ""600"" style=""position:fixed;top:50%; left:50%; transform: translate(-50%, -50%); border:5px solid black"">","","","","",""
"","stimuli-presentation","98","472898","0.0-26.0-1.5","SS1627326563764","","2000.5999999977648","trial","","40","500","2500.599999997765","images/stimuli/complex_22_A_b.gif","images/stimuli/complex_20_A_a.gif","forced_short","830","","","","","","5","complex_dissimilar","images/stimuli/complex_20_A_a.gif","",""
"","html-keyboard-response","99","473719","0.0-26.0-0.6","SS1627326563764","","null","","","null","","","","","","","","","","","<p><img src= images/blank.png width =""600"" height = ""600"" style=""position:fixed;top:50%; left:50%; transform: translate(-50%, -50%); border:5px solid black"">","","","","",""
"","stimuli-presentation","100","476430","0.0-26.0-1.6","SS1627326563764","","2206.2999999970198","trial","","40","500","2706.2999999970198","images/stimuli/complex_22_A_b.gif","images/stimuli/complex_20_A_a.gif","forced_short","830","","","","","","5","complex_dissimilar","images/stimuli/complex_20_A_a.gif","",""
"","html-keyboard-response","101","477635","0.0-26.0-0.7","SS1627326563764","","null","","","null","","","","","","","","","","","<p><img src= images/blank.png width =""600"" height = ""600"" style=""position:fixed;top:50%; left:50%; transform: translate(-50%, -50%); border:5px solid black"">","","","","",""
"","stimuli-presentation","102","480051","0.0-26.0-1.7","SS1627326563764","","1907.0999999977648","trial","","40","500","2407.099999997765","images/stimuli/complex_22_A_b.gif","images/stimuli/complex_20_A_a.gif","forced_short","830","","","","","","5","complex_dissimilar","images/stimuli/complex_20_A_a.gif","",""
"","survey-multi-choice","103","483307","0.0-27.0","SS1627326563764","","3247.800000000745","memory_test","","","","","","","","","{""Q0"":""Yes""}","[0]","images/stimuli/complex_22_A_b.gif","5","","","","","",""
"","survey-multi-choice","104","486371","0.0-28.0","SS1627326563764","","3058.60000000149","memory_test","","","","","","","","","{""Q0"":""No""}","[0]","images/stimuli/complex_18_A_a.gif","5","","","","","",""
"","html-keyboard-response","105","487566","0.0-29.0-0.0","SS1627326563764","","null","","","null","","","","","","","","","","","<p><img src= images/blank.png width =""600"" height = ""600"" style=""position:fixed;top:50%; left:50%; transform: translate(-50%, -50%); border:5px solid black"">","","","","",""
"","stimuli-presentation","106","489376","0.0-29.0-1.0","SS1627326563764","","895.7000000029802","trial","","40","500","1395.7000000029802","images/stimuli/complex_19_A_b.gif","images/stimuli/complex_03_A_b.gif","forced_short","900","","","","","","6","complex_dissimilar","images/stimuli/complex_03_A_b.gif","",""
"","html-keyboard-response","107","490594","0.0-29.0-0.1","SS1627326563764","","null","","","null","","","","","","","","","","","<p><img src= images/blank.png width =""600"" height = ""600"" style=""position:fixed;top:50%; left:50%; transform: translate(-50%, -50%); border:5px solid black"">","","","","",""
"","stimuli-presentation","108","493940","0.0-29.0-1.1","SS1627326563764","","2836.5","trial","","40","500","3336.5","images/stimuli/complex_19_A_b.gif","images/stimuli/complex_03_A_b.gif","forced_short","900","","","","","","6","complex_dissimilar","images/stimuli/complex_03_A_b.gif","",""
"","html-keyboard-response","109","494790","0.0-29.0-0.2","SS1627326563764","","null","","","null","","","","","","","","","","","<p><img src= images/blank.png width =""600"" height = ""600"" style=""position:fixed;top:50%; left:50%; transform: translate(-50%, -50%); border:5px solid black"">","","","","",""
"","stimuli-presentation","110","496623","0.0-29.0-1.2","SS1627326563764","","1321.1000000014901","trial","","40","500","1821.1000000014901","images/stimuli/complex_19_A_b.gif","images/stimuli/complex_03_A_b.gif","forced_short","900","","","","","","6","complex_dissimilar","images/stimuli/complex_03_A_b.gif","",""
"","html-keyboard-response","111","497787","0.0-29.0-0.3","SS1627326563764","","null","","","null","","","","","","","","","","","<p><img src= images/blank.png width =""600"" height = ""600"" style=""position:fixed;top:50%; left:50%; transform: translate(-50%, -50%); border:5px solid black"">","","","","",""
"","stimuli-presentation","112","500115","0.0-29.0-1.3","SS1627326563764","","1822.699999999255","trial","","40","500","2322.699999999255","images/stimuli/complex_19_A_b.gif","images/stimuli/complex_03_A_b.gif","forced_short","900","","","","","","6","complex_dissimilar","images/stimuli/complex_03_A_b.gif","",""
"","html-keyboard-response","113","500941","0.0-29.0-0.4","SS1627326563764","","null","","","null","","","","","","","","","","","<p><img src= images/blank.png width =""600"" height = ""600"" style=""position:fixed;top:50%; left:50%; transform: translate(-50%, -50%); border:5px solid black"">","","","","",""
"","stimuli-presentation","114","502023","0.0-29.0-1.4","SS1627326563764","","569.1999999992549","trial","","40","500","1069.199999999255","images/stimuli/complex_19_A_b.gif","images/stimuli/complex_03_A_b.gif","forced_short","900","","","","","","6","complex_dissimilar","images/stimuli/complex_03_A_b.gif","",""
"","html-keyboard-response","115","503037","0.0-29.0-0.5","SS1627326563764","","null","","","null","","","","","","","","","","","<p><img src= images/blank.png width =""600"" height = ""600"" style=""position:fixed;top:50%; left:50%; transform: translate(-50%, -50%); border:5px solid black"">","","","","",""
"","stimuli-presentation","116","504403","0.0-29.0-1.5","SS1627326563764","","846.0999999977648","trial","","40","500","1346.0999999977648","images/stimuli/complex_19_A_b.gif","images/stimuli/complex_03_A_b.gif","forced_short","900","","","","","","6","complex_dissimilar","images/stimuli/complex_03_A_b.gif","",""
"","html-keyboard-response","117","505690","0.0-29.0-0.6","SS1627326563764","","null","","","null","","","","","","","","","","","<p><img src= images/blank.png width =""600"" height = ""600"" style=""position:fixed;top:50%; left:50%; transform: translate(-50%, -50%); border:5px solid black"">","","","","",""
"","stimuli-presentation","118","506923","0.0-29.0-1.6","SS1627326563764","","713.2999999970198","trial","","40","500","1213.2999999970198","images/stimuli/complex_19_A_b.gif","images/stimuli/complex_03_A_b.gif","forced_short","900","","","","","","6","complex_dissimilar","images/stimuli/complex_03_A_b.gif","",""
"","survey-multi-choice","119","509859","0.0-30.0","SS1627326563764","","2928.7000000029802","memory_test","","","","","","","","","{""Q0"":""No""}","[0]","images/stimuli/complex_12_A_b.gif","6","","","","","",""
"","survey-multi-choice","120","512619","0.0-31.0","SS1627326563764","","2753.39999999851","memory_test","","","","","","","","","{""Q0"":""Yes""}","[0]","images/stimuli/complex_03_A_b.gif","6","","","","","",""
"","html-keyboard-response","121","513830","0.0-32.0-0.0","SS1627326563764","","null","","","null","","","","","","","","","","","<p><img src= images/blank.png width =""600"" height = ""600"" style=""position:fixed;top:50%; left:50%; transform: translate(-50%, -50%); border:5px solid black"">","","","","",""
"","stimuli-presentation","122","516075","0.0-32.0-1.0","SS1627326563764","","1744.300000000745","trial","","40","500","2244.300000000745","images/stimuli/complex_14_A_b.gif","images/stimuli/complex_08_A_a.gif","forced_short","480","","","","","","7","complex_dissimilar","images/stimuli/complex_08_A_a.gif","",""
"","html-keyboard-response","123","517221","0.0-32.0-0.1","SS1627326563764","","null","","","null","","","","","","","","","","","<p><img src= images/blank.png width =""600"" height = ""600"" style=""position:fixed;top:50%; left:50%; transform: translate(-50%, -50%); border:5px solid black"">","","","","",""
"","stimuli-presentation","124","524609","0.0-32.0-1.1","SS1627326563764","","6878.400000002235","trial","","40","500","7378.400000002235","images/stimuli/complex_14_A_b.gif","images/stimuli/complex_08_A_a.gif","forced_short","480","","","","","","7","complex_dissimilar","images/stimuli/complex_08_A_a.gif","",""
"","html-keyboard-response","125","525526","0.0-32.0-0.2","SS1627326563764","","null","","","null","","","","","","","","","","","<p><img src= images/blank.png width =""600"" height = ""600"" style=""position:fixed;top:50%; left:50%; transform: translate(-50%, -50%); border:5px solid black"">","","","","",""
"","stimuli-presentation","126","529010","0.0-32.0-1.2","SS1627326563764","","2967","trial","","40","500","3467","images/stimuli/complex_14_A_b.gif","images/stimuli/complex_08_A_a.gif","forced_short","480","","","","","","7","complex_dissimilar","images/stimuli/complex_08_A_a.gif","",""
"","html-keyboard-response","127","530319","0.0-32.0-0.3","SS1627326563764","","null","","","null","","","","","","","","","","","<p><img src= images/blank.png width =""600"" height = ""600"" style=""position:fixed;top:50%; left:50%; transform: translate(-50%, -50%); border:5px solid black"">","","","","",""
"","stimuli-presentation","128","534251","0.0-32.0-1.3","SS1627326563764","","3414.199999999255","trial","","40","500","3914.199999999255","images/stimuli/complex_14_A_b.gif","images/stimuli/complex_08_A_a.gif","forced_short","480","","","","","","7","complex_dissimilar","images/stimuli/complex_08_A_a.gif","",""
"","html-keyboard-response","129","535400","0.0-32.0-0.4","SS1627326563764","","null","","","null","","","","","","","","","","","<p><img src= images/blank.png width =""600"" height = ""600"" style=""position:fixed;top:50%; left:50%; transform: translate(-50%, -50%); border:5px solid black"">","","","","",""
"","stimuli-presentation","130","541005","0.0-32.0-1.4","SS1627326563764","","5091.900000002235","trial","","40","500","5591.900000002235","images/stimuli/complex_14_A_b.gif","images/stimuli/complex_08_A_a.gif","forced_short","480","","","","","","7","complex_dissimilar","images/stimuli/complex_08_A_a.gif","",""
"","html-keyboard-response","131","542182","0.0-32.0-0.5","SS1627326563764","","null","","","null","","","","","","","","","","","<p><img src= images/blank.png width =""600"" height = ""600"" style=""position:fixed;top:50%; left:50%; transform: translate(-50%, -50%); border:5px solid black"">","","","","",""
"","stimuli-presentation","132","544388","0.0-32.0-1.5","SS1627326563764","","1683.3999999985099","trial","","40","500","2183.39999999851","images/stimuli/complex_14_A_b.gif","images/stimuli/complex_08_A_a.gif","forced_short","480","","","","","","7","complex_dissimilar","images/stimuli/complex_08_A_a.gif","",""
"","html-keyboard-response","133","545229","0.0-32.0-0.6","SS1627326563764","","null","","","null","","","","","","","","","","","<p><img src= images/blank.png width =""600"" height = ""600"" style=""position:fixed;top:50%; left:50%; transform: translate(-50%, -50%); border:5px solid black"">","","","","",""
"","stimuli-presentation","134","547112","0.0-32.0-1.6","SS1627326563764","","1372.8999999985099","trial","","40","500","1872.8999999985099","images/stimuli/complex_14_A_b.gif","images/stimuli/complex_08_A_a.gif","forced_short","480","","","","","","7","complex_dissimilar","images/stimuli/complex_08_A_a.gif","",""
"","html-keyboard-response","135","547973","0.0-32.0-0.7","SS1627326563764","","null","","","null","","","","","","","","","","","<p><img src= images/blank.png width =""600"" height = ""600"" style=""position:fixed;top:50%; left:50%; transform: translate(-50%, -50%); border:5px solid black"">","","","","",""
"","stimuli-presentation","136","552711","0.0-32.0-1.7","SS1627326563764","","4228","trial","","40","500","4728","images/stimuli/complex_14_A_b.gif","images/stimuli/complex_08_A_a.gif","forced_short","480","","","","","","7","complex_dissimilar","images/stimuli/complex_14_A_b.gif","",""
"","survey-multi-choice","137","554779","0.0-33.0","SS1627326563764","","2057.5","memory_test","","","","","","","","","{""Q0"":""Yes""}","[0]","images/stimuli/complex_08_A_a.gif","7","","","","","",""
"","survey-multi-choice","138","557443","0.0-34.0","SS1627326563764","","2657.89999999851","memory_test","","","","","","","","","{""Q0"":""No""}","[0]","images/stimuli/complex_16_A_a.gif","7","","","","","",""
"","instructions","139","565307","0.0-35.0","SS1627326563764","[{""page_index"":0,""viewing_time"":7858.199999999255}]","7858.5","instructions","","","","","","","","","","","","","","","","","",""
"","survey-likert","140","585508","0.0-36.0","SS1627326563764","","20196.900000002235","similarity_question","","","","","","","","","{""Q0"":1}","[0]","","","","","","","images/stimuli/complex_04_A_a.gif","images/stimuli/complex_24_A_a.gif"
"","survey-likert","141","595932","0.0-37.0","SS1627326563764","","10417.800000000745","similarity_question","","","","","","","","","{""Q0"":1}","[0]","","","","","","","images/stimuli/complex_03_A_b.gif","images/stimuli/complex_19_A_b.gif"
"","survey-likert","142","606924","0.0-38.0","SS1627326563764","","10985.5","similarity_question","","","","","","","","","{""Q0"":2}","[0]","","","","","","","images/stimuli/complex_08_A_a.gif","images/stimuli/complex_14_A_b.gif"
"","survey-likert","143","616076","0.0-39.0","SS1627326563764","","9145.699999999255","similarity_question","","","","","","","","","{""Q0"":0}","[0]","","","","","","","images/stimuli/complex_20_A_a.gif","images/stimuli/complex_22_A_b.gif"
"","survey-likert","144","627300","0.0-40.0","SS1627326563764","","11217","similarity_question","","","","","","","","","{""Q0"":2}","[0]","","","","","","","images/stimuli/complex_13_A_a.gif","images/stimuli/complex_06_A_b.gif"
"","survey-likert","145","636675","0.0-41.0","SS1627326563764","","9369.199999999255","similarity_question","","","","","","","","","{""Q0"":1}","[0]","","","","","","","images/stimuli/complex_01_A_b.gif","images/stimuli/complex_02_A_a.gif"
"","survey-likert","146","648251","0.0-42.0","SS1627326563764","","11570.099999997765","similarity_question","","","","","","","","","{""Q0"":2}","[0]","","","","","","","images/stimuli/complex_17_A_a.gif","images/stimuli/complex_21_A_b.gif"
"","survey-likert","147","657507","0.0-43.0","SS1627326563764","","9249.599999997765","similarity_question","","","","","","","","","{""Q0"":0}","[0]","","","","","","","images/stimuli/complex_23_A_a.gif","images/stimuli/complex_05_A_a.gif"
"","instructions","148","665347","0.0-44.0","SS1627326563764","[{""page_index"":0,""viewing_time"":7834.199999999255}]","7834.599999997765","instructions","","","","","","","","","","","","","","","","","",""
"","survey-likert","149","675259","0.0-45.0","SS1627326563764","","9908.800000000745","","","","","","","","","","{""Q0"":1}","[0]","","","images/stimuli/complex_01_A_b.gif","","","","",""
"","survey-likert","150","682531","0.0-46.0","SS1627326563764","","7265.5","","","","","","","","","","{""Q0"":2}","[0]","","","images/stimuli/complex_24_A_a.gif","","","","",""
"","survey-likert","151","687819","0.0-47.0","SS1627326563764","","5282.099999997765","","","","","","","","","","{""Q0"":2}","[0]","","","images/stimuli/complex_06_A_b.gif","","","","",""
"","survey-likert","152","695459","0.0-48.0","SS1627326563764","","7634","","","","","","","","","","{""Q0"":4}","[0]","","","images/stimuli/complex_22_A_b.gif","","","","",""
"","survey-likert","153","701923","0.0-49.0","SS1627326563764","","6457","","","","","","","","","","{""Q0"":2}","[0]","","","images/stimuli/complex_05_A_a.gif","","","","",""
"","survey-likert","154","707507","0.0-50.0","SS1627326563764","","5577.10000000149","","","","","","","","","","{""Q0"":4}","[0]","","","images/stimuli/complex_21_A_b.gif","","","","",""
"","survey-likert","155","714443","0.0-51.0","SS1627326563764","","6929.699999999255","","","","","","","","","","{""Q0"":2}","[0]","","","images/stimuli/complex_14_A_b.gif","","","","",""
"","survey-likert","156","721547","0.0-52.0","SS1627326563764","","7097.400000002235","","","","","","","","","","{""Q0"":4}","[0]","","","images/stimuli/complex_19_A_b.gif","","","","",""
"true","fullscreen","157","722553","0.0-53.0","SS1627326563764","","","","","","","","","","","","","","","","","","","","",""
"","instructions","158","726955","0.0-54.0","SS1627326563764","[{""page_index"":0,""viewing_time"":4392.10000000149}]","4392.60000000149","instructions","","","","","","","","","","","","","","","","","",""
"","demog-age","159","731067","0.0-55.0","SS1627326563764","","4107.099999997765","","","","","","","","","","{""age"":""21""}","","","","","","","","",""
"","demog-ethnic-US","160","736523","0.0-56.0","SS1627326563764","","5448.5","","","","","","","","","","{""ethnicity"":[""White""]}","[0]","","","","","","","",""
"","demog-gender-and-education","161","809867","0.0-57.0","SS1627326563764","","73337.90000000224","","","","","","","","","","{""gender"":""Male"",""education"":""High school diploma""}","[0,1]","","","","","","","",""
"","survey-text","162","881811","0.0-58.0","SS1627326563764","","71936.09999999776","feedback","","","","","","","","","{""Q0"":""Animation was not laggy, loved usage of Spore""}","","","","","","","","",""
"","instructions","163","885083","0.0-59.0","SS1627326563764","[{""page_index"":0,""viewing_time"":3268.699999999255}]","3269","instructions","","","","","","","","","","","","","","","","","",""
