"success","trial_type","trial_index","time_elapsed","internal_node_id","subject","view_history","rt","stimulus_type","trial_stimulus","key_press","minimum_viewing_duration","trial_looking_time","block_deviant","block_background","exposure_type","forced_exposure_time","responses","question_order","memory_question_stimuli","memory_block_index","stimulus","block_number","block_type","stimulus_displayed","stimulus_left","stimulus_right"
"true","fullscreen","0","3765","0.0-0.0","SS1627326972283","","","","","","","","","","","","","","","","","","","","",""
"","instructions","1","12669","0.0-1.0","SS1627326972283","[{""page_index"":0,""viewing_time"":8898.59999999404}]","8900.29999999702","","","","","","","","","","","","","","","","","","",""
"","instructions","2","22343","0.0-2.0","SS1627326972283","[{""page_index"":0,""viewing_time"":5920.70000000298},{""page_index"":1,""viewing_time"":1747.5999999940395}]","7668.70000000298","instructions","","","","","","","","","","","","","","","","","",""
"","stimuli-presentation","3","27835","0.0-3.0","SS1627326972283","","4987.600000008941","","","40","500","5487.600000008941","null","null","self_paced","0","","","","","","","","","",""
"","instructions","4","31902","0.0-4.0","SS1627326972283","[{""page_index"":0,""viewing_time"":4065.4000000059605}]","4065.7000000029802","instructions","","","","","","","","","","","","","","","","","",""
"","stimuli-presentation","5","35310","0.0-5.0","SS1627326972283","","2903","","","40","500","3403","null","null","forced_short","500","","","","","","","","","",""
"","stimuli-presentation","6","37708","0.0-6.0","SS1627326972283","","1894.300000011921","","","40","500","2394.300000011921","null","null","forced_short","500","","","","","","","","","",""
"","instructions","7","41860","0.0-7.0","SS1627326972283","[{""page_index"":0,""viewing_time"":4149.79999999702}]","4150.20000000298","instructions","","","","","","","","","","","","","","","","","",""
"","survey-multi-choice","8","44553","0.0-8.0","SS1627326972283","","2686.5999999940395","memory_test_practice","","","","","","","","","{""Q0"":""Yes""}","[0]","images/practice/instructions_example_spore2.gif","0","","","","","",""
"","survey-multi-choice","9","46622","0.0-9.0","SS1627326972283","","2060.8999999910593","memory_test_practice","","","","","","","","","{""Q0"":""No""}","[0]","images/practice/instructions_example_spore0.gif","0","","","","","",""
"","instructions","10","52707","0.0-10.0","SS1627326972283","[{""page_index"":0,""viewing_time"":5049.70000000298},{""page_index"":1,""viewing_time"":1027.8999999910593}]","6077.79999999702","instructions","","","","","","","","","","","","","","","","","",""
"","html-keyboard-response","11","53981","0.0-11.0-0.0","SS1627326972283","","null","","","null","","","","","","","","","","","<p><img src= images/blank.png width =""600"" height = ""600"" style=""position:fixed;top:50%; left:50%; transform: translate(-50%, -50%); border:5px solid black"">","","","","",""
"","stimuli-presentation","12","55480","0.0-11.0-1.0","SS1627326972283","","1122.6000000089407","trial","","40","500","1622.6000000089407","images/stimuli/complex_16_A_b.gif","images/stimuli/complex_05_A_b.gif","forced_short","370","","","","","","0","complex_dissimilar","images/stimuli/complex_05_A_b.gif","",""
"","html-keyboard-response","13","56387","0.0-11.0-0.1","SS1627326972283","","null","","","null","","","","","","","","","","","<p><img src= images/blank.png width =""600"" height = ""600"" style=""position:fixed;top:50%; left:50%; transform: translate(-50%, -50%); border:5px solid black"">","","","","",""
"","stimuli-presentation","14","60815","0.0-11.0-1.1","SS1627326972283","","3921.5","trial","","40","500","4421.5","images/stimuli/complex_16_A_b.gif","images/stimuli/complex_05_A_b.gif","forced_short","370","","","","","","0","complex_dissimilar","images/stimuli/complex_05_A_b.gif","",""
"","html-keyboard-response","15","61736","0.0-11.0-0.2","SS1627326972283","","null","","","null","","","","","","","","","","","<p><img src= images/blank.png width =""600"" height = ""600"" style=""position:fixed;top:50%; left:50%; transform: translate(-50%, -50%); border:5px solid black"">","","","","",""
"","stimuli-presentation","16","66495","0.0-11.0-1.2","SS1627326972283","","4250.70000000298","trial","","40","500","4750.70000000298","images/stimuli/complex_16_A_b.gif","images/stimuli/complex_05_A_b.gif","forced_short","370","","","","","","0","complex_dissimilar","images/stimuli/complex_05_A_b.gif","",""
"","html-keyboard-response","17","67662","0.0-11.0-0.3","SS1627326972283","","null","","","null","","","","","","","","","","","<p><img src= images/blank.png width =""600"" height = ""600"" style=""position:fixed;top:50%; left:50%; transform: translate(-50%, -50%); border:5px solid black"">","","","","",""
"","stimuli-presentation","18","72231","0.0-11.0-1.3","SS1627326972283","","4061.800000011921","trial","","40","500","4561.800000011921","images/stimuli/complex_16_A_b.gif","images/stimuli/complex_05_A_b.gif","forced_short","370","","","","","","0","complex_dissimilar","images/stimuli/complex_05_A_b.gif","",""
"","html-keyboard-response","19","73271","0.0-11.0-0.4","SS1627326972283","","null","","","null","","","","","","","","","","","<p><img src= images/blank.png width =""600"" height = ""600"" style=""position:fixed;top:50%; left:50%; transform: translate(-50%, -50%); border:5px solid black"">","","","","",""
"","stimuli-presentation","20","76193","0.0-11.0-1.4","SS1627326972283","","2409.5","trial","","40","500","2909.5","images/stimuli/complex_16_A_b.gif","images/stimuli/complex_05_A_b.gif","forced_short","370","","","","","","0","complex_dissimilar","images/stimuli/complex_05_A_b.gif","",""
"","html-keyboard-response","21","77016","0.0-11.0-0.5","SS1627326972283","","null","","","null","","","","","","","","","","","<p><img src= images/blank.png width =""600"" height = ""600"" style=""position:fixed;top:50%; left:50%; transform: translate(-50%, -50%); border:5px solid black"">","","","","",""
"","stimuli-presentation","22","81115","0.0-11.0-1.5","SS1627326972283","","3593.8999999910593","trial","","40","500","4093.8999999910593","images/stimuli/complex_16_A_b.gif","images/stimuli/complex_05_A_b.gif","forced_short","370","","","","","","0","complex_dissimilar","images/stimuli/complex_05_A_b.gif","",""
"","survey-multi-choice","23","83776","0.0-12.0","SS1627326972283","","2657.2999999970198","memory_test","","","","","","","","","{""Q0"":""No""}","[0]","images/stimuli/complex_15_A_a.gif","0","","","","","",""
"","survey-multi-choice","24","85350","0.0-13.0","SS1627326972283","","1565.4000000059605","memory_test","","","","","","","","","{""Q0"":""Yes""}","[0]","images/stimuli/complex_05_A_b.gif","0","","","","","",""
"","html-keyboard-response","25","86473","0.0-14.0-0.0","SS1627326972283","","null","","","null","","","","","","","","","","","<p><img src= images/blank.png width =""600"" height = ""600"" style=""position:fixed;top:50%; left:50%; transform: translate(-50%, -50%); border:5px solid black"">","","","","",""
"","stimuli-presentation","26","90570","0.0-14.0-1.0","SS1627326972283","","3702.199999988079","trial","","40","500","4202.199999988079","images/stimuli/complex_10_A_a.gif","images/stimuli/complex_18_A_b.gif","forced_short","390","","","","","","1","complex_dissimilar","images/stimuli/complex_18_A_b.gif","",""
"","html-keyboard-response","27","91736","0.0-14.0-0.1","SS1627326972283","","null","","","null","","","","","","","","","","","<p><img src= images/blank.png width =""600"" height = ""600"" style=""position:fixed;top:50%; left:50%; transform: translate(-50%, -50%); border:5px solid black"">","","","","",""
"","stimuli-presentation","28","96058","0.0-14.0-1.1","SS1627326972283","","3816.7999999970198","trial","","40","500","4316.79999999702","images/stimuli/complex_10_A_a.gif","images/stimuli/complex_18_A_b.gif","forced_short","390","","","","","","1","complex_dissimilar","images/stimuli/complex_18_A_b.gif","",""
"","html-keyboard-response","29","97096","0.0-14.0-0.2","SS1627326972283","","null","","","null","","","","","","","","","","","<p><img src= images/blank.png width =""600"" height = ""600"" style=""position:fixed;top:50%; left:50%; transform: translate(-50%, -50%); border:5px solid black"">","","","","",""
"","stimuli-presentation","30","100669","0.0-14.0-1.2","SS1627326972283","","3067.5999999940395","trial","","40","500","3567.5999999940395","images/stimuli/complex_10_A_a.gif","images/stimuli/complex_18_A_b.gif","forced_short","390","","","","","","1","complex_dissimilar","images/stimuli/complex_18_A_b.gif","",""
"","html-keyboard-response","31","101576","0.0-14.0-0.3","SS1627326972283","","null","","","null","","","","","","","","","","","<p><img src= images/blank.png width =""600"" height = ""600"" style=""position:fixed;top:50%; left:50%; transform: translate(-50%, -50%); border:5px solid black"">","","","","",""
"","stimuli-presentation","32","105052","0.0-14.0-1.3","SS1627326972283","","2967.8999999910593","trial","","40","500","3467.8999999910593","images/stimuli/complex_10_A_a.gif","images/stimuli/complex_18_A_b.gif","forced_short","390","","","","","","1","complex_dissimilar","images/stimuli/complex_18_A_b.gif","",""
"","html-keyboard-response","33","106284","0.0-14.0-0.4","SS1627326972283","","null","","","null","","","","","","","","","","","<p><img src= images/blank.png width =""600"" height = ""600"" style=""position:fixed;top:50%; left:50%; transform: translate(-50%, -50%); border:5px solid black"">","","","","",""
"","stimuli-presentation","34","110171","0.0-14.0-1.4","SS1627326972283","","3379","trial","","40","500","3879","images/stimuli/complex_10_A_a.gif","images/stimuli/complex_18_A_b.gif","forced_short","390","","","","","","1","complex_dissimilar","images/stimuli/complex_18_A_b.gif","",""
"","html-keyboard-response","35","111433","0.0-14.0-0.5","SS1627326972283","","null","","","null","","","","","","","","","","","<p><img src= images/blank.png width =""600"" height = ""600"" style=""position:fixed;top:50%; left:50%; transform: translate(-50%, -50%); border:5px solid black"">","","","","",""
"","stimuli-presentation","36","114624","0.0-14.0-1.5","SS1627326972283","","2682.7999999970198","trial","","40","500","3182.7999999970198","images/stimuli/complex_10_A_a.gif","images/stimuli/complex_18_A_b.gif","forced_short","390","","","","","","1","complex_dissimilar","images/stimuli/complex_18_A_b.gif","",""
"","html-keyboard-response","37","115790","0.0-14.0-0.6","SS1627326972283","","null","","","null","","","","","","","","","","","<p><img src= images/blank.png width =""600"" height = ""600"" style=""position:fixed;top:50%; left:50%; transform: translate(-50%, -50%); border:5px solid black"">","","","","",""
"","stimuli-presentation","38","118728","0.0-14.0-1.6","SS1627326972283","","2431.7999999970198","trial","","40","500","2931.7999999970198","images/stimuli/complex_10_A_a.gif","images/stimuli/complex_18_A_b.gif","forced_short","390","","","","","","1","complex_dissimilar","images/stimuli/complex_18_A_b.gif","",""
"","html-keyboard-response","39","119887","0.0-14.0-0.7","SS1627326972283","","null","","","null","","","","","","","","","","","<p><img src= images/blank.png width =""600"" height = ""600"" style=""position:fixed;top:50%; left:50%; transform: translate(-50%, -50%); border:5px solid black"">","","","","",""
"","stimuli-presentation","40","121774","0.0-14.0-1.7","SS1627326972283","","1379.7000000029802","trial","","40","500","1879.7000000029802","images/stimuli/complex_10_A_a.gif","images/stimuli/complex_18_A_b.gif","forced_short","390","","","","","","1","complex_dissimilar","images/stimuli/complex_18_A_b.gif","",""
"","survey-multi-choice","41","124164","0.0-15.0","SS1627326972283","","2386.9000000059605","memory_test","","","","","","","","","{""Q0"":""No""}","[0]","images/stimuli/complex_13_A_b.gif","1","","","","","",""
"","survey-multi-choice","42","126057","0.0-16.0","SS1627326972283","","1884.7000000029802","memory_test","","","","","","","","","{""Q0"":""Yes""}","[0]","images/stimuli/complex_18_A_b.gif","1","","","","","",""
"","html-keyboard-response","43","127289","0.0-17.0-0.0","SS1627326972283","","null","","","null","","","","","","","","","","","<p><img src= images/blank.png width =""600"" height = ""600"" style=""position:fixed;top:50%; left:50%; transform: translate(-50%, -50%); border:5px solid black"">","","","","",""
"","stimuli-presentation","44","129316","0.0-17.0-1.0","SS1627326972283","","1128.5999999940395","trial","","40","500","1628.5999999940395","images/stimuli/complex_03_A_a.gif","images/stimuli/complex_06_A_a.gif","forced_short","890","","","","","","2","complex_dissimilar","images/stimuli/complex_06_A_a.gif","",""
"","html-keyboard-response","45","130170","0.0-17.0-0.1","SS1627326972283","","null","","","null","","","","","","","","","","","<p><img src= images/blank.png width =""600"" height = ""600"" style=""position:fixed;top:50%; left:50%; transform: translate(-50%, -50%); border:5px solid black"">","","","","",""
"","stimuli-presentation","46","132258","0.0-17.0-1.1","SS1627326972283","","1582.5","trial","","40","500","2082.5","images/stimuli/complex_03_A_a.gif","images/stimuli/complex_06_A_a.gif","forced_short","890","","","","","","2","complex_dissimilar","images/stimuli/complex_06_A_a.gif","",""
"","html-keyboard-response","47","133326","0.0-17.0-0.2","SS1627326972283","","null","","","null","","","","","","","","","","","<p><img src= images/blank.png width =""600"" height = ""600"" style=""position:fixed;top:50%; left:50%; transform: translate(-50%, -50%); border:5px solid black"">","","","","",""
"","stimuli-presentation","48","136901","0.0-17.0-1.2","SS1627326972283","","3067.9000000059605","trial","","40","500","3567.9000000059605","images/stimuli/complex_03_A_a.gif","images/stimuli/complex_06_A_a.gif","forced_short","890","","","","","","2","complex_dissimilar","images/stimuli/complex_03_A_a.gif","",""
"","html-keyboard-response","49","137930","0.0-17.0-0.3","SS1627326972283","","null","","","null","","","","","","","","","","","<p><img src= images/blank.png width =""600"" height = ""600"" style=""position:fixed;top:50%; left:50%; transform: translate(-50%, -50%); border:5px solid black"">","","","","",""
"","stimuli-presentation","50","141886","0.0-17.0-1.3","SS1627326972283","","3445.8999999910593","trial","","40","500","3945.8999999910593","images/stimuli/complex_03_A_a.gif","images/stimuli/complex_06_A_a.gif","forced_short","890","","","","","","2","complex_dissimilar","images/stimuli/complex_03_A_a.gif","",""
"","html-keyboard-response","51","142984","0.0-17.0-0.4","SS1627326972283","","null","","","null","","","","","","","","","","","<p><img src= images/blank.png width =""600"" height = ""600"" style=""position:fixed;top:50%; left:50%; transform: translate(-50%, -50%); border:5px solid black"">","","","","",""
"","stimuli-presentation","52","145194","0.0-17.0-1.4","SS1627326972283","","1703.5","trial","","40","500","2203.5","images/stimuli/complex_03_A_a.gif","images/stimuli/complex_06_A_a.gif","forced_short","890","","","","","","2","complex_dissimilar","images/stimuli/complex_06_A_a.gif","",""
"","html-keyboard-response","53","146436","0.0-17.0-0.5","SS1627326972283","","null","","","null","","","","","","","","","","","<p><img src= images/blank.png width =""600"" height = ""600"" style=""position:fixed;top:50%; left:50%; transform: translate(-50%, -50%); border:5px solid black"">","","","","",""
"","stimuli-presentation","54","148332","0.0-17.0-1.5","SS1627326972283","","1390.3999999910593","trial","","40","500","1890.3999999910593","images/stimuli/complex_03_A_a.gif","images/stimuli/complex_06_A_a.gif","forced_short","890","","","","","","2","complex_dissimilar","images/stimuli/complex_06_A_a.gif","",""
"","survey-multi-choice","55","151033","0.0-18.0","SS1627326972283","","2697","memory_test","","","","","","","","","{""Q0"":""No""}","[0]","images/stimuli/complex_11_A_b.gif","2","","","","","",""
"","survey-multi-choice","56","152914","0.0-19.0","SS1627326972283","","1871.9000000059605","memory_test","","","","","","","","","{""Q0"":""Yes""}","[0]","images/stimuli/complex_03_A_a.gif","2","","","","","",""
"","html-keyboard-response","57","154002","0.0-20.0-0.0","SS1627326972283","","null","","","null","","","","","","","","","","","<p><img src= images/blank.png width =""600"" height = ""600"" style=""position:fixed;top:50%; left:50%; transform: translate(-50%, -50%); border:5px solid black"">","","","","",""
"","stimuli-presentation","58","155478","0.0-20.0-1.0","SS1627326972283","","708.7000000029802","trial","","40","500","1208.7000000029802","images/stimuli/complex_20_A_b.gif","images/stimuli/complex_01_A_a.gif","forced_short","760","","","","","","3","complex_dissimilar","images/stimuli/complex_01_A_a.gif","",""
"","html-keyboard-response","59","156406","0.0-20.0-0.1","SS1627326972283","","null","","","null","","","","","","","","","","","<p><img src= images/blank.png width =""600"" height = ""600"" style=""position:fixed;top:50%; left:50%; transform: translate(-50%, -50%); border:5px solid black"">","","","","",""
"","stimuli-presentation","60","157614","0.0-20.0-1.1","SS1627326972283","","702.4000000059605","trial","","40","500","1202.4000000059605","images/stimuli/complex_20_A_b.gif","images/stimuli/complex_01_A_a.gif","forced_short","760","","","","","","3","complex_dissimilar","images/stimuli/complex_01_A_a.gif","",""
"","html-keyboard-response","61","158512","0.0-20.0-0.2","SS1627326972283","","null","","","null","","","","","","","","","","","<p><img src= images/blank.png width =""600"" height = ""600"" style=""position:fixed;top:50%; left:50%; transform: translate(-50%, -50%); border:5px solid black"">","","","","",""
"","stimuli-presentation","62","159870","0.0-20.0-1.2","SS1627326972283","","848","trial","","40","500","1348","images/stimuli/complex_20_A_b.gif","images/stimuli/complex_01_A_a.gif","forced_short","760","","","","","","3","complex_dissimilar","images/stimuli/complex_01_A_a.gif","",""
"","html-keyboard-response","63","161109","0.0-20.0-0.3","SS1627326972283","","null","","","null","","","","","","","","","","","<p><img src= images/blank.png width =""600"" height = ""600"" style=""position:fixed;top:50%; left:50%; transform: translate(-50%, -50%); border:5px solid black"">","","","","",""
"","stimuli-presentation","64","162347","0.0-20.0-1.3","SS1627326972283","","728.2999999970198","trial","","40","500","1228.2999999970198","images/stimuli/complex_20_A_b.gif","images/stimuli/complex_01_A_a.gif","forced_short","760","","","","","","3","complex_dissimilar","images/stimuli/complex_01_A_a.gif","",""
"","html-keyboard-response","65","163417","0.0-20.0-0.4","SS1627326972283","","null","","","null","","","","","","","","","","","<p><img src= images/blank.png width =""600"" height = ""600"" style=""position:fixed;top:50%; left:50%; transform: translate(-50%, -50%); border:5px solid black"">","","","","",""
"","stimuli-presentation","66","165166","0.0-20.0-1.4","SS1627326972283","","1238.7999999970198","trial","","40","500","1738.7999999970198","images/stimuli/complex_20_A_b.gif","images/stimuli/complex_01_A_a.gif","forced_short","760","","","","","","3","complex_dissimilar","images/stimuli/complex_01_A_a.gif","",""
"","html-keyboard-response","67","166448","0.0-20.0-0.5","SS1627326972283","","null","","","null","","","","","","","","","","","<p><img src= images/blank.png width =""600"" height = ""600"" style=""position:fixed;top:50%; left:50%; transform: translate(-50%, -50%); border:5px solid black"">","","","","",""
"","stimuli-presentation","68","167533","0.0-20.0-1.5","SS1627326972283","","575","trial","","40","500","1075","images/stimuli/complex_20_A_b.gif","images/stimuli/complex_01_A_a.gif","forced_short","760","","","","","","3","complex_dissimilar","images/stimuli/complex_01_A_a.gif","",""
"","survey-multi-choice","69","169479","0.0-21.0","SS1627326972283","","1941.800000011921","memory_test","","","","","","","","","{""Q0"":""Yes""}","[0]","images/stimuli/complex_01_A_a.gif","3","","","","","",""
"","survey-multi-choice","70","171577","0.0-22.0","SS1627326972283","","2087.199999988079","memory_test","","","","","","","","","{""Q0"":""No""}","[0]","images/stimuli/complex_22_A_a.gif","3","","","","","",""
"","html-keyboard-response","71","172556","0.0-23.0-0.0","SS1627326972283","","null","","","null","","","","","","","","","","","<p><img src= images/blank.png width =""600"" height = ""600"" style=""position:fixed;top:50%; left:50%; transform: translate(-50%, -50%); border:5px solid black"">","","","","",""
"","stimuli-presentation","72","174261","0.0-23.0-1.0","SS1627326972283","","1449","trial","","40","500","1949","images/stimuli/complex_02_A_b.gif","images/stimuli/complex_19_A_a.gif","forced_short","250","","","","","","4","complex_dissimilar","images/stimuli/complex_19_A_a.gif","",""
"","html-keyboard-response","73","175128","0.0-23.0-0.1","SS1627326972283","","null","","","null","","","","","","","","","","","<p><img src= images/blank.png width =""600"" height = ""600"" style=""position:fixed;top:50%; left:50%; transform: translate(-50%, -50%); border:5px solid black"">","","","","",""
"","stimuli-presentation","74","176153","0.0-23.0-1.1","SS1627326972283","","519.7000000029802","trial","","40","500","1019.7000000029802","images/stimuli/complex_02_A_b.gif","images/stimuli/complex_19_A_a.gif","forced_short","250","","","","","","4","complex_dissimilar","images/stimuli/complex_19_A_a.gif","",""
"","html-keyboard-response","75","177143","0.0-23.0-0.2","SS1627326972283","","null","","","null","","","","","","","","","","","<p><img src= images/blank.png width =""600"" height = ""600"" style=""position:fixed;top:50%; left:50%; transform: translate(-50%, -50%); border:5px solid black"">","","","","",""
"","stimuli-presentation","76","178316","0.0-23.0-1.2","SS1627326972283","","666.3999999910593","trial","","40","500","1166.3999999910593","images/stimuli/complex_02_A_b.gif","images/stimuli/complex_19_A_a.gif","forced_short","250","","","","","","4","complex_dissimilar","images/stimuli/complex_19_A_a.gif","",""
"","html-keyboard-response","77","179202","0.0-23.0-0.3","SS1627326972283","","null","","","null","","","","","","","","","","","<p><img src= images/blank.png width =""600"" height = ""600"" style=""position:fixed;top:50%; left:50%; transform: translate(-50%, -50%); border:5px solid black"">","","","","",""
"","stimuli-presentation","78","180297","0.0-23.0-1.3","SS1627326972283","","587.7000000029802","trial","","40","500","1087.7000000029802","images/stimuli/complex_02_A_b.gif","images/stimuli/complex_19_A_a.gif","forced_short","250","","","","","","4","complex_dissimilar","images/stimuli/complex_02_A_b.gif","",""
"","html-keyboard-response","79","181127","0.0-23.0-0.4","SS1627326972283","","null","","","null","","","","","","","","","","","<p><img src= images/blank.png width =""600"" height = ""600"" style=""position:fixed;top:50%; left:50%; transform: translate(-50%, -50%); border:5px solid black"">","","","","",""
"","stimuli-presentation","80","182054","0.0-23.0-1.4","SS1627326972283","","417.6000000089407","trial","","40","500","917.6000000089407","images/stimuli/complex_02_A_b.gif","images/stimuli/complex_19_A_a.gif","forced_short","250","","","","","","4","complex_dissimilar","images/stimuli/complex_19_A_a.gif","",""
"","html-keyboard-response","81","183035","0.0-23.0-0.5","SS1627326972283","","null","","","null","","","","","","","","","","","<p><img src= images/blank.png width =""600"" height = ""600"" style=""position:fixed;top:50%; left:50%; transform: translate(-50%, -50%); border:5px solid black"">","","","","",""
"","stimuli-presentation","82","183809","0.0-23.0-1.5","SS1627326972283","","265.40000000596046","trial","","40","500","765.4000000059605","images/stimuli/complex_02_A_b.gif","images/stimuli/complex_19_A_a.gif","forced_short","250","","","","","","4","complex_dissimilar","images/stimuli/complex_02_A_b.gif","",""
"","html-keyboard-response","83","185094","0.0-23.0-0.6","SS1627326972283","","null","","","null","","","","","","","","","","","<p><img src= images/blank.png width =""600"" height = ""600"" style=""position:fixed;top:50%; left:50%; transform: translate(-50%, -50%); border:5px solid black"">","","","","",""
"","stimuli-presentation","84","186015","0.0-23.0-1.6","SS1627326972283","","415.6000000089407","trial","","40","500","915.6000000089407","images/stimuli/complex_02_A_b.gif","images/stimuli/complex_19_A_a.gif","forced_short","250","","","","","","4","complex_dissimilar","images/stimuli/complex_19_A_a.gif","",""
"","html-keyboard-response","85","187178","0.0-23.0-0.7","SS1627326972283","","null","","","null","","","","","","","","","","","<p><img src= images/blank.png width =""600"" height = ""600"" style=""position:fixed;top:50%; left:50%; transform: translate(-50%, -50%); border:5px solid black"">","","","","",""
"","stimuli-presentation","86","188122","0.0-23.0-1.7","SS1627326972283","","438.80000001192093","trial","","40","500","938.8000000119209","images/stimuli/complex_02_A_b.gif","images/stimuli/complex_19_A_a.gif","forced_short","250","","","","","","4","complex_dissimilar","images/stimuli/complex_19_A_a.gif","",""
"","survey-multi-choice","87","190006","0.0-24.0","SS1627326972283","","1879.3999999910593","memory_test","","","","","","","","","{""Q0"":""Yes""}","[0]","images/stimuli/complex_19_A_a.gif","4","","","","","",""
"","survey-multi-choice","88","191914","0.0-25.0","SS1627326972283","","1897.6000000089407","memory_test","","","","","","","","","{""Q0"":""No""}","[0]","images/stimuli/complex_12_A_b.gif","4","","","","","",""
"","html-keyboard-response","89","193215","0.0-26.0-0.0","SS1627326972283","","null","","","null","","","","","","","","","","","<p><img src= images/blank.png width =""600"" height = ""600"" style=""position:fixed;top:50%; left:50%; transform: translate(-50%, -50%); border:5px solid black"">","","","","",""
"","stimuli-presentation","90","194601","0.0-26.0-1.0","SS1627326972283","","667.2000000029802","trial","","40","500","1167.2000000029802","images/stimuli/complex_14_A_a.gif","images/stimuli/complex_07_A_b.gif","forced_short","710","","","","","","5","complex_dissimilar","images/stimuli/complex_07_A_b.gif","",""
"","html-keyboard-response","91","195605","0.0-26.0-0.1","SS1627326972283","","null","","","null","","","","","","","","","","","<p><img src= images/blank.png width =""600"" height = ""600"" style=""position:fixed;top:50%; left:50%; transform: translate(-50%, -50%); border:5px solid black"">","","","","",""
"","stimuli-presentation","92","198857","0.0-26.0-1.1","SS1627326972283","","2744.7000000029802","trial","","40","500","3244.7000000029802","images/stimuli/complex_14_A_a.gif","images/stimuli/complex_07_A_b.gif","forced_short","710","","","","","","5","complex_dissimilar","images/stimuli/complex_07_A_b.gif","",""
"","html-keyboard-response","93","199849","0.0-26.0-0.2","SS1627326972283","","null","","","null","","","","","","","","","","","<p><img src= images/blank.png width =""600"" height = ""600"" style=""position:fixed;top:50%; left:50%; transform: translate(-50%, -50%); border:5px solid black"">","","","","",""
"","stimuli-presentation","94","202649","0.0-26.0-1.2","SS1627326972283","","2296.1000000089407","trial","","40","500","2796.1000000089407","images/stimuli/complex_14_A_a.gif","images/stimuli/complex_07_A_b.gif","forced_short","710","","","","","","5","complex_dissimilar","images/stimuli/complex_07_A_b.gif","",""
"","html-keyboard-response","95","203805","0.0-26.0-0.3","SS1627326972283","","null","","","null","","","","","","","","","","","<p><img src= images/blank.png width =""600"" height = ""600"" style=""position:fixed;top:50%; left:50%; transform: translate(-50%, -50%); border:5px solid black"">","","","","",""
"","stimuli-presentation","96","206439","0.0-26.0-1.3","SS1627326972283","","2122.9000000059605","trial","","40","500","2622.9000000059605","images/stimuli/complex_14_A_a.gif","images/stimuli/complex_07_A_b.gif","forced_short","710","","","","","","5","complex_dissimilar","images/stimuli/complex_07_A_b.gif","",""
"","html-keyboard-response","97","207334","0.0-26.0-0.4","SS1627326972283","","null","","","null","","","","","","","","","","","<p><img src= images/blank.png width =""600"" height = ""600"" style=""position:fixed;top:50%; left:50%; transform: translate(-50%, -50%); border:5px solid black"">","","","","",""
"","stimuli-presentation","98","209189","0.0-26.0-1.4","SS1627326972283","","1345.800000011921","trial","","40","500","1845.800000011921","images/stimuli/complex_14_A_a.gif","images/stimuli/complex_07_A_b.gif","forced_short","710","","","","","","5","complex_dissimilar","images/stimuli/complex_07_A_b.gif","",""
"","html-keyboard-response","99","210162","0.0-26.0-0.5","SS1627326972283","","null","","","null","","","","","","","","","","","<p><img src= images/blank.png width =""600"" height = ""600"" style=""position:fixed;top:50%; left:50%; transform: translate(-50%, -50%); border:5px solid black"">","","","","",""
"","stimuli-presentation","100","213574","0.0-26.0-1.5","SS1627326972283","","2902","trial","","40","500","3402","images/stimuli/complex_14_A_a.gif","images/stimuli/complex_07_A_b.gif","forced_short","710","","","","","","5","complex_dissimilar","images/stimuli/complex_07_A_b.gif","",""
"","html-keyboard-response","101","214387","0.0-26.0-0.6","SS1627326972283","","null","","","null","","","","","","","","","","","<p><img src= images/blank.png width =""600"" height = ""600"" style=""position:fixed;top:50%; left:50%; transform: translate(-50%, -50%); border:5px solid black"">","","","","",""
"","stimuli-presentation","102","218759","0.0-26.0-1.6","SS1627326972283","","3866.3999999910593","trial","","40","500","4366.399999991059","images/stimuli/complex_14_A_a.gif","images/stimuli/complex_07_A_b.gif","forced_short","710","","","","","","5","complex_dissimilar","images/stimuli/complex_07_A_b.gif","",""
"","html-keyboard-response","103","219820","0.0-26.0-0.7","SS1627326972283","","null","","","null","","","","","","","","","","","<p><img src= images/blank.png width =""600"" height = ""600"" style=""position:fixed;top:50%; left:50%; transform: translate(-50%, -50%); border:5px solid black"">","","","","",""
"","stimuli-presentation","104","221794","0.0-26.0-1.7","SS1627326972283","","1467.5","trial","","40","500","1967.5","images/stimuli/complex_14_A_a.gif","images/stimuli/complex_07_A_b.gif","forced_short","710","","","","","","5","complex_dissimilar","images/stimuli/complex_07_A_b.gif","",""
"","survey-multi-choice","105","224727","0.0-27.0","SS1627326972283","","2928.7999999970198","memory_test","","","","","","","","","{""Q0"":""No""}","[0]","images/stimuli/complex_21_A_b.gif","5","","","","","",""
"","survey-multi-choice","106","226792","0.0-28.0","SS1627326972283","","2053.9000000059605","memory_test","","","","","","","","","{""Q0"":""Yes""}","[0]","images/stimuli/complex_07_A_b.gif","5","","","","","",""
"","html-keyboard-response","107","227646","0.0-29.0-0.0","SS1627326972283","","null","","","null","","","","","","","","","","","<p><img src= images/blank.png width =""600"" height = ""600"" style=""position:fixed;top:50%; left:50%; transform: translate(-50%, -50%); border:5px solid black"">","","","","",""
"","stimuli-presentation","108","228911","0.0-29.0-1.0","SS1627326972283","","527.5999999940395","trial","","40","500","1027.5999999940395","images/stimuli/complex_23_A_b.gif","images/stimuli/complex_08_A_b.gif","forced_short","730","","","","","","6","complex_dissimilar","images/stimuli/complex_08_A_b.gif","",""
"","html-keyboard-response","109","230163","0.0-29.0-0.1","SS1627326972283","","null","","","null","","","","","","","","","","","<p><img src= images/blank.png width =""600"" height = ""600"" style=""position:fixed;top:50%; left:50%; transform: translate(-50%, -50%); border:5px solid black"">","","","","",""
"","stimuli-presentation","110","230816","0.0-29.0-1.1","SS1627326972283","","144.8999999910593","trial","","40","500","644.8999999910593","images/stimuli/complex_23_A_b.gif","images/stimuli/complex_08_A_b.gif","forced_short","730","","","","","","6","complex_dissimilar","images/stimuli/complex_08_A_b.gif","",""
"","html-keyboard-response","111","231813","0.0-29.0-0.2","SS1627326972283","","null","","","null","","","","","","","","","","","<p><img src= images/blank.png width =""600"" height = ""600"" style=""position:fixed;top:50%; left:50%; transform: translate(-50%, -50%); border:5px solid black"">","","","","",""
"","stimuli-presentation","112","233245","0.0-29.0-1.2","SS1627326972283","","920.2999999970198","trial","","40","500","1420.2999999970198","images/stimuli/complex_23_A_b.gif","images/stimuli/complex_08_A_b.gif","forced_short","730","","","","","","6","complex_dissimilar","images/stimuli/complex_08_A_b.gif","",""
"","html-keyboard-response","113","234393","0.0-29.0-0.3","SS1627326972283","","null","","","null","","","","","","","","","","","<p><img src= images/blank.png width =""600"" height = ""600"" style=""position:fixed;top:50%; left:50%; transform: translate(-50%, -50%); border:5px solid black"">","","","","",""
"","stimuli-presentation","114","236596","0.0-29.0-1.3","SS1627326972283","","1695.5999999940395","trial","","40","500","2195.5999999940395","images/stimuli/complex_23_A_b.gif","images/stimuli/complex_08_A_b.gif","forced_short","730","","","","","","6","complex_dissimilar","images/stimuli/complex_08_A_b.gif","",""
"","html-keyboard-response","115","237759","0.0-29.0-0.4","SS1627326972283","","null","","","null","","","","","","","","","","","<p><img src= images/blank.png width =""600"" height = ""600"" style=""position:fixed;top:50%; left:50%; transform: translate(-50%, -50%); border:5px solid black"">","","","","",""
"","stimuli-presentation","116","238314","0.0-29.0-1.4","SS1627326972283","","42.5","trial","","40","500","542.5","images/stimuli/complex_23_A_b.gif","images/stimuli/complex_08_A_b.gif","forced_short","730","","","","","","6","complex_dissimilar","images/stimuli/complex_08_A_b.gif","",""
"","html-keyboard-response","117","239313","0.0-29.0-0.5","SS1627326972283","","null","","","null","","","","","","","","","","","<p><img src= images/blank.png width =""600"" height = ""600"" style=""position:fixed;top:50%; left:50%; transform: translate(-50%, -50%); border:5px solid black"">","","","","",""
"","stimuli-presentation","118","240721","0.0-29.0-1.5","SS1627326972283","","901.0999999940395","trial","","40","500","1401.0999999940395","images/stimuli/complex_23_A_b.gif","images/stimuli/complex_08_A_b.gif","forced_short","730","","","","","","6","complex_dissimilar","images/stimuli/complex_08_A_b.gif","",""
"","html-keyboard-response","119","241946","0.0-29.0-0.6","SS1627326972283","","null","","","null","","","","","","","","","","","<p><img src= images/blank.png width =""600"" height = ""600"" style=""position:fixed;top:50%; left:50%; transform: translate(-50%, -50%); border:5px solid black"">","","","","",""
"","stimuli-presentation","120","243227","0.0-29.0-1.6","SS1627326972283","","772.7999999970198","trial","","40","500","1272.7999999970198","images/stimuli/complex_23_A_b.gif","images/stimuli/complex_08_A_b.gif","forced_short","730","","","","","","6","complex_dissimilar","images/stimuli/complex_08_A_b.gif","",""
"","survey-multi-choice","121","245017","0.0-30.0","SS1627326972283","","1784.9000000059605","memory_test","","","","","","","","","{""Q0"":""Yes""}","[0]","images/stimuli/complex_08_A_b.gif","6","","","","","",""
"","survey-multi-choice","122","246976","0.0-31.0","SS1627326972283","","1949.5","memory_test","","","","","","","","","{""Q0"":""No""}","[0]","images/stimuli/complex_24_A_a.gif","6","","","","","",""
"","html-keyboard-response","123","248048","0.0-32.0-0.0","SS1627326972283","","null","","","null","","","","","","","","","","","<p><img src= images/blank.png width =""600"" height = ""600"" style=""position:fixed;top:50%; left:50%; transform: translate(-50%, -50%); border:5px solid black"">","","","","",""
"","stimuli-presentation","124","249543","0.0-32.0-1.0","SS1627326972283","","1293.5","trial","","40","500","1793.5","images/stimuli/complex_17_A_b.gif","images/stimuli/complex_04_A_b.gif","forced_short","190","","","","","","7","complex_dissimilar","images/stimuli/complex_04_A_b.gif","",""
"","html-keyboard-response","125","250399","0.0-32.0-0.1","SS1627326972283","","null","","","null","","","","","","","","","","","<p><img src= images/blank.png width =""600"" height = ""600"" style=""position:fixed;top:50%; left:50%; transform: translate(-50%, -50%); border:5px solid black"">","","","","",""
"","stimuli-presentation","126","252833","0.0-32.0-1.1","SS1627326972283","","1922.9000000059605","trial","","40","500","2422.9000000059605","images/stimuli/complex_17_A_b.gif","images/stimuli/complex_04_A_b.gif","forced_short","190","","","","","","7","complex_dissimilar","images/stimuli/complex_04_A_b.gif","",""
"","html-keyboard-response","127","253727","0.0-32.0-0.2","SS1627326972283","","null","","","null","","","","","","","","","","","<p><img src= images/blank.png width =""600"" height = ""600"" style=""position:fixed;top:50%; left:50%; transform: translate(-50%, -50%); border:5px solid black"">","","","","",""
"","stimuli-presentation","128","255220","0.0-32.0-1.2","SS1627326972283","","983.2000000029802","trial","","40","500","1483.2000000029802","images/stimuli/complex_17_A_b.gif","images/stimuli/complex_04_A_b.gif","forced_short","190","","","","","","7","complex_dissimilar","images/stimuli/complex_04_A_b.gif","",""
"","html-keyboard-response","129","256511","0.0-32.0-0.3","SS1627326972283","","null","","","null","","","","","","","","","","","<p><img src= images/blank.png width =""600"" height = ""600"" style=""position:fixed;top:50%; left:50%; transform: translate(-50%, -50%); border:5px solid black"">","","","","",""
"","stimuli-presentation","130","257443","0.0-32.0-1.3","SS1627326972283","","424.40000000596046","trial","","40","500","924.4000000059605","images/stimuli/complex_17_A_b.gif","images/stimuli/complex_04_A_b.gif","forced_short","190","","","","","","7","complex_dissimilar","images/stimuli/complex_04_A_b.gif","",""
"","html-keyboard-response","131","258625","0.0-32.0-0.4","SS1627326972283","","null","","","null","","","","","","","","","","","<p><img src= images/blank.png width =""600"" height = ""600"" style=""position:fixed;top:50%; left:50%; transform: translate(-50%, -50%); border:5px solid black"">","","","","",""
"","stimuli-presentation","132","259670","0.0-32.0-1.4","SS1627326972283","","536.9000000059605","trial","","40","500","1036.9000000059605","images/stimuli/complex_17_A_b.gif","images/stimuli/complex_04_A_b.gif","forced_short","190","","","","","","7","complex_dissimilar","images/stimuli/complex_04_A_b.gif","",""
"","html-keyboard-response","133","260617","0.0-32.0-0.5","SS1627326972283","","null","","","null","","","","","","","","","","","<p><img src= images/blank.png width =""600"" height = ""600"" style=""position:fixed;top:50%; left:50%; transform: translate(-50%, -50%); border:5px solid black"">","","","","",""
"","stimuli-presentation","134","261471","0.0-32.0-1.5","SS1627326972283","","344","trial","","40","500","844","images/stimuli/complex_17_A_b.gif","images/stimuli/complex_04_A_b.gif","forced_short","190","","","","","","7","complex_dissimilar","images/stimuli/complex_04_A_b.gif","",""
"","html-keyboard-response","135","262625","0.0-32.0-0.6","SS1627326972283","","null","","","null","","","","","","","","","","","<p><img src= images/blank.png width =""600"" height = ""600"" style=""position:fixed;top:50%; left:50%; transform: translate(-50%, -50%); border:5px solid black"">","","","","",""
"","stimuli-presentation","136","263403","0.0-32.0-1.6","SS1627326972283","","272.20000000298023","trial","","40","500","772.2000000029802","images/stimuli/complex_17_A_b.gif","images/stimuli/complex_04_A_b.gif","forced_short","190","","","","","","7","complex_dissimilar","images/stimuli/complex_04_A_b.gif","",""
"","survey-multi-choice","137","265398","0.0-33.0","SS1627326972283","","1989.3999999910593","memory_test","","","","","","","","","{""Q0"":""No""}","[0]","images/stimuli/complex_09_A_a.gif","7","","","","","",""
"","survey-multi-choice","138","266723","0.0-34.0","SS1627326972283","","1313.3999999910593","memory_test","","","","","","","","","{""Q0"":""Yes""}","[0]","images/stimuli/complex_04_A_b.gif","7","","","","","",""
"","instructions","139","269528","0.0-35.0","SS1627326972283","[{""page_index"":0,""viewing_time"":2795.800000011921}]","2796.300000011921","instructions","","","","","","","","","","","","","","","","","",""
"","survey-likert","140","279294","0.0-36.0","SS1627326972283","","9757.699999988079","similarity_question","","","","","","","","","{""Q0"":2}","[0]","","","","","","","images/stimuli/complex_20_A_b.gif","images/stimuli/complex_01_A_a.gif"
"","survey-likert","141","284784","0.0-37.0","SS1627326972283","","5478.79999999702","similarity_question","","","","","","","","","{""Q0"":4}","[0]","","","","","","","images/stimuli/complex_23_A_b.gif","images/stimuli/complex_08_A_b.gif"
"","survey-likert","142","290044","0.0-38.0","SS1627326972283","","5250.5999999940395","similarity_question","","","","","","","","","{""Q0"":1}","[0]","","","","","","","images/stimuli/complex_14_A_a.gif","images/stimuli/complex_07_A_b.gif"
"","survey-likert","143","294875","0.0-39.0","SS1627326972283","","4819.100000008941","similarity_question","","","","","","","","","{""Q0"":2}","[0]","","","","","","","images/stimuli/complex_19_A_a.gif","images/stimuli/complex_02_A_b.gif"
"","survey-likert","144","299562","0.0-40.0","SS1627326972283","","4674.899999991059","similarity_question","","","","","","","","","{""Q0"":0}","[0]","","","","","","","images/stimuli/complex_03_A_a.gif","images/stimuli/complex_06_A_a.gif"
"","survey-likert","145","303234","0.0-41.0","SS1627326972283","","3664","similarity_question","","","","","","","","","{""Q0"":1}","[0]","","","","","","","images/stimuli/complex_04_A_b.gif","images/stimuli/complex_17_A_b.gif"
"","survey-likert","146","311645","0.0-42.0","SS1627326972283","","8399.5","similarity_question","","","","","","","","","{""Q0"":2}","[0]","","","","","","","images/stimuli/complex_16_A_b.gif","images/stimuli/complex_05_A_b.gif"
"","survey-likert","147","314967","0.0-43.0","SS1627326972283","","3310.6000000089407","similarity_question","","","","","","","","","{""Q0"":0}","[0]","","","","","","","images/stimuli/complex_10_A_a.gif","images/stimuli/complex_18_A_b.gif"
"","instructions","148","317756","0.0-44.0","SS1627326972283","[{""page_index"":0,""viewing_time"":2779.5}]","2780","instructions","","","","","","","","","","","","","","","","","",""
"","survey-likert","149","321487","0.0-45.0","SS1627326972283","","3724.5","","","","","","","","","","{""Q0"":4}","[0]","","","images/stimuli/complex_10_A_a.gif","","","","",""
"","survey-likert","150","324190","0.0-46.0","SS1627326972283","","2694.5","","","","","","","","","","{""Q0"":2}","[0]","","","images/stimuli/complex_03_A_a.gif","","","","",""
"","survey-likert","151","327588","0.0-47.0","SS1627326972283","","3386.7000000029802","","","","","","","","","","{""Q0"":2}","[0]","","","images/stimuli/complex_08_A_b.gif","","","","",""
"","survey-likert","152","329749","0.0-48.0","SS1627326972283","","2148.5","","","","","","","","","","{""Q0"":5}","[0]","","","images/stimuli/complex_20_A_b.gif","","","","",""
"","survey-likert","153","332813","0.0-49.0","SS1627326972283","","3053.6000000089407","","","","","","","","","","{""Q0"":2}","[0]","","","images/stimuli/complex_17_A_b.gif","","","","",""
"","survey-likert","154","335184","0.0-50.0","SS1627326972283","","2358.5","","","","","","","","","","{""Q0"":3}","[0]","","","images/stimuli/complex_07_A_b.gif","","","","",""
"","survey-likert","155","339401","0.0-51.0","SS1627326972283","","4206.399999991059","","","","","","","","","","{""Q0"":4}","[0]","","","images/stimuli/complex_16_A_b.gif","","","","",""
"","survey-likert","156","341966","0.0-52.0","SS1627326972283","","2552.4000000059605","","","","","","","","","","{""Q0"":5}","[0]","","","images/stimuli/complex_19_A_a.gif","","","","",""
"true","fullscreen","157","342976","0.0-53.0","SS1627326972283","","","","","","","","","","","","","","","","","","","","",""
"","instructions","158","344830","0.0-54.0","SS1627326972283","[{""page_index"":0,""viewing_time"":1851.4000000059605}]","1851.7999999970198","instructions","","","","","","","","","","","","","","","","","",""
"","demog-age","159","347220","0.0-55.0","SS1627326972283","","2381.1000000089407","","","","","","","","","","{""age"":""18""}","","","","","","","","",""
"","demog-ethnic-US","160","349776","0.0-56.0","SS1627326972283","","2546.1000000089407","","","","","","","","","","{""ethnicity"":[""White""]}","[0]","","","","","","","",""
"","demog-gender-and-education","161","355363","0.0-57.0","SS1627326972283","","5574.9000000059605","","","","","","","","","","{""gender"":""Female"",""education"":""High school diploma""}","[0,1]","","","","","","","",""
"","survey-text","162","364187","0.0-58.0","SS1627326972283","","8810.40000000596","feedback","","","","","","","","","{""Q0"":""no issues with the experiment!""}","","","","","","","","",""
"","instructions","163","365379","0.0-59.0","SS1627326972283","[{""page_index"":0,""viewing_time"":1185.9000000059605}]","1186.5","instructions","","","","","","","","","","","","","","","","","",""
