"success","trial_type","trial_index","time_elapsed","internal_node_id","subject","view_history","rt","stimulus_type","trial_stimulus","key_press","minimum_viewing_duration","trial_looking_time","block_deviant","block_background","exposure_type","forced_exposure_time","responses","question_order","memory_question_stimuli","memory_block_index","stimulus","block_number","block_type","stimulus_displayed","stimulus_left","stimulus_right"
"true","fullscreen","0","2867","0.0-0.0","SS1627326630212","","","","","","","","","","","","","","","","","","","","",""
"","instructions","1","11787","0.0-1.0","SS1627326630212","[{""page_index"":0,""viewing_time"":8916.799999999814}]","8917.799999999814","","","","","","","","","","","","","","","","","","",""
"","instructions","2","21408","0.0-2.0","SS1627326630212","[{""page_index"":0,""viewing_time"":5448.299999999814},{""page_index"":1,""viewing_time"":2165.9000000001397}]","7614.399999999907","instructions","","","","","","","","","","","","","","","","","",""
"","stimuli-presentation","3","25668","0.0-3.0","SS1627326630212","","3757.5999999998603","","","40","500","4257.59999999986","null","null","self_paced","0","","","","","","","","","",""
"","instructions","4","31351","0.0-4.0","SS1627326630212","[{""page_index"":0,""viewing_time"":5681.199999999953}]","5681.399999999907","instructions","","","","","","","","","","","","","","","","","",""
"","stimuli-presentation","5","41535","0.0-5.0","SS1627326630212","","9678.899999999907","","","40","500","10178.899999999907","null","null","forced_short","500","","","","","","","","","",""
"","stimuli-presentation","6","44173","0.0-6.0","SS1627326630212","","2133.899999999907","","","40","500","2633.899999999907","null","null","forced_short","500","","","","","","","","","",""
"","instructions","7","49257","0.0-7.0","SS1627326630212","[{""page_index"":0,""viewing_time"":5082.100000000093}]","5082.40000000014","instructions","","","","","","","","","","","","","","","","","",""
"","survey-multi-choice","8","51245","0.0-8.0","SS1627326630212","","1984.0999999998603","memory_test_practice","","","","","","","","","{""Q0"":""Yes""}","[0]","images/practice/instructions_example_spore2.gif","0","","","","","",""
"","survey-multi-choice","9","52886","0.0-9.0","SS1627326630212","","1638.4000000001397","memory_test_practice","","","","","","","","","{""Q0"":""No""}","[0]","images/practice/instructions_example_spore0.gif","0","","","","","",""
"","instructions","10","61929","0.0-10.0","SS1627326630212","[{""page_index"":0,""viewing_time"":8100.399999999907},{""page_index"":1,""viewing_time"":940.3000000000466}]","9041","instructions","","","","","","","","","","","","","","","","","",""
"","html-keyboard-response","11","63034","0.0-11.0-0.0","SS1627326630212","","null","","","null","","","","","","","","","","","<p><img src= images/blank.png width =""600"" height = ""600"" style=""position:fixed;top:50%; left:50%; transform: translate(-50%, -50%); border:5px solid black"">","","","","",""
"","stimuli-presentation","12","65578","0.0-11.0-1.0","SS1627326630212","","2075.3000000000466","trial","","40","500","2575.3000000000466","images/stimuli/complex_06_A_a.gif","images/stimuli/complex_04_A_a.gif","forced_short","460","","","","","","0","complex_dissimilar","images/stimuli/complex_04_A_a.gif","",""
"","html-keyboard-response","13","66618","0.0-11.0-0.1","SS1627326630212","","null","","","null","","","","","","","","","","","<p><img src= images/blank.png width =""600"" height = ""600"" style=""position:fixed;top:50%; left:50%; transform: translate(-50%, -50%); border:5px solid black"">","","","","",""
"","stimuli-presentation","14","77756","0.0-11.0-1.1","SS1627326630212","","10625.299999999814","trial","","40","500","11125.299999999814","images/stimuli/complex_06_A_a.gif","images/stimuli/complex_04_A_a.gif","forced_short","460","","","","","","0","complex_dissimilar","images/stimuli/complex_04_A_a.gif","",""
"","html-keyboard-response","15","78635","0.0-11.0-0.2","SS1627326630212","","null","","","null","","","","","","","","","","","<p><img src= images/blank.png width =""600"" height = ""600"" style=""position:fixed;top:50%; left:50%; transform: translate(-50%, -50%); border:5px solid black"">","","","","",""
"","stimuli-presentation","16","87043","0.0-11.0-1.2","SS1627326630212","","7902.5","trial","","40","500","8402.5","images/stimuli/complex_06_A_a.gif","images/stimuli/complex_04_A_a.gif","forced_short","460","","","","","","0","complex_dissimilar","images/stimuli/complex_06_A_a.gif","",""
"","html-keyboard-response","17","88233","0.0-11.0-0.3","SS1627326630212","","null","","","null","","","","","","","","","","","<p><img src= images/blank.png width =""600"" height = ""600"" style=""position:fixed;top:50%; left:50%; transform: translate(-50%, -50%); border:5px solid black"">","","","","",""
"","stimuli-presentation","18","93139","0.0-11.0-1.3","SS1627326630212","","4401.5","trial","","40","500","4901.5","images/stimuli/complex_06_A_a.gif","images/stimuli/complex_04_A_a.gif","forced_short","460","","","","","","0","complex_dissimilar","images/stimuli/complex_04_A_a.gif","",""
"","html-keyboard-response","19","94222","0.0-11.0-0.4","SS1627326630212","","null","","","null","","","","","","","","","","","<p><img src= images/blank.png width =""600"" height = ""600"" style=""position:fixed;top:50%; left:50%; transform: translate(-50%, -50%); border:5px solid black"">","","","","",""
"","stimuli-presentation","20","101402","0.0-11.0-1.4","SS1627326630212","","6672.100000000093","trial","","40","500","7172.100000000093","images/stimuli/complex_06_A_a.gif","images/stimuli/complex_04_A_a.gif","forced_short","460","","","","","","0","complex_dissimilar","images/stimuli/complex_04_A_a.gif","",""
"","html-keyboard-response","21","102572","0.0-11.0-0.5","SS1627326630212","","null","","","null","","","","","","","","","","","<p><img src= images/blank.png width =""600"" height = ""600"" style=""position:fixed;top:50%; left:50%; transform: translate(-50%, -50%); border:5px solid black"">","","","","",""
"","stimuli-presentation","22","109033","0.0-11.0-1.5","SS1627326630212","","5957.199999999953","trial","","40","500","6457.199999999953","images/stimuli/complex_06_A_a.gif","images/stimuli/complex_04_A_a.gif","forced_short","460","","","","","","0","complex_dissimilar","images/stimuli/complex_06_A_a.gif","",""
"","html-keyboard-response","23","110327","0.0-11.0-0.6","SS1627326630212","","null","","","null","","","","","","","","","","","<p><img src= images/blank.png width =""600"" height = ""600"" style=""position:fixed;top:50%; left:50%; transform: translate(-50%, -50%); border:5px solid black"">","","","","",""
"","stimuli-presentation","24","115110","0.0-11.0-1.6","SS1627326630212","","4278.699999999953","trial","","40","500","4778.699999999953","images/stimuli/complex_06_A_a.gif","images/stimuli/complex_04_A_a.gif","forced_short","460","","","","","","0","complex_dissimilar","images/stimuli/complex_04_A_a.gif","",""
"","survey-multi-choice","25","118238","0.0-12.0","SS1627326630212","","3125.8000000000466","memory_test","","","","","","","","","{""Q0"":""No""}","[0]","images/stimuli/complex_21_A_b.gif","0","","","","","",""
"","survey-multi-choice","26","120097","0.0-13.0","SS1627326630212","","1856.2000000001863","memory_test","","","","","","","","","{""Q0"":""Yes""}","[0]","images/stimuli/complex_04_A_a.gif","0","","","","","",""
"","html-keyboard-response","27","121044","0.0-14.0-0.0","SS1627326630212","","null","","","null","","","","","","","","","","","<p><img src= images/blank.png width =""600"" height = ""600"" style=""position:fixed;top:50%; left:50%; transform: translate(-50%, -50%); border:5px solid black"">","","","","",""
"","stimuli-presentation","28","123747","0.0-14.0-1.0","SS1627326630212","","1987.3999999999069","trial","","40","500","2487.399999999907","images/stimuli/complex_18_A_a.gif","images/stimuli/complex_22_A_a.gif","forced_short","710","","","","","","1","complex_dissimilar","images/stimuli/complex_22_A_a.gif","",""
"","html-keyboard-response","29","124735","0.0-14.0-0.1","SS1627326630212","","null","","","null","","","","","","","","","","","<p><img src= images/blank.png width =""600"" height = ""600"" style=""position:fixed;top:50%; left:50%; transform: translate(-50%, -50%); border:5px solid black"">","","","","",""
"","stimuli-presentation","30","133200","0.0-14.0-1.1","SS1627326630212","","7957.299999999814","trial","","40","500","8457.299999999814","images/stimuli/complex_18_A_a.gif","images/stimuli/complex_22_A_a.gif","forced_short","710","","","","","","1","complex_dissimilar","images/stimuli/complex_22_A_a.gif","",""
"","html-keyboard-response","31","134257","0.0-14.0-0.2","SS1627326630212","","null","","","null","","","","","","","","","","","<p><img src= images/blank.png width =""600"" height = ""600"" style=""position:fixed;top:50%; left:50%; transform: translate(-50%, -50%); border:5px solid black"">","","","","",""
"","stimuli-presentation","32","136734","0.0-14.0-1.2","SS1627326630212","","1972.9000000001397","trial","","40","500","2472.9000000001397","images/stimuli/complex_18_A_a.gif","images/stimuli/complex_22_A_a.gif","forced_short","710","","","","","","1","complex_dissimilar","images/stimuli/complex_22_A_a.gif","",""
"","html-keyboard-response","33","137680","0.0-14.0-0.3","SS1627326630212","","null","","","null","","","","","","","","","","","<p><img src= images/blank.png width =""600"" height = ""600"" style=""position:fixed;top:50%; left:50%; transform: translate(-50%, -50%); border:5px solid black"">","","","","",""
"","stimuli-presentation","34","140786","0.0-14.0-1.3","SS1627326630212","","2602.6999999999534","trial","","40","500","3102.6999999999534","images/stimuli/complex_18_A_a.gif","images/stimuli/complex_22_A_a.gif","forced_short","710","","","","","","1","complex_dissimilar","images/stimuli/complex_22_A_a.gif","",""
"","html-keyboard-response","35","141611","0.0-14.0-0.4","SS1627326630212","","null","","","null","","","","","","","","","","","<p><img src= images/blank.png width =""600"" height = ""600"" style=""position:fixed;top:50%; left:50%; transform: translate(-50%, -50%); border:5px solid black"">","","","","",""
"","stimuli-presentation","36","145620","0.0-14.0-1.4","SS1627326630212","","3501.100000000093","trial","","40","500","4001.100000000093","images/stimuli/complex_18_A_a.gif","images/stimuli/complex_22_A_a.gif","forced_short","710","","","","","","1","complex_dissimilar","images/stimuli/complex_22_A_a.gif","",""
"","html-keyboard-response","37","146799","0.0-14.0-0.5","SS1627326630212","","null","","","null","","","","","","","","","","","<p><img src= images/blank.png width =""600"" height = ""600"" style=""position:fixed;top:50%; left:50%; transform: translate(-50%, -50%); border:5px solid black"">","","","","",""
"","stimuli-presentation","38","149037","0.0-14.0-1.5","SS1627326630212","","1730.3000000000466","trial","","40","500","2230.3000000000466","images/stimuli/complex_18_A_a.gif","images/stimuli/complex_22_A_a.gif","forced_short","710","","","","","","1","complex_dissimilar","images/stimuli/complex_22_A_a.gif","",""
"","survey-multi-choice","39","151431","0.0-15.0","SS1627326630212","","2391.0999999998603","memory_test","","","","","","","","","{""Q0"":""No""}","[0]","images/stimuli/complex_23_A_b.gif","1","","","","","",""
"","survey-multi-choice","40","152926","0.0-16.0","SS1627326630212","","1492.5","memory_test","","","","","","","","","{""Q0"":""Yes""}","[0]","images/stimuli/complex_22_A_a.gif","1","","","","","",""
"","html-keyboard-response","41","154034","0.0-17.0-0.0","SS1627326630212","","null","","","null","","","","","","","","","","","<p><img src= images/blank.png width =""600"" height = ""600"" style=""position:fixed;top:50%; left:50%; transform: translate(-50%, -50%); border:5px solid black"">","","","","",""
"","stimuli-presentation","42","157194","0.0-17.0-1.0","SS1627326630212","","2553","trial","","40","500","3053","images/stimuli/complex_08_A_b.gif","images/stimuli/complex_24_A_b.gif","forced_short","600","","","","","","2","complex_dissimilar","images/stimuli/complex_24_A_b.gif","",""
"","html-keyboard-response","43","158365","0.0-17.0-0.1","SS1627326630212","","null","","","null","","","","","","","","","","","<p><img src= images/blank.png width =""600"" height = ""600"" style=""position:fixed;top:50%; left:50%; transform: translate(-50%, -50%); border:5px solid black"">","","","","",""
"","stimuli-presentation","44","165686","0.0-17.0-1.1","SS1627326630212","","6818","trial","","40","500","7318","images/stimuli/complex_08_A_b.gif","images/stimuli/complex_24_A_b.gif","forced_short","600","","","","","","2","complex_dissimilar","images/stimuli/complex_24_A_b.gif","",""
"","html-keyboard-response","45","166766","0.0-17.0-0.2","SS1627326630212","","null","","","null","","","","","","","","","","","<p><img src= images/blank.png width =""600"" height = ""600"" style=""position:fixed;top:50%; left:50%; transform: translate(-50%, -50%); border:5px solid black"">","","","","",""
"","stimuli-presentation","46","167864","0.0-17.0-1.2","SS1627326630212","","593","trial","","40","500","1093","images/stimuli/complex_08_A_b.gif","images/stimuli/complex_24_A_b.gif","forced_short","600","","","","","","2","complex_dissimilar","images/stimuli/complex_24_A_b.gif","",""
"","html-keyboard-response","47","168698","0.0-17.0-0.3","SS1627326630212","","null","","","null","","","","","","","","","","","<p><img src= images/blank.png width =""600"" height = ""600"" style=""position:fixed;top:50%; left:50%; transform: translate(-50%, -50%); border:5px solid black"">","","","","",""
"","stimuli-presentation","48","174635","0.0-17.0-1.3","SS1627326630212","","5434.40000000014","trial","","40","500","5934.40000000014","images/stimuli/complex_08_A_b.gif","images/stimuli/complex_24_A_b.gif","forced_short","600","","","","","","2","complex_dissimilar","images/stimuli/complex_08_A_b.gif","",""
"","html-keyboard-response","49","175502","0.0-17.0-0.4","SS1627326630212","","null","","","null","","","","","","","","","","","<p><img src= images/blank.png width =""600"" height = ""600"" style=""position:fixed;top:50%; left:50%; transform: translate(-50%, -50%); border:5px solid black"">","","","","",""
"","stimuli-presentation","50","178078","0.0-17.0-1.4","SS1627326630212","","2072.899999999907","trial","","40","500","2572.899999999907","images/stimuli/complex_08_A_b.gif","images/stimuli/complex_24_A_b.gif","forced_short","600","","","","","","2","complex_dissimilar","images/stimuli/complex_24_A_b.gif","",""
"","html-keyboard-response","51","179366","0.0-17.0-0.5","SS1627326630212","","null","","","null","","","","","","","","","","","<p><img src= images/blank.png width =""600"" height = ""600"" style=""position:fixed;top:50%; left:50%; transform: translate(-50%, -50%); border:5px solid black"">","","","","",""
"","stimuli-presentation","52","181367","0.0-17.0-1.5","SS1627326630212","","1497.1999999999534","trial","","40","500","1997.1999999999534","images/stimuli/complex_08_A_b.gif","images/stimuli/complex_24_A_b.gif","forced_short","600","","","","","","2","complex_dissimilar","images/stimuli/complex_24_A_b.gif","",""
"","survey-multi-choice","53","183502","0.0-18.0","SS1627326630212","","2132.100000000093","memory_test","","","","","","","","","{""Q0"":""Yes""}","[0]","images/stimuli/complex_08_A_b.gif","2","","","","","",""
"","survey-multi-choice","54","185134","0.0-19.0","SS1627326630212","","1629.3999999999069","memory_test","","","","","","","","","{""Q0"":""No""}","[0]","images/stimuli/complex_02_A_b.gif","2","","","","","",""
"","html-keyboard-response","55","186208","0.0-20.0-0.0","SS1627326630212","","null","","","null","","","","","","","","","","","<p><img src= images/blank.png width =""600"" height = ""600"" style=""position:fixed;top:50%; left:50%; transform: translate(-50%, -50%); border:5px solid black"">","","","","",""
"","stimuli-presentation","56","187482","0.0-20.0-1.0","SS1627326630212","","1117.8999999999069","trial","","40","500","1617.8999999999069","images/stimuli/complex_03_A_b.gif","images/stimuli/complex_05_A_b.gif","forced_short","150","","","","","","3","complex_dissimilar","images/stimuli/complex_05_A_b.gif","",""
"","html-keyboard-response","57","188389","0.0-20.0-0.1","SS1627326630212","","null","","","null","","","","","","","","","","","<p><img src= images/blank.png width =""600"" height = ""600"" style=""position:fixed;top:50%; left:50%; transform: translate(-50%, -50%); border:5px solid black"">","","","","",""
"","stimuli-presentation","58","193290","0.0-20.0-1.1","SS1627326630212","","4398.100000000093","trial","","40","500","4898.100000000093","images/stimuli/complex_03_A_b.gif","images/stimuli/complex_05_A_b.gif","forced_short","150","","","","","","3","complex_dissimilar","images/stimuli/complex_05_A_b.gif","",""
"","html-keyboard-response","59","194439","0.0-20.0-0.2","SS1627326630212","","null","","","null","","","","","","","","","","","<p><img src= images/blank.png width =""600"" height = ""600"" style=""position:fixed;top:50%; left:50%; transform: translate(-50%, -50%); border:5px solid black"">","","","","",""
"","stimuli-presentation","60","195896","0.0-20.0-1.2","SS1627326630212","","951.9000000001397","trial","","40","500","1451.9000000001397","images/stimuli/complex_03_A_b.gif","images/stimuli/complex_05_A_b.gif","forced_short","150","","","","","","3","complex_dissimilar","images/stimuli/complex_05_A_b.gif","",""
"","html-keyboard-response","61","197090","0.0-20.0-0.3","SS1627326630212","","null","","","null","","","","","","","","","","","<p><img src= images/blank.png width =""600"" height = ""600"" style=""position:fixed;top:50%; left:50%; transform: translate(-50%, -50%); border:5px solid black"">","","","","",""
"","stimuli-presentation","62","198279","0.0-20.0-1.3","SS1627326630212","","681.8999999999069","trial","","40","500","1181.8999999999069","images/stimuli/complex_03_A_b.gif","images/stimuli/complex_05_A_b.gif","forced_short","150","","","","","","3","complex_dissimilar","images/stimuli/complex_05_A_b.gif","",""
"","html-keyboard-response","63","199317","0.0-20.0-0.4","SS1627326630212","","null","","","null","","","","","","","","","","","<p><img src= images/blank.png width =""600"" height = ""600"" style=""position:fixed;top:50%; left:50%; transform: translate(-50%, -50%); border:5px solid black"">","","","","",""
"","stimuli-presentation","64","202017","0.0-20.0-1.4","SS1627326630212","","2195.5","trial","","40","500","2695.5","images/stimuli/complex_03_A_b.gif","images/stimuli/complex_05_A_b.gif","forced_short","150","","","","","","3","complex_dissimilar","images/stimuli/complex_05_A_b.gif","",""
"","html-keyboard-response","65","203090","0.0-20.0-0.5","SS1627326630212","","null","","","null","","","","","","","","","","","<p><img src= images/blank.png width =""600"" height = ""600"" style=""position:fixed;top:50%; left:50%; transform: translate(-50%, -50%); border:5px solid black"">","","","","",""
"","stimuli-presentation","66","203942","0.0-20.0-1.5","SS1627326630212","","344.10000000009313","trial","","40","500","844.1000000000931","images/stimuli/complex_03_A_b.gif","images/stimuli/complex_05_A_b.gif","forced_short","150","","","","","","3","complex_dissimilar","images/stimuli/complex_05_A_b.gif","",""
"","html-keyboard-response","67","204924","0.0-20.0-0.6","SS1627326630212","","null","","","null","","","","","","","","","","","<p><img src= images/blank.png width =""600"" height = ""600"" style=""position:fixed;top:50%; left:50%; transform: translate(-50%, -50%); border:5px solid black"">","","","","",""
"","stimuli-presentation","68","205955","0.0-20.0-1.6","SS1627326630212","","526.5","trial","","40","500","1026.5","images/stimuli/complex_03_A_b.gif","images/stimuli/complex_05_A_b.gif","forced_short","150","","","","","","3","complex_dissimilar","images/stimuli/complex_05_A_b.gif","",""
"","html-keyboard-response","69","206953","0.0-20.0-0.7","SS1627326630212","","null","","","null","","","","","","","","","","","<p><img src= images/blank.png width =""600"" height = ""600"" style=""position:fixed;top:50%; left:50%; transform: translate(-50%, -50%); border:5px solid black"">","","","","",""
"","stimuli-presentation","70","207891","0.0-20.0-1.7","SS1627326630212","","427.4000000001397","trial","","40","500","927.4000000001397","images/stimuli/complex_03_A_b.gif","images/stimuli/complex_05_A_b.gif","forced_short","150","","","","","","3","complex_dissimilar","images/stimuli/complex_05_A_b.gif","",""
"","survey-multi-choice","71","212104","0.0-21.0","SS1627326630212","","4210.100000000093","memory_test","","","","","","","","","{""Q0"":""No""}","[0]","images/stimuli/complex_13_A_a.gif","3","","","","","",""
"","survey-multi-choice","72","213461","0.0-22.0","SS1627326630212","","1354.5","memory_test","","","","","","","","","{""Q0"":""Yes""}","[0]","images/stimuli/complex_05_A_b.gif","3","","","","","",""
"","html-keyboard-response","73","214592","0.0-23.0-0.0","SS1627326630212","","null","","","null","","","","","","","","","","","<p><img src= images/blank.png width =""600"" height = ""600"" style=""position:fixed;top:50%; left:50%; transform: translate(-50%, -50%); border:5px solid black"">","","","","",""
"","stimuli-presentation","74","216654","0.0-23.0-1.0","SS1627326630212","","1358.8999999999069","trial","","40","500","1858.8999999999069","images/stimuli/complex_15_A_b.gif","images/stimuli/complex_01_A_a.gif","forced_short","700","","","","","","4","complex_dissimilar","images/stimuli/complex_01_A_a.gif","",""
"","html-keyboard-response","75","217625","0.0-23.0-0.1","SS1627326630212","","null","","","null","","","","","","","","","","","<p><img src= images/blank.png width =""600"" height = ""600"" style=""position:fixed;top:50%; left:50%; transform: translate(-50%, -50%); border:5px solid black"">","","","","",""
"","stimuli-presentation","76","222664","0.0-23.0-1.1","SS1627326630212","","4535.600000000093","trial","","40","500","5035.600000000093","images/stimuli/complex_15_A_b.gif","images/stimuli/complex_01_A_a.gif","forced_short","700","","","","","","4","complex_dissimilar","images/stimuli/complex_01_A_a.gif","",""
"","html-keyboard-response","77","223676","0.0-23.0-0.2","SS1627326630212","","null","","","null","","","","","","","","","","","<p><img src= images/blank.png width =""600"" height = ""600"" style=""position:fixed;top:50%; left:50%; transform: translate(-50%, -50%); border:5px solid black"">","","","","",""
"","stimuli-presentation","78","224757","0.0-23.0-1.2","SS1627326630212","","572.6000000000931","trial","","40","500","1072.6000000000931","images/stimuli/complex_15_A_b.gif","images/stimuli/complex_01_A_a.gif","forced_short","700","","","","","","4","complex_dissimilar","images/stimuli/complex_01_A_a.gif","",""
"","html-keyboard-response","79","225728","0.0-23.0-0.3","SS1627326630212","","null","","","null","","","","","","","","","","","<p><img src= images/blank.png width =""600"" height = ""600"" style=""position:fixed;top:50%; left:50%; transform: translate(-50%, -50%); border:5px solid black"">","","","","",""
"","stimuli-presentation","80","227206","0.0-23.0-1.3","SS1627326630212","","975.8000000000466","trial","","40","500","1475.8000000000466","images/stimuli/complex_15_A_b.gif","images/stimuli/complex_01_A_a.gif","forced_short","700","","","","","","4","complex_dissimilar","images/stimuli/complex_01_A_a.gif","",""
"","html-keyboard-response","81","228016","0.0-23.0-0.4","SS1627326630212","","null","","","null","","","","","","","","","","","<p><img src= images/blank.png width =""600"" height = ""600"" style=""position:fixed;top:50%; left:50%; transform: translate(-50%, -50%); border:5px solid black"">","","","","",""
"","stimuli-presentation","82","229682","0.0-23.0-1.4","SS1627326630212","","1159.5999999998603","trial","","40","500","1659.5999999998603","images/stimuli/complex_15_A_b.gif","images/stimuli/complex_01_A_a.gif","forced_short","700","","","","","","4","complex_dissimilar","images/stimuli/complex_01_A_a.gif","",""
"","html-keyboard-response","83","230759","0.0-23.0-0.5","SS1627326630212","","null","","","null","","","","","","","","","","","<p><img src= images/blank.png width =""600"" height = ""600"" style=""position:fixed;top:50%; left:50%; transform: translate(-50%, -50%); border:5px solid black"">","","","","",""
"","stimuli-presentation","84","232197","0.0-23.0-1.5","SS1627326630212","","929.9000000001397","trial","","40","500","1429.9000000001397","images/stimuli/complex_15_A_b.gif","images/stimuli/complex_01_A_a.gif","forced_short","700","","","","","","4","complex_dissimilar","images/stimuli/complex_01_A_a.gif","",""
"","html-keyboard-response","85","233124","0.0-23.0-0.6","SS1627326630212","","null","","","null","","","","","","","","","","","<p><img src= images/blank.png width =""600"" height = ""600"" style=""position:fixed;top:50%; left:50%; transform: translate(-50%, -50%); border:5px solid black"">","","","","",""
"","stimuli-presentation","86","234766","0.0-23.0-1.6","SS1627326630212","","1136.2000000001863","trial","","40","500","1636.2000000001863","images/stimuli/complex_15_A_b.gif","images/stimuli/complex_01_A_a.gif","forced_short","700","","","","","","4","complex_dissimilar","images/stimuli/complex_01_A_a.gif","",""
"","html-keyboard-response","87","235661","0.0-23.0-0.7","SS1627326630212","","null","","","null","","","","","","","","","","","<p><img src= images/blank.png width =""600"" height = ""600"" style=""position:fixed;top:50%; left:50%; transform: translate(-50%, -50%); border:5px solid black"">","","","","",""
"","stimuli-presentation","88","239296","0.0-23.0-1.7","SS1627326630212","","3128.1999999999534","trial","","40","500","3628.1999999999534","images/stimuli/complex_15_A_b.gif","images/stimuli/complex_01_A_a.gif","forced_short","700","","","","","","4","complex_dissimilar","images/stimuli/complex_15_A_b.gif","",""
"","survey-multi-choice","89","241571","0.0-24.0","SS1627326630212","","2272.2000000001863","memory_test","","","","","","","","","{""Q0"":""Yes""}","[0]","images/stimuli/complex_15_A_b.gif","4","","","","","",""
"","survey-multi-choice","90","244222","0.0-25.0","SS1627326630212","","2647.1999999999534","memory_test","","","","","","","","","{""Q0"":""No""}","[0]","images/stimuli/complex_14_A_b.gif","4","","","","","",""
"","html-keyboard-response","91","245360","0.0-26.0-0.0","SS1627326630212","","null","","","null","","","","","","","","","","","<p><img src= images/blank.png width =""600"" height = ""600"" style=""position:fixed;top:50%; left:50%; transform: translate(-50%, -50%); border:5px solid black"">","","","","",""
"","stimuli-presentation","92","247046","0.0-26.0-1.0","SS1627326630212","","1489.1000000000931","trial","","40","500","1989.1000000000931","images/stimuli/complex_10_A_a.gif","images/stimuli/complex_17_A_a.gif","forced_short","190","","","","","","5","complex_dissimilar","images/stimuli/complex_17_A_a.gif","",""
"","html-keyboard-response","93","248172","0.0-26.0-0.1","SS1627326630212","","null","","","null","","","","","","","","","","","<p><img src= images/blank.png width =""600"" height = ""600"" style=""position:fixed;top:50%; left:50%; transform: translate(-50%, -50%); border:5px solid black"">","","","","",""
"","stimuli-presentation","94","250868","0.0-26.0-1.1","SS1627326630212","","2191.1999999999534","trial","","40","500","2691.1999999999534","images/stimuli/complex_10_A_a.gif","images/stimuli/complex_17_A_a.gif","forced_short","190","","","","","","5","complex_dissimilar","images/stimuli/complex_17_A_a.gif","",""
"","html-keyboard-response","95","251756","0.0-26.0-0.2","SS1627326630212","","null","","","null","","","","","","","","","","","<p><img src= images/blank.png width =""600"" height = ""600"" style=""position:fixed;top:50%; left:50%; transform: translate(-50%, -50%); border:5px solid black"">","","","","",""
"","stimuli-presentation","96","252984","0.0-26.0-1.2","SS1627326630212","","723.5999999998603","trial","","40","500","1223.5999999998603","images/stimuli/complex_10_A_a.gif","images/stimuli/complex_17_A_a.gif","forced_short","190","","","","","","5","complex_dissimilar","images/stimuli/complex_17_A_a.gif","",""
"","html-keyboard-response","97","253883","0.0-26.0-0.3","SS1627326630212","","null","","","null","","","","","","","","","","","<p><img src= images/blank.png width =""600"" height = ""600"" style=""position:fixed;top:50%; left:50%; transform: translate(-50%, -50%); border:5px solid black"">","","","","",""
"","stimuli-presentation","98","254861","0.0-26.0-1.3","SS1627326630212","","474.5","trial","","40","500","974.5","images/stimuli/complex_10_A_a.gif","images/stimuli/complex_17_A_a.gif","forced_short","190","","","","","","5","complex_dissimilar","images/stimuli/complex_17_A_a.gif","",""
"","html-keyboard-response","99","255689","0.0-26.0-0.4","SS1627326630212","","null","","","null","","","","","","","","","","","<p><img src= images/blank.png width =""600"" height = ""600"" style=""position:fixed;top:50%; left:50%; transform: translate(-50%, -50%); border:5px solid black"">","","","","",""
"","stimuli-presentation","100","257637","0.0-26.0-1.4","SS1627326630212","","1439.1999999999534","trial","","40","500","1939.1999999999534","images/stimuli/complex_10_A_a.gif","images/stimuli/complex_17_A_a.gif","forced_short","190","","","","","","5","complex_dissimilar","images/stimuli/complex_17_A_a.gif","",""
"","html-keyboard-response","101","258694","0.0-26.0-0.5","SS1627326630212","","null","","","null","","","","","","","","","","","<p><img src= images/blank.png width =""600"" height = ""600"" style=""position:fixed;top:50%; left:50%; transform: translate(-50%, -50%); border:5px solid black"">","","","","",""
"","stimuli-presentation","102","260076","0.0-26.0-1.5","SS1627326630212","","876.6000000000931","trial","","40","500","1376.6000000000931","images/stimuli/complex_10_A_a.gif","images/stimuli/complex_17_A_a.gif","forced_short","190","","","","","","5","complex_dissimilar","images/stimuli/complex_17_A_a.gif","",""
"","html-keyboard-response","103","261024","0.0-26.0-0.6","SS1627326630212","","null","","","null","","","","","","","","","","","<p><img src= images/blank.png width =""600"" height = ""600"" style=""position:fixed;top:50%; left:50%; transform: translate(-50%, -50%); border:5px solid black"">","","","","",""
"","stimuli-presentation","104","262765","0.0-26.0-1.6","SS1627326630212","","1232.3000000000466","trial","","40","500","1732.3000000000466","images/stimuli/complex_10_A_a.gif","images/stimuli/complex_17_A_a.gif","forced_short","190","","","","","","5","complex_dissimilar","images/stimuli/complex_17_A_a.gif","",""
"","survey-multi-choice","105","264901","0.0-27.0","SS1627326630212","","2133","memory_test","","","","","","","","","{""Q0"":""Yes""}","[0]","images/stimuli/complex_17_A_a.gif","5","","","","","",""
"","survey-multi-choice","106","267041","0.0-28.0","SS1627326630212","","2136.100000000093","memory_test","","","","","","","","","{""Q0"":""No""}","[0]","images/stimuli/complex_16_A_b.gif","5","","","","","",""
"","html-keyboard-response","107","268201","0.0-29.0-0.0","SS1627326630212","","null","","","null","","","","","","","","","","","<p><img src= images/blank.png width =""600"" height = ""600"" style=""position:fixed;top:50%; left:50%; transform: translate(-50%, -50%); border:5px solid black"">","","","","",""
"","stimuli-presentation","108","270024","0.0-29.0-1.0","SS1627326630212","","1402.8000000000466","trial","","40","500","1902.8000000000466","images/stimuli/complex_09_A_a.gif","images/stimuli/complex_12_A_a.gif","forced_short","410","","","","","","6","complex_dissimilar","images/stimuli/complex_12_A_a.gif","",""
"","html-keyboard-response","109","271063","0.0-29.0-0.1","SS1627326630212","","null","","","null","","","","","","","","","","","<p><img src= images/blank.png width =""600"" height = ""600"" style=""position:fixed;top:50%; left:50%; transform: translate(-50%, -50%); border:5px solid black"">","","","","",""
"","stimuli-presentation","110","273570","0.0-29.0-1.1","SS1627326630212","","1999.1999999999534","trial","","40","500","2499.1999999999534","images/stimuli/complex_09_A_a.gif","images/stimuli/complex_12_A_a.gif","forced_short","410","","","","","","6","complex_dissimilar","images/stimuli/complex_12_A_a.gif","",""
"","html-keyboard-response","111","274692","0.0-29.0-0.2","SS1627326630212","","null","","","null","","","","","","","","","","","<p><img src= images/blank.png width =""600"" height = ""600"" style=""position:fixed;top:50%; left:50%; transform: translate(-50%, -50%); border:5px solid black"">","","","","",""
"","stimuli-presentation","112","275259","0.0-29.0-1.2","SS1627326630212","","60.800000000046566","trial","","40","500","560.8000000000466","images/stimuli/complex_09_A_a.gif","images/stimuli/complex_12_A_a.gif","forced_short","410","","","","","","6","complex_dissimilar","images/stimuli/complex_12_A_a.gif","",""
"","html-keyboard-response","113","276545","0.0-29.0-0.3","SS1627326630212","","null","","","null","","","","","","","","","","","<p><img src= images/blank.png width =""600"" height = ""600"" style=""position:fixed;top:50%; left:50%; transform: translate(-50%, -50%); border:5px solid black"">","","","","",""
"","stimuli-presentation","114","277100","0.0-29.0-1.3","SS1627326630212","","46.300000000046566","trial","","40","500","546.3000000000466","images/stimuli/complex_09_A_a.gif","images/stimuli/complex_12_A_a.gif","forced_short","410","","","","","","6","complex_dissimilar","images/stimuli/complex_12_A_a.gif","",""
"","html-keyboard-response","115","278147","0.0-29.0-0.4","SS1627326630212","","null","","","null","","","","","","","","","","","<p><img src= images/blank.png width =""600"" height = ""600"" style=""position:fixed;top:50%; left:50%; transform: translate(-50%, -50%); border:5px solid black"">","","","","",""
"","stimuli-presentation","116","279129","0.0-29.0-1.4","SS1627326630212","","475.10000000009313","trial","","40","500","975.1000000000931","images/stimuli/complex_09_A_a.gif","images/stimuli/complex_12_A_a.gif","forced_short","410","","","","","","6","complex_dissimilar","images/stimuli/complex_12_A_a.gif","",""
"","html-keyboard-response","117","280389","0.0-29.0-0.5","SS1627326630212","","null","","","null","","","","","","","","","","","<p><img src= images/blank.png width =""600"" height = ""600"" style=""position:fixed;top:50%; left:50%; transform: translate(-50%, -50%); border:5px solid black"">","","","","",""
"","stimuli-presentation","118","281043","0.0-29.0-1.5","SS1627326630212","","145.39999999990687","trial","","40","500","645.3999999999069","images/stimuli/complex_09_A_a.gif","images/stimuli/complex_12_A_a.gif","forced_short","410","","","","","","6","complex_dissimilar","images/stimuli/complex_12_A_a.gif","",""
"","html-keyboard-response","119","281954","0.0-29.0-0.6","SS1627326630212","","null","","","null","","","","","","","","","","","<p><img src= images/blank.png width =""600"" height = ""600"" style=""position:fixed;top:50%; left:50%; transform: translate(-50%, -50%); border:5px solid black"">","","","","",""
"","stimuli-presentation","120","283987","0.0-29.0-1.6","SS1627326630212","","1526.0999999998603","trial","","40","500","2026.0999999998603","images/stimuli/complex_09_A_a.gif","images/stimuli/complex_12_A_a.gif","forced_short","410","","","","","","6","complex_dissimilar","images/stimuli/complex_09_A_a.gif","",""
"","html-keyboard-response","121","285085","0.0-29.0-0.7","SS1627326630212","","null","","","null","","","","","","","","","","","<p><img src= images/blank.png width =""600"" height = ""600"" style=""position:fixed;top:50%; left:50%; transform: translate(-50%, -50%); border:5px solid black"">","","","","",""
"","stimuli-presentation","122","285672","0.0-29.0-1.7","SS1627326630212","","80.80000000004657","trial","","40","500","580.8000000000466","images/stimuli/complex_09_A_a.gif","images/stimuli/complex_12_A_a.gif","forced_short","410","","","","","","6","complex_dissimilar","images/stimuli/complex_09_A_a.gif","",""
"","survey-multi-choice","123","287759","0.0-30.0","SS1627326630212","","2084","memory_test","","","","","","","","","{""Q0"":""No""}","[0]","images/stimuli/complex_07_A_b.gif","6","","","","","",""
"","survey-multi-choice","124","289166","0.0-31.0","SS1627326630212","","1403.3000000000466","memory_test","","","","","","","","","{""Q0"":""Yes""}","[0]","images/stimuli/complex_12_A_a.gif","6","","","","","",""
"","html-keyboard-response","125","290419","0.0-32.0-0.0","SS1627326630212","","null","","","null","","","","","","","","","","","<p><img src= images/blank.png width =""600"" height = ""600"" style=""position:fixed;top:50%; left:50%; transform: translate(-50%, -50%); border:5px solid black"">","","","","",""
"","stimuli-presentation","126","292451","0.0-32.0-1.0","SS1627326630212","","1075.3999999999069","trial","","40","500","1575.3999999999069","images/stimuli/complex_11_A_a.gif","images/stimuli/complex_19_A_a.gif","forced_short","950","","","","","","7","complex_dissimilar","images/stimuli/complex_19_A_a.gif","",""
"","html-keyboard-response","127","293278","0.0-32.0-0.1","SS1627326630212","","null","","","null","","","","","","","","","","","<p><img src= images/blank.png width =""600"" height = ""600"" style=""position:fixed;top:50%; left:50%; transform: translate(-50%, -50%); border:5px solid black"">","","","","",""
"","stimuli-presentation","128","297951","0.0-32.0-1.1","SS1627326630212","","4166.899999999907","trial","","40","500","4666.899999999907","images/stimuli/complex_11_A_a.gif","images/stimuli/complex_19_A_a.gif","forced_short","950","","","","","","7","complex_dissimilar","images/stimuli/complex_11_A_a.gif","",""
"","html-keyboard-response","129","299219","0.0-32.0-0.2","SS1627326630212","","null","","","null","","","","","","","","","","","<p><img src= images/blank.png width =""600"" height = ""600"" style=""position:fixed;top:50%; left:50%; transform: translate(-50%, -50%); border:5px solid black"">","","","","",""
"","stimuli-presentation","130","300310","0.0-32.0-1.2","SS1627326630212","","585.6999999999534","trial","","40","500","1085.6999999999534","images/stimuli/complex_11_A_a.gif","images/stimuli/complex_19_A_a.gif","forced_short","950","","","","","","7","complex_dissimilar","images/stimuli/complex_11_A_a.gif","",""
"","html-keyboard-response","131","301526","0.0-32.0-0.3","SS1627326630212","","null","","","null","","","","","","","","","","","<p><img src= images/blank.png width =""600"" height = ""600"" style=""position:fixed;top:50%; left:50%; transform: translate(-50%, -50%); border:5px solid black"">","","","","",""
"","stimuli-presentation","132","304992","0.0-32.0-1.3","SS1627326630212","","2959","trial","","40","500","3459","images/stimuli/complex_11_A_a.gif","images/stimuli/complex_19_A_a.gif","forced_short","950","","","","","","7","complex_dissimilar","images/stimuli/complex_19_A_a.gif","",""
"","html-keyboard-response","133","306257","0.0-32.0-0.4","SS1627326630212","","null","","","null","","","","","","","","","","","<p><img src= images/blank.png width =""600"" height = ""600"" style=""position:fixed;top:50%; left:50%; transform: translate(-50%, -50%); border:5px solid black"">","","","","",""
"","stimuli-presentation","134","308141","0.0-32.0-1.4","SS1627326630212","","1375.7000000001863","trial","","40","500","1875.7000000001863","images/stimuli/complex_11_A_a.gif","images/stimuli/complex_19_A_a.gif","forced_short","950","","","","","","7","complex_dissimilar","images/stimuli/complex_19_A_a.gif","",""
"","html-keyboard-response","135","309071","0.0-32.0-0.5","SS1627326630212","","null","","","null","","","","","","","","","","","<p><img src= images/blank.png width =""600"" height = ""600"" style=""position:fixed;top:50%; left:50%; transform: translate(-50%, -50%); border:5px solid black"">","","","","",""
"","stimuli-presentation","136","310456","0.0-32.0-1.5","SS1627326630212","","877.3999999999069","trial","","40","500","1377.3999999999069","images/stimuli/complex_11_A_a.gif","images/stimuli/complex_19_A_a.gif","forced_short","950","","","","","","7","complex_dissimilar","images/stimuli/complex_19_A_a.gif","",""
"","html-keyboard-response","137","311304","0.0-32.0-0.6","SS1627326630212","","null","","","null","","","","","","","","","","","<p><img src= images/blank.png width =""600"" height = ""600"" style=""position:fixed;top:50%; left:50%; transform: translate(-50%, -50%); border:5px solid black"">","","","","",""
"","stimuli-presentation","138","312393","0.0-32.0-1.6","SS1627326630212","","581.3999999999069","trial","","40","500","1081.3999999999069","images/stimuli/complex_11_A_a.gif","images/stimuli/complex_19_A_a.gif","forced_short","950","","","","","","7","complex_dissimilar","images/stimuli/complex_19_A_a.gif","",""
"","survey-multi-choice","139","315042","0.0-33.0","SS1627326630212","","2646.100000000093","memory_test","","","","","","","","","{""Q0"":""Yes""}","[0]","images/stimuli/complex_19_A_a.gif","7","","","","","",""
"","survey-multi-choice","140","316481","0.0-34.0","SS1627326630212","","1435.3999999999069","memory_test","","","","","","","","","{""Q0"":""No""}","[0]","images/stimuli/complex_20_A_a.gif","7","","","","","",""
"","instructions","141","320026","0.0-35.0","SS1627326630212","[{""page_index"":0,""viewing_time"":3541.8000000000466}]","3542","instructions","","","","","","","","","","","","","","","","","",""
"","survey-likert","142","327262","0.0-36.0","SS1627326630212","","7230.600000000093","similarity_question","","","","","","","","","{""Q0"":1}","[0]","","","","","","","images/stimuli/complex_01_A_a.gif","images/stimuli/complex_15_A_b.gif"
"","survey-likert","143","331150","0.0-37.0","SS1627326630212","","3883.600000000093","similarity_question","","","","","","","","","{""Q0"":4}","[0]","","","","","","","images/stimuli/complex_03_A_b.gif","images/stimuli/complex_05_A_b.gif"
"","survey-likert","144","335110","0.0-38.0","SS1627326630212","","3956.5","similarity_question","","","","","","","","","{""Q0"":2}","[0]","","","","","","","images/stimuli/complex_18_A_a.gif","images/stimuli/complex_22_A_a.gif"
"","survey-likert","145","342485","0.0-39.0","SS1627326630212","","7370.100000000093","similarity_question","","","","","","","","","{""Q0"":4}","[0]","","","","","","","images/stimuli/complex_06_A_a.gif","images/stimuli/complex_04_A_a.gif"
"","survey-likert","146","346687","0.0-40.0","SS1627326630212","","4197.899999999907","similarity_question","","","","","","","","","{""Q0"":0}","[0]","","","","","","","images/stimuli/complex_11_A_a.gif","images/stimuli/complex_19_A_a.gif"
"","survey-likert","147","349185","0.0-41.0","SS1627326630212","","2493.600000000093","similarity_question","","","","","","","","","{""Q0"":3}","[0]","","","","","","","images/stimuli/complex_10_A_a.gif","images/stimuli/complex_17_A_a.gif"
"","survey-likert","148","354906","0.0-42.0","SS1627326630212","","5717.300000000047","similarity_question","","","","","","","","","{""Q0"":5}","[0]","","","","","","","images/stimuli/complex_12_A_a.gif","images/stimuli/complex_09_A_a.gif"
"","survey-likert","149","359877","0.0-43.0","SS1627326630212","","4965.799999999814","similarity_question","","","","","","","","","{""Q0"":6}","[0]","","","","","","","images/stimuli/complex_24_A_b.gif","images/stimuli/complex_08_A_b.gif"
"","instructions","150","363740","0.0-44.0","SS1627326630212","[{""page_index"":0,""viewing_time"":3859.1999999999534}]","3859.8000000000466","instructions","","","","","","","","","","","","","","","","","",""
"","survey-likert","151","370115","0.0-45.0","SS1627326630212","","6369.600000000093","","","","","","","","","","{""Q0"":2}","[0]","","","images/stimuli/complex_04_A_a.gif","","","","",""
"","survey-likert","152","372482","0.0-46.0","SS1627326630212","","2360.399999999907","","","","","","","","","","{""Q0"":4}","[0]","","","images/stimuli/complex_03_A_b.gif","","","","",""
"","survey-likert","153","375012","0.0-47.0","SS1627326630212","","2525.899999999907","","","","","","","","","","{""Q0"":5}","[0]","","","images/stimuli/complex_12_A_a.gif","","","","",""
"","survey-likert","154","379658","0.0-48.0","SS1627326630212","","4640.799999999814","","","","","","","","","","{""Q0"":4}","[0]","","","images/stimuli/complex_01_A_a.gif","","","","",""
"","survey-likert","155","382527","0.0-49.0","SS1627326630212","","2864.600000000093","","","","","","","","","","{""Q0"":2}","[0]","","","images/stimuli/complex_22_A_a.gif","","","","",""
"","survey-likert","156","386357","0.0-50.0","SS1627326630212","","3824.1999999999534","","","","","","","","","","{""Q0"":5}","[0]","","","images/stimuli/complex_08_A_b.gif","","","","",""
"","survey-likert","157","389275","0.0-51.0","SS1627326630212","","2913.600000000093","","","","","","","","","","{""Q0"":6}","[0]","","","images/stimuli/complex_19_A_a.gif","","","","",""
"","survey-likert","158","392871","0.0-52.0","SS1627326630212","","3591.899999999907","","","","","","","","","","{""Q0"":3}","[0]","","","images/stimuli/complex_10_A_a.gif","","","","",""
"true","fullscreen","159","393880","0.0-53.0","SS1627326630212","","","","","","","","","","","","","","","","","","","","",""
"","instructions","160","395223","0.0-54.0","SS1627326630212","[{""page_index"":0,""viewing_time"":1339.5}]","1339.8999999999069","instructions","","","","","","","","","","","","","","","","","",""
"","demog-age","161","397273","0.0-55.0","SS1627326630212","","2042.3999999999069","","","","","","","","","","{""age"":""19""}","","","","","","","","",""
"","demog-ethnic-US","162","399935","0.0-56.0","SS1627326630212","","2655","","","","","","","","","","{""ethnicity"":[""White""]}","[0]","","","","","","","",""
"","demog-gender-and-education","163","405681","0.0-57.0","SS1627326630212","","5741.699999999953","","","","","","","","","","{""gender"":""Female"",""education"":""High school diploma""}","[0,1]","","","","","","","",""
"","survey-text","164","411307","0.0-58.0","SS1627326630212","","5619.299999999814","feedback","","","","","","","","","{""Q0"":""no! all good!""}","","","","","","","","",""
"","instructions","165","412341","0.0-59.0","SS1627326630212","[{""page_index"":0,""viewing_time"":1030.7000000001863}]","1031.2000000001863","instructions","","","","","","","","","","","","","","","","","",""
