"success","trial_type","trial_index","time_elapsed","internal_node_id","subject","view_history","rt","stimulus_type","trial_stimulus","key_press","minimum_viewing_duration","trial_looking_time","block_deviant","block_background","exposure_type","forced_exposure_time","responses","question_order","memory_question_stimuli","memory_block_index","stimulus","block_number","block_type","stimulus_displayed","stimulus_left","stimulus_right"
"true","fullscreen","0","6712","0.0-0.0","SS1627326765948","","","","","","","","","","","","","","","","","","","","",""
"","instructions","1","30746","0.0-1.0","SS1627326765948","[{""page_index"":0,""viewing_time"":24029.90000000596}]","24030.80000001192","","","","","","","","","","","","","","","","","","",""
"","instructions","2","50749","0.0-2.0","SS1627326765948","[{""page_index"":0,""viewing_time"":14309.300000011921},{""page_index"":1,""viewing_time"":3691}]","18000.69999998808","instructions","","","","","","","","","","","","","","","","","",""
"","stimuli-presentation","3","66571","0.0-3.0","SS1627326765948","","15317.700000017881","","","40","500","15817.700000017881","null","null","self_paced","0","","","","","","","","","",""
"","instructions","4","79368","0.0-4.0","SS1627326765948","[{""page_index"":0,""viewing_time"":12793.5}]","12793.800000011921","instructions","","","","","","","","","","","","","","","","","",""
"","stimuli-presentation","5","84072","0.0-5.0","SS1627326765948","","4189.5","","","40","500","4689.5","null","null","forced_short","500","","","","","","","","","",""
"","stimuli-presentation","6","89603","0.0-6.0","SS1627326765948","","5027.399999976158","","","40","500","5527.399999976158","null","null","forced_short","500","","","","","","","","","",""
"","instructions","7","99186","0.0-7.0","SS1627326765948","[{""page_index"":0,""viewing_time"":9580.300000011921}]","9580.59999999404","instructions","","","","","","","","","","","","","","","","","",""
"","survey-multi-choice","8","102982","0.0-8.0","SS1627326765948","","3788.9000000059605","memory_test_practice","","","","","","","","","{""Q0"":""Yes""}","[0]","images/practice/instructions_example_spore2.gif","0","","","","","",""
"","survey-multi-choice","9","106624","0.0-9.0","SS1627326765948","","3639.699999988079","memory_test_practice","","","","","","","","","{""Q0"":""No""}","[0]","images/practice/instructions_example_spore0.gif","0","","","","","",""
"","instructions","10","121897","0.0-10.0","SS1627326765948","[{""page_index"":0,""viewing_time"":13700.59999999404},{""page_index"":1,""viewing_time"":1569.9000000059605}]","15271","instructions","","","","","","","","","","","","","","","","","",""
"","html-keyboard-response","11","123073","0.0-11.0-0.0","SS1627326765948","","null","","","null","","","","","","","","","","","<p><img src= images/blank.png width =""600"" height = ""600"" style=""position:fixed;top:50%; left:50%; transform: translate(-50%, -50%); border:5px solid black"">","","","","",""
"","stimuli-presentation","12","126563","0.0-11.0-1.0","SS1627326765948","","2731.9000000059605","trial","","40","500","3231.9000000059605","images/stimuli/complex_06_A_b.gif","images/stimuli/complex_19_A_a.gif","forced_short","750","","","","","","0","complex_dissimilar","images/stimuli/complex_19_A_a.gif","",""
"","html-keyboard-response","13","127779","0.0-11.0-0.1","SS1627326765948","","null","","","null","","","","","","","","","","","<p><img src= images/blank.png width =""600"" height = ""600"" style=""position:fixed;top:50%; left:50%; transform: translate(-50%, -50%); border:5px solid black"">","","","","",""
"","stimuli-presentation","14","133695","0.0-11.0-1.1","SS1627326765948","","5410.5999999940395","trial","","40","500","5910.5999999940395","images/stimuli/complex_06_A_b.gif","images/stimuli/complex_19_A_a.gif","forced_short","750","","","","","","0","complex_dissimilar","images/stimuli/complex_19_A_a.gif","",""
"","html-keyboard-response","15","134730","0.0-11.0-0.2","SS1627326765948","","null","","","null","","","","","","","","","","","<p><img src= images/blank.png width =""600"" height = ""600"" style=""position:fixed;top:50%; left:50%; transform: translate(-50%, -50%); border:5px solid black"">","","","","",""
"","stimuli-presentation","16","139558","0.0-11.0-1.2","SS1627326765948","","4320.399999976158","trial","","40","500","4820.399999976158","images/stimuli/complex_06_A_b.gif","images/stimuli/complex_19_A_a.gif","forced_short","750","","","","","","0","complex_dissimilar","images/stimuli/complex_19_A_a.gif","",""
"","html-keyboard-response","17","140608","0.0-11.0-0.3","SS1627326765948","","null","","","null","","","","","","","","","","","<p><img src= images/blank.png width =""600"" height = ""600"" style=""position:fixed;top:50%; left:50%; transform: translate(-50%, -50%); border:5px solid black"">","","","","",""
"","stimuli-presentation","18","143615","0.0-11.0-1.3","SS1627326765948","","2501.199999988079","trial","","40","500","3001.199999988079","images/stimuli/complex_06_A_b.gif","images/stimuli/complex_19_A_a.gif","forced_short","750","","","","","","0","complex_dissimilar","images/stimuli/complex_19_A_a.gif","",""
"","html-keyboard-response","19","144506","0.0-11.0-0.4","SS1627326765948","","null","","","null","","","","","","","","","","","<p><img src= images/blank.png width =""600"" height = ""600"" style=""position:fixed;top:50%; left:50%; transform: translate(-50%, -50%); border:5px solid black"">","","","","",""
"","stimuli-presentation","20","149323","0.0-11.0-1.4","SS1627326765948","","4306.5","trial","","40","500","4806.5","images/stimuli/complex_06_A_b.gif","images/stimuli/complex_19_A_a.gif","forced_short","750","","","","","","0","complex_dissimilar","images/stimuli/complex_19_A_a.gif","",""
"","html-keyboard-response","21","150234","0.0-11.0-0.5","SS1627326765948","","null","","","null","","","","","","","","","","","<p><img src= images/blank.png width =""600"" height = ""600"" style=""position:fixed;top:50%; left:50%; transform: translate(-50%, -50%); border:5px solid black"">","","","","",""
"","stimuli-presentation","22","154542","0.0-11.0-1.5","SS1627326765948","","3802.2000000178814","trial","","40","500","4302.200000017881","images/stimuli/complex_06_A_b.gif","images/stimuli/complex_19_A_a.gif","forced_short","750","","","","","","0","complex_dissimilar","images/stimuli/complex_19_A_a.gif","",""
"","html-keyboard-response","23","155491","0.0-11.0-0.6","SS1627326765948","","null","","","null","","","","","","","","","","","<p><img src= images/blank.png width =""600"" height = ""600"" style=""position:fixed;top:50%; left:50%; transform: translate(-50%, -50%); border:5px solid black"">","","","","",""
"","stimuli-presentation","24","158898","0.0-11.0-1.6","SS1627326765948","","2901.5999999940395","trial","","40","500","3401.5999999940395","images/stimuli/complex_06_A_b.gif","images/stimuli/complex_19_A_a.gif","forced_short","750","","","","","","0","complex_dissimilar","images/stimuli/complex_19_A_a.gif","",""
"","html-keyboard-response","25","160068","0.0-11.0-0.7","SS1627326765948","","null","","","null","","","","","","","","","","","<p><img src= images/blank.png width =""600"" height = ""600"" style=""position:fixed;top:50%; left:50%; transform: translate(-50%, -50%); border:5px solid black"">","","","","",""
"","stimuli-presentation","26","163130","0.0-11.0-1.7","SS1627326765948","","2556.0999999940395","trial","","40","500","3056.0999999940395","images/stimuli/complex_06_A_b.gif","images/stimuli/complex_19_A_a.gif","forced_short","750","","","","","","0","complex_dissimilar","images/stimuli/complex_19_A_a.gif","",""
"","survey-multi-choice","27","167801","0.0-12.0","SS1627326765948","","4668.5","memory_test","","","","","","","","","{""Q0"":""No""}","[0]","images/stimuli/complex_18_A_b.gif","0","","","","","",""
"","survey-multi-choice","28","170449","0.0-13.0","SS1627326765948","","2645.600000023842","memory_test","","","","","","","","","{""Q0"":""Yes""}","[0]","images/stimuli/complex_19_A_a.gif","0","","","","","",""
"","html-keyboard-response","29","171600","0.0-14.0-0.0","SS1627326765948","","null","","","null","","","","","","","","","","","<p><img src= images/blank.png width =""600"" height = ""600"" style=""position:fixed;top:50%; left:50%; transform: translate(-50%, -50%); border:5px solid black"">","","","","",""
"","stimuli-presentation","30","176302","0.0-14.0-1.0","SS1627326765948","","4086.5999999940395","trial","","40","500","4586.5999999940395","images/stimuli/complex_12_A_a.gif","images/stimuli/complex_09_A_b.gif","forced_short","610","","","","","","1","complex_dissimilar","images/stimuli/complex_09_A_b.gif","",""
"","html-keyboard-response","31","177581","0.0-14.0-0.1","SS1627326765948","","null","","","null","","","","","","","","","","","<p><img src= images/blank.png width =""600"" height = ""600"" style=""position:fixed;top:50%; left:50%; transform: translate(-50%, -50%); border:5px solid black"">","","","","",""
"","stimuli-presentation","32","185162","0.0-14.0-1.1","SS1627326765948","","7075.5","trial","","40","500","7575.5","images/stimuli/complex_12_A_a.gif","images/stimuli/complex_09_A_b.gif","forced_short","610","","","","","","1","complex_dissimilar","images/stimuli/complex_09_A_b.gif","",""
"","html-keyboard-response","33","186082","0.0-14.0-0.2","SS1627326765948","","null","","","null","","","","","","","","","","","<p><img src= images/blank.png width =""600"" height = ""600"" style=""position:fixed;top:50%; left:50%; transform: translate(-50%, -50%); border:5px solid black"">","","","","",""
"","stimuli-presentation","34","188769","0.0-14.0-1.2","SS1627326765948","","2180.300000011921","trial","","40","500","2680.300000011921","images/stimuli/complex_12_A_a.gif","images/stimuli/complex_09_A_b.gif","forced_short","610","","","","","","1","complex_dissimilar","images/stimuli/complex_09_A_b.gif","",""
"","html-keyboard-response","35","189856","0.0-14.0-0.3","SS1627326765948","","null","","","null","","","","","","","","","","","<p><img src= images/blank.png width =""600"" height = ""600"" style=""position:fixed;top:50%; left:50%; transform: translate(-50%, -50%); border:5px solid black"">","","","","",""
"","stimuli-presentation","36","196100","0.0-14.0-1.3","SS1627326765948","","5736.799999982119","trial","","40","500","6236.799999982119","images/stimuli/complex_12_A_a.gif","images/stimuli/complex_09_A_b.gif","forced_short","610","","","","","","1","complex_dissimilar","images/stimuli/complex_09_A_b.gif","",""
"","html-keyboard-response","37","197325","0.0-14.0-0.4","SS1627326765948","","null","","","null","","","","","","","","","","","<p><img src= images/blank.png width =""600"" height = ""600"" style=""position:fixed;top:50%; left:50%; transform: translate(-50%, -50%); border:5px solid black"">","","","","",""
"","stimuli-presentation","38","199971","0.0-14.0-1.4","SS1627326765948","","2139.5999999940395","trial","","40","500","2639.5999999940395","images/stimuli/complex_12_A_a.gif","images/stimuli/complex_09_A_b.gif","forced_short","610","","","","","","1","complex_dissimilar","images/stimuli/complex_09_A_b.gif","",""
"","html-keyboard-response","39","200820","0.0-14.0-0.5","SS1627326765948","","null","","","null","","","","","","","","","","","<p><img src= images/blank.png width =""600"" height = ""600"" style=""position:fixed;top:50%; left:50%; transform: translate(-50%, -50%); border:5px solid black"">","","","","",""
"","stimuli-presentation","40","204083","0.0-14.0-1.5","SS1627326765948","","2757.5","trial","","40","500","3257.5","images/stimuli/complex_12_A_a.gif","images/stimuli/complex_09_A_b.gif","forced_short","610","","","","","","1","complex_dissimilar","images/stimuli/complex_09_A_b.gif","",""
"","html-keyboard-response","41","205197","0.0-14.0-0.6","SS1627326765948","","null","","","null","","","","","","","","","","","<p><img src= images/blank.png width =""600"" height = ""600"" style=""position:fixed;top:50%; left:50%; transform: translate(-50%, -50%); border:5px solid black"">","","","","",""
"","stimuli-presentation","42","208132","0.0-14.0-1.6","SS1627326765948","","2429.2000000178814","trial","","40","500","2929.2000000178814","images/stimuli/complex_12_A_a.gif","images/stimuli/complex_09_A_b.gif","forced_short","610","","","","","","1","complex_dissimilar","images/stimuli/complex_12_A_a.gif","",""
"","html-keyboard-response","43","209059","0.0-14.0-0.7","SS1627326765948","","null","","","null","","","","","","","","","","","<p><img src= images/blank.png width =""600"" height = ""600"" style=""position:fixed;top:50%; left:50%; transform: translate(-50%, -50%); border:5px solid black"">","","","","",""
"","stimuli-presentation","44","210059","0.0-14.0-1.7","SS1627326765948","","493.89999997615814","trial","","40","500","993.8999999761581","images/stimuli/complex_12_A_a.gif","images/stimuli/complex_09_A_b.gif","forced_short","610","","","","","","1","complex_dissimilar","images/stimuli/complex_12_A_a.gif","",""
"","survey-multi-choice","45","213100","0.0-15.0","SS1627326765948","","3036.199999988079","memory_test","","","","","","","","","{""Q0"":""Yes""}","[0]","images/stimuli/complex_12_A_a.gif","1","","","","","",""
"","survey-multi-choice","46","217449","0.0-16.0","SS1627326765948","","4346.4000000059605","memory_test","","","","","","","","","{""Q0"":""No""}","[0]","images/stimuli/complex_17_A_a.gif","1","","","","","",""
"","html-keyboard-response","47","218548","0.0-17.0-0.0","SS1627326765948","","null","","","null","","","","","","","","","","","<p><img src= images/blank.png width =""600"" height = ""600"" style=""position:fixed;top:50%; left:50%; transform: translate(-50%, -50%); border:5px solid black"">","","","","",""
"","stimuli-presentation","48","220995","0.0-17.0-1.0","SS1627326765948","","2011.5999999940395","trial","","40","500","2511.5999999940395","images/stimuli/complex_16_A_a.gif","images/stimuli/complex_13_A_b.gif","forced_short","430","","","","","","2","complex_dissimilar","images/stimuli/complex_13_A_b.gif","",""
"","html-keyboard-response","49","222048","0.0-17.0-0.1","SS1627326765948","","null","","","null","","","","","","","","","","","<p><img src= images/blank.png width =""600"" height = ""600"" style=""position:fixed;top:50%; left:50%; transform: translate(-50%, -50%); border:5px solid black"">","","","","",""
"","stimuli-presentation","50","225212","0.0-17.0-1.1","SS1627326765948","","2658.699999988079","trial","","40","500","3158.699999988079","images/stimuli/complex_16_A_a.gif","images/stimuli/complex_13_A_b.gif","forced_short","430","","","","","","2","complex_dissimilar","images/stimuli/complex_13_A_b.gif","",""
"","html-keyboard-response","51","226035","0.0-17.0-0.2","SS1627326765948","","null","","","null","","","","","","","","","","","<p><img src= images/blank.png width =""600"" height = ""600"" style=""position:fixed;top:50%; left:50%; transform: translate(-50%, -50%); border:5px solid black"">","","","","",""
"","stimuli-presentation","52","227261","0.0-17.0-1.2","SS1627326765948","","717","trial","","40","500","1217","images/stimuli/complex_16_A_a.gif","images/stimuli/complex_13_A_b.gif","forced_short","430","","","","","","2","complex_dissimilar","images/stimuli/complex_13_A_b.gif","",""
"","html-keyboard-response","53","228521","0.0-17.0-0.3","SS1627326765948","","null","","","null","","","","","","","","","","","<p><img src= images/blank.png width =""600"" height = ""600"" style=""position:fixed;top:50%; left:50%; transform: translate(-50%, -50%); border:5px solid black"">","","","","",""
"","stimuli-presentation","54","233273","0.0-17.0-1.3","SS1627326765948","","4246","trial","","40","500","4746","images/stimuli/complex_16_A_a.gif","images/stimuli/complex_13_A_b.gif","forced_short","430","","","","","","2","complex_dissimilar","images/stimuli/complex_16_A_a.gif","",""
"","html-keyboard-response","55","234260","0.0-17.0-0.4","SS1627326765948","","null","","","null","","","","","","","","","","","<p><img src= images/blank.png width =""600"" height = ""600"" style=""position:fixed;top:50%; left:50%; transform: translate(-50%, -50%); border:5px solid black"">","","","","",""
"","stimuli-presentation","56","241079","0.0-17.0-1.4","SS1627326765948","","6312.0999999940395","trial","","40","500","6812.0999999940395","images/stimuli/complex_16_A_a.gif","images/stimuli/complex_13_A_b.gif","forced_short","430","","","","","","2","complex_dissimilar","images/stimuli/complex_13_A_b.gif","",""
"","html-keyboard-response","57","241912","0.0-17.0-0.5","SS1627326765948","","null","","","null","","","","","","","","","","","<p><img src= images/blank.png width =""600"" height = ""600"" style=""position:fixed;top:50%; left:50%; transform: translate(-50%, -50%); border:5px solid black"">","","","","",""
"","stimuli-presentation","58","245689","0.0-17.0-1.5","SS1627326765948","","3270.199999988079","trial","","40","500","3770.199999988079","images/stimuli/complex_16_A_a.gif","images/stimuli/complex_13_A_b.gif","forced_short","430","","","","","","2","complex_dissimilar","images/stimuli/complex_13_A_b.gif","",""
"","survey-multi-choice","59","248848","0.0-18.0","SS1627326765948","","3152.800000011921","memory_test","","","","","","","","","{""Q0"":""Yes""}","[0]","images/stimuli/complex_16_A_a.gif","2","","","","","",""
"","survey-multi-choice","60","251269","0.0-19.0","SS1627326765948","","2417.300000011921","memory_test","","","","","","","","","{""Q0"":""No""}","[0]","images/stimuli/complex_01_A_b.gif","2","","","","","",""
"","html-keyboard-response","61","252163","0.0-20.0-0.0","SS1627326765948","","null","","","null","","","","","","","","","","","<p><img src= images/blank.png width =""600"" height = ""600"" style=""position:fixed;top:50%; left:50%; transform: translate(-50%, -50%); border:5px solid black"">","","","","",""
"","stimuli-presentation","62","254576","0.0-20.0-1.0","SS1627326765948","","1494.8999999761581","trial","","40","500","1994.8999999761581","images/stimuli/complex_04_A_a.gif","images/stimuli/complex_21_A_a.gif","forced_short","910","","","","","","3","complex_dissimilar","images/stimuli/complex_21_A_a.gif","",""
"","html-keyboard-response","63","255604","0.0-20.0-0.1","SS1627326765948","","null","","","null","","","","","","","","","","","<p><img src= images/blank.png width =""600"" height = ""600"" style=""position:fixed;top:50%; left:50%; transform: translate(-50%, -50%); border:5px solid black"">","","","","",""
"","stimuli-presentation","64","260269","0.0-20.0-1.1","SS1627326765948","","4158.699999988079","trial","","40","500","4658.699999988079","images/stimuli/complex_04_A_a.gif","images/stimuli/complex_21_A_a.gif","forced_short","910","","","","","","3","complex_dissimilar","images/stimuli/complex_21_A_a.gif","",""
"","html-keyboard-response","65","261323","0.0-20.0-0.2","SS1627326765948","","null","","","null","","","","","","","","","","","<p><img src= images/blank.png width =""600"" height = ""600"" style=""position:fixed;top:50%; left:50%; transform: translate(-50%, -50%); border:5px solid black"">","","","","",""
"","stimuli-presentation","66","264289","0.0-20.0-1.2","SS1627326765948","","2459.699999988079","trial","","40","500","2959.699999988079","images/stimuli/complex_04_A_a.gif","images/stimuli/complex_21_A_a.gif","forced_short","910","","","","","","3","complex_dissimilar","images/stimuli/complex_21_A_a.gif","",""
"","html-keyboard-response","67","265265","0.0-20.0-0.3","SS1627326765948","","null","","","null","","","","","","","","","","","<p><img src= images/blank.png width =""600"" height = ""600"" style=""position:fixed;top:50%; left:50%; transform: translate(-50%, -50%); border:5px solid black"">","","","","",""
"","stimuli-presentation","68","268237","0.0-20.0-1.3","SS1627326765948","","2465.0999999940395","trial","","40","500","2965.0999999940395","images/stimuli/complex_04_A_a.gif","images/stimuli/complex_21_A_a.gif","forced_short","910","","","","","","3","complex_dissimilar","images/stimuli/complex_21_A_a.gif","",""
"","html-keyboard-response","69","269355","0.0-20.0-0.4","SS1627326765948","","null","","","null","","","","","","","","","","","<p><img src= images/blank.png width =""600"" height = ""600"" style=""position:fixed;top:50%; left:50%; transform: translate(-50%, -50%); border:5px solid black"">","","","","",""
"","stimuli-presentation","70","271691","0.0-20.0-1.4","SS1627326765948","","1823.2000000178814","trial","","40","500","2323.2000000178814","images/stimuli/complex_04_A_a.gif","images/stimuli/complex_21_A_a.gif","forced_short","910","","","","","","3","complex_dissimilar","images/stimuli/complex_21_A_a.gif","",""
"","html-keyboard-response","71","272721","0.0-20.0-0.5","SS1627326765948","","null","","","null","","","","","","","","","","","<p><img src= images/blank.png width =""600"" height = ""600"" style=""position:fixed;top:50%; left:50%; transform: translate(-50%, -50%); border:5px solid black"">","","","","",""
"","stimuli-presentation","72","274058","0.0-20.0-1.5","SS1627326765948","","829.5","trial","","40","500","1329.5","images/stimuli/complex_04_A_a.gif","images/stimuli/complex_21_A_a.gif","forced_short","910","","","","","","3","complex_dissimilar","images/stimuli/complex_21_A_a.gif","",""
"","html-keyboard-response","73","274995","0.0-20.0-0.6","SS1627326765948","","null","","","null","","","","","","","","","","","<p><img src= images/blank.png width =""600"" height = ""600"" style=""position:fixed;top:50%; left:50%; transform: translate(-50%, -50%); border:5px solid black"">","","","","",""
"","stimuli-presentation","74","277520","0.0-20.0-1.6","SS1627326765948","","2018.7000000178814","trial","","40","500","2518.7000000178814","images/stimuli/complex_04_A_a.gif","images/stimuli/complex_21_A_a.gif","forced_short","910","","","","","","3","complex_dissimilar","images/stimuli/complex_21_A_a.gif","",""
"","html-keyboard-response","75","278632","0.0-20.0-0.7","SS1627326765948","","null","","","null","","","","","","","","","","","<p><img src= images/blank.png width =""600"" height = ""600"" style=""position:fixed;top:50%; left:50%; transform: translate(-50%, -50%); border:5px solid black"">","","","","",""
"","stimuli-presentation","76","281629","0.0-20.0-1.7","SS1627326765948","","2491","trial","","40","500","2991","images/stimuli/complex_04_A_a.gif","images/stimuli/complex_21_A_a.gif","forced_short","910","","","","","","3","complex_dissimilar","images/stimuli/complex_21_A_a.gif","",""
"","survey-multi-choice","77","284937","0.0-21.0","SS1627326765948","","3302.5","memory_test","","","","","","","","","{""Q0"":""No""}","[0]","images/stimuli/complex_05_A_b.gif","3","","","","","",""
"","survey-multi-choice","78","287370","0.0-22.0","SS1627326765948","","2429.4000000059605","memory_test","","","","","","","","","{""Q0"":""Yes""}","[0]","images/stimuli/complex_21_A_a.gif","3","","","","","",""
"","html-keyboard-response","79","288278","0.0-23.0-0.0","SS1627326765948","","null","","","null","","","","","","","","","","","<p><img src= images/blank.png width =""600"" height = ""600"" style=""position:fixed;top:50%; left:50%; transform: translate(-50%, -50%); border:5px solid black"">","","","","",""
"","stimuli-presentation","80","291336","0.0-23.0-1.0","SS1627326765948","","2520.9000000059605","trial","","40","500","3020.9000000059605","images/stimuli/complex_23_A_a.gif","images/stimuli/complex_20_A_b.gif","forced_short","530","","","","","","4","complex_dissimilar","images/stimuli/complex_20_A_b.gif","",""
"","html-keyboard-response","81","292339","0.0-23.0-0.1","SS1627326765948","","null","","","null","","","","","","","","","","","<p><img src= images/blank.png width =""600"" height = ""600"" style=""position:fixed;top:50%; left:50%; transform: translate(-50%, -50%); border:5px solid black"">","","","","",""
"","stimuli-presentation","82","296697","0.0-23.0-1.1","SS1627326765948","","3850.699999988079","trial","","40","500","4350.699999988079","images/stimuli/complex_23_A_a.gif","images/stimuli/complex_20_A_b.gif","forced_short","530","","","","","","4","complex_dissimilar","images/stimuli/complex_20_A_b.gif","",""
"","html-keyboard-response","83","297787","0.0-23.0-0.2","SS1627326765948","","null","","","null","","","","","","","","","","","<p><img src= images/blank.png width =""600"" height = ""600"" style=""position:fixed;top:50%; left:50%; transform: translate(-50%, -50%); border:5px solid black"">","","","","",""
"","stimuli-presentation","84","300941","0.0-23.0-1.2","SS1627326765948","","2646.9000000059605","trial","","40","500","3146.9000000059605","images/stimuli/complex_23_A_a.gif","images/stimuli/complex_20_A_b.gif","forced_short","530","","","","","","4","complex_dissimilar","images/stimuli/complex_20_A_b.gif","",""
"","html-keyboard-response","85","301890","0.0-23.0-0.3","SS1627326765948","","null","","","null","","","","","","","","","","","<p><img src= images/blank.png width =""600"" height = ""600"" style=""position:fixed;top:50%; left:50%; transform: translate(-50%, -50%); border:5px solid black"">","","","","",""
"","stimuli-presentation","86","305861","0.0-23.0-1.3","SS1627326765948","","3461.4000000059605","trial","","40","500","3961.4000000059605","images/stimuli/complex_23_A_a.gif","images/stimuli/complex_20_A_b.gif","forced_short","530","","","","","","4","complex_dissimilar","images/stimuli/complex_23_A_a.gif","",""
"","html-keyboard-response","87","307041","0.0-23.0-0.4","SS1627326765948","","null","","","null","","","","","","","","","","","<p><img src= images/blank.png width =""600"" height = ""600"" style=""position:fixed;top:50%; left:50%; transform: translate(-50%, -50%); border:5px solid black"">","","","","",""
"","stimuli-presentation","88","311904","0.0-23.0-1.4","SS1627326765948","","4356.5","trial","","40","500","4856.5","images/stimuli/complex_23_A_a.gif","images/stimuli/complex_20_A_b.gif","forced_short","530","","","","","","4","complex_dissimilar","images/stimuli/complex_20_A_b.gif","",""
"","html-keyboard-response","89","312808","0.0-23.0-0.5","SS1627326765948","","null","","","null","","","","","","","","","","","<p><img src= images/blank.png width =""600"" height = ""600"" style=""position:fixed;top:50%; left:50%; transform: translate(-50%, -50%); border:5px solid black"">","","","","",""
"","stimuli-presentation","90","316075","0.0-23.0-1.5","SS1627326765948","","2758.300000011921","trial","","40","500","3258.300000011921","images/stimuli/complex_23_A_a.gif","images/stimuli/complex_20_A_b.gif","forced_short","530","","","","","","4","complex_dissimilar","images/stimuli/complex_20_A_b.gif","",""
"","html-keyboard-response","91","317168","0.0-23.0-0.6","SS1627326765948","","null","","","null","","","","","","","","","","","<p><img src= images/blank.png width =""600"" height = ""600"" style=""position:fixed;top:50%; left:50%; transform: translate(-50%, -50%); border:5px solid black"">","","","","",""
"","stimuli-presentation","92","319761","0.0-23.0-1.6","SS1627326765948","","2081.699999988079","trial","","40","500","2581.699999988079","images/stimuli/complex_23_A_a.gif","images/stimuli/complex_20_A_b.gif","forced_short","530","","","","","","4","complex_dissimilar","images/stimuli/complex_20_A_b.gif","",""
"","html-keyboard-response","93","320667","0.0-23.0-0.7","SS1627326765948","","null","","","null","","","","","","","","","","","<p><img src= images/blank.png width =""600"" height = ""600"" style=""position:fixed;top:50%; left:50%; transform: translate(-50%, -50%); border:5px solid black"">","","","","",""
"","stimuli-presentation","94","322726","0.0-23.0-1.7","SS1627326765948","","1549.0999999940395","trial","","40","500","2049.0999999940395","images/stimuli/complex_23_A_a.gif","images/stimuli/complex_20_A_b.gif","forced_short","530","","","","","","4","complex_dissimilar","images/stimuli/complex_20_A_b.gif","",""
"","survey-multi-choice","95","326437","0.0-24.0","SS1627326765948","","3707.600000023842","memory_test","","","","","","","","","{""Q0"":""No""}","[0]","images/stimuli/complex_10_A_b.gif","4","","","","","",""
"","survey-multi-choice","96","330055","0.0-25.0","SS1627326765948","","3612.4000000059605","memory_test","","","","","","","","","{""Q0"":""Yes""}","[0]","images/stimuli/complex_23_A_a.gif","4","","","","","",""
"","html-keyboard-response","97","331351","0.0-26.0-0.0","SS1627326765948","","null","","","null","","","","","","","","","","","<p><img src= images/blank.png width =""600"" height = ""600"" style=""position:fixed;top:50%; left:50%; transform: translate(-50%, -50%); border:5px solid black"">","","","","",""
"","stimuli-presentation","98","334399","0.0-26.0-1.0","SS1627326765948","","2351.199999988079","trial","","40","500","2851.199999988079","images/stimuli/complex_08_A_a.gif","images/stimuli/complex_07_A_a.gif","forced_short","690","","","","","","5","complex_dissimilar","images/stimuli/complex_07_A_a.gif","",""
"","html-keyboard-response","99","335612","0.0-26.0-0.1","SS1627326765948","","null","","","null","","","","","","","","","","","<p><img src= images/blank.png width =""600"" height = ""600"" style=""position:fixed;top:50%; left:50%; transform: translate(-50%, -50%); border:5px solid black"">","","","","",""
"","stimuli-presentation","100","339038","0.0-26.0-1.1","SS1627326765948","","2916.4000000059605","trial","","40","500","3416.4000000059605","images/stimuli/complex_08_A_a.gif","images/stimuli/complex_07_A_a.gif","forced_short","690","","","","","","5","complex_dissimilar","images/stimuli/complex_07_A_a.gif","",""
"","html-keyboard-response","101","340267","0.0-26.0-0.2","SS1627326765948","","null","","","null","","","","","","","","","","","<p><img src= images/blank.png width =""600"" height = ""600"" style=""position:fixed;top:50%; left:50%; transform: translate(-50%, -50%); border:5px solid black"">","","","","",""
"","stimuli-presentation","102","342489","0.0-26.0-1.2","SS1627326765948","","1715","trial","","40","500","2215","images/stimuli/complex_08_A_a.gif","images/stimuli/complex_07_A_a.gif","forced_short","690","","","","","","5","complex_dissimilar","images/stimuli/complex_07_A_a.gif","",""
"","html-keyboard-response","103","343481","0.0-26.0-0.3","SS1627326765948","","null","","","null","","","","","","","","","","","<p><img src= images/blank.png width =""600"" height = ""600"" style=""position:fixed;top:50%; left:50%; transform: translate(-50%, -50%); border:5px solid black"">","","","","",""
"","stimuli-presentation","104","345796","0.0-26.0-1.3","SS1627326765948","","1808.4000000059605","trial","","40","500","2308.4000000059605","images/stimuli/complex_08_A_a.gif","images/stimuli/complex_07_A_a.gif","forced_short","690","","","","","","5","complex_dissimilar","images/stimuli/complex_07_A_a.gif","",""
"","html-keyboard-response","105","347004","0.0-26.0-0.4","SS1627326765948","","null","","","null","","","","","","","","","","","<p><img src= images/blank.png width =""600"" height = ""600"" style=""position:fixed;top:50%; left:50%; transform: translate(-50%, -50%); border:5px solid black"">","","","","",""
"","stimuli-presentation","106","349107","0.0-26.0-1.4","SS1627326765948","","1594.8999999761581","trial","","40","500","2094.899999976158","images/stimuli/complex_08_A_a.gif","images/stimuli/complex_07_A_a.gif","forced_short","690","","","","","","5","complex_dissimilar","images/stimuli/complex_07_A_a.gif","",""
"","html-keyboard-response","107","350229","0.0-26.0-0.5","SS1627326765948","","null","","","null","","","","","","","","","","","<p><img src= images/blank.png width =""600"" height = ""600"" style=""position:fixed;top:50%; left:50%; transform: translate(-50%, -50%); border:5px solid black"">","","","","",""
"","stimuli-presentation","108","352469","0.0-26.0-1.5","SS1627326765948","","1732","trial","","40","500","2232","images/stimuli/complex_08_A_a.gif","images/stimuli/complex_07_A_a.gif","forced_short","690","","","","","","5","complex_dissimilar","images/stimuli/complex_07_A_a.gif","",""
"","html-keyboard-response","109","353663","0.0-26.0-0.6","SS1627326765948","","null","","","null","","","","","","","","","","","<p><img src= images/blank.png width =""600"" height = ""600"" style=""position:fixed;top:50%; left:50%; transform: translate(-50%, -50%); border:5px solid black"">","","","","",""
"","stimuli-presentation","110","354978","0.0-26.0-1.6","SS1627326765948","","806.7999999821186","trial","","40","500","1306.7999999821186","images/stimuli/complex_08_A_a.gif","images/stimuli/complex_07_A_a.gif","forced_short","690","","","","","","5","complex_dissimilar","images/stimuli/complex_07_A_a.gif","",""
"","survey-multi-choice","111","358261","0.0-27.0","SS1627326765948","","3275.300000011921","memory_test","","","","","","","","","{""Q0"":""Yes""}","[0]","images/stimuli/complex_07_A_a.gif","5","","","","","",""
"","survey-multi-choice","112","360731","0.0-28.0","SS1627326765948","","2460.899999976158","memory_test","","","","","","","","","{""Q0"":""No""}","[0]","images/stimuli/complex_22_A_b.gif","5","","","","","",""
"","html-keyboard-response","113","361907","0.0-29.0-0.0","SS1627326765948","","null","","","null","","","","","","","","","","","<p><img src= images/blank.png width =""600"" height = ""600"" style=""position:fixed;top:50%; left:50%; transform: translate(-50%, -50%); border:5px solid black"">","","","","",""
"","stimuli-presentation","114","363907","0.0-29.0-1.0","SS1627326765948","","1313.0999999940395","trial","","40","500","1813.0999999940395","images/stimuli/complex_15_A_b.gif","images/stimuli/complex_14_A_b.gif","forced_short","680","","","","","","6","complex_dissimilar","images/stimuli/complex_14_A_b.gif","",""
"","html-keyboard-response","115","365118","0.0-29.0-0.1","SS1627326765948","","null","","","null","","","","","","","","","","","<p><img src= images/blank.png width =""600"" height = ""600"" style=""position:fixed;top:50%; left:50%; transform: translate(-50%, -50%); border:5px solid black"">","","","","",""
"","stimuli-presentation","116","369936","0.0-29.0-1.1","SS1627326765948","","4309.5999999940395","trial","","40","500","4809.5999999940395","images/stimuli/complex_15_A_b.gif","images/stimuli/complex_14_A_b.gif","forced_short","680","","","","","","6","complex_dissimilar","images/stimuli/complex_14_A_b.gif","",""
"","html-keyboard-response","117","370992","0.0-29.0-0.2","SS1627326765948","","null","","","null","","","","","","","","","","","<p><img src= images/blank.png width =""600"" height = ""600"" style=""position:fixed;top:50%; left:50%; transform: translate(-50%, -50%); border:5px solid black"">","","","","",""
"","stimuli-presentation","118","376030","0.0-29.0-1.2","SS1627326765948","","4530.9000000059605","trial","","40","500","5030.9000000059605","images/stimuli/complex_15_A_b.gif","images/stimuli/complex_14_A_b.gif","forced_short","680","","","","","","6","complex_dissimilar","images/stimuli/complex_15_A_b.gif","",""
"","html-keyboard-response","119","376839","0.0-29.0-0.3","SS1627326765948","","null","","","null","","","","","","","","","","","<p><img src= images/blank.png width =""600"" height = ""600"" style=""position:fixed;top:50%; left:50%; transform: translate(-50%, -50%); border:5px solid black"">","","","","",""
"","stimuli-presentation","120","379146","0.0-29.0-1.3","SS1627326765948","","1799.300000011921","trial","","40","500","2299.300000011921","images/stimuli/complex_15_A_b.gif","images/stimuli/complex_14_A_b.gif","forced_short","680","","","","","","6","complex_dissimilar","images/stimuli/complex_14_A_b.gif","",""
"","html-keyboard-response","121","380213","0.0-29.0-0.4","SS1627326765948","","null","","","null","","","","","","","","","","","<p><img src= images/blank.png width =""600"" height = ""600"" style=""position:fixed;top:50%; left:50%; transform: translate(-50%, -50%); border:5px solid black"">","","","","",""
"","stimuli-presentation","122","383007","0.0-29.0-1.4","SS1627326765948","","2286","trial","","40","500","2786","images/stimuli/complex_15_A_b.gif","images/stimuli/complex_14_A_b.gif","forced_short","680","","","","","","6","complex_dissimilar","images/stimuli/complex_15_A_b.gif","",""
"","html-keyboard-response","123","384239","0.0-29.0-0.5","SS1627326765948","","null","","","null","","","","","","","","","","","<p><img src= images/blank.png width =""600"" height = ""600"" style=""position:fixed;top:50%; left:50%; transform: translate(-50%, -50%); border:5px solid black"">","","","","",""
"","stimuli-presentation","124","385786","0.0-29.0-1.5","SS1627326765948","","1039","trial","","40","500","1539","images/stimuli/complex_15_A_b.gif","images/stimuli/complex_14_A_b.gif","forced_short","680","","","","","","6","complex_dissimilar","images/stimuli/complex_14_A_b.gif","",""
"","html-keyboard-response","125","387019","0.0-29.0-0.6","SS1627326765948","","null","","","null","","","","","","","","","","","<p><img src= images/blank.png width =""600"" height = ""600"" style=""position:fixed;top:50%; left:50%; transform: translate(-50%, -50%); border:5px solid black"">","","","","",""
"","stimuli-presentation","126","389085","0.0-29.0-1.6","SS1627326765948","","1557.199999988079","trial","","40","500","2057.199999988079","images/stimuli/complex_15_A_b.gif","images/stimuli/complex_14_A_b.gif","forced_short","680","","","","","","6","complex_dissimilar","images/stimuli/complex_14_A_b.gif","",""
"","survey-multi-choice","127","391984","0.0-30.0","SS1627326765948","","2893.199999988079","memory_test","","","","","","","","","{""Q0"":""Yes""}","[0]","images/stimuli/complex_14_A_b.gif","6","","","","","",""
"","survey-multi-choice","128","394834","0.0-31.0","SS1627326765948","","2845.2999999821186","memory_test","","","","","","","","","{""Q0"":""No""}","[0]","images/stimuli/complex_03_A_a.gif","6","","","","","",""
"","html-keyboard-response","129","395804","0.0-32.0-0.0","SS1627326765948","","null","","","null","","","","","","","","","","","<p><img src= images/blank.png width =""600"" height = ""600"" style=""position:fixed;top:50%; left:50%; transform: translate(-50%, -50%); border:5px solid black"">","","","","",""
"","stimuli-presentation","130","397551","0.0-32.0-1.0","SS1627326765948","","978","trial","","40","500","1478","images/stimuli/complex_02_A_a.gif","images/stimuli/complex_11_A_a.gif","forced_short","760","","","","","","7","complex_dissimilar","images/stimuli/complex_11_A_a.gif","",""
"","html-keyboard-response","131","398491","0.0-32.0-0.1","SS1627326765948","","null","","","null","","","","","","","","","","","<p><img src= images/blank.png width =""600"" height = ""600"" style=""position:fixed;top:50%; left:50%; transform: translate(-50%, -50%); border:5px solid black"">","","","","",""
"","stimuli-presentation","132","403631","0.0-32.0-1.1","SS1627326765948","","4630.9000000059605","trial","","40","500","5130.9000000059605","images/stimuli/complex_02_A_a.gif","images/stimuli/complex_11_A_a.gif","forced_short","760","","","","","","7","complex_dissimilar","images/stimuli/complex_11_A_a.gif","",""
"","html-keyboard-response","133","404520","0.0-32.0-0.2","SS1627326765948","","null","","","null","","","","","","","","","","","<p><img src= images/blank.png width =""600"" height = ""600"" style=""position:fixed;top:50%; left:50%; transform: translate(-50%, -50%); border:5px solid black"">","","","","",""
"","stimuli-presentation","134","408098","0.0-32.0-1.2","SS1627326765948","","3070.0999999940395","trial","","40","500","3570.0999999940395","images/stimuli/complex_02_A_a.gif","images/stimuli/complex_11_A_a.gif","forced_short","760","","","","","","7","complex_dissimilar","images/stimuli/complex_11_A_a.gif","",""
"","html-keyboard-response","135","409280","0.0-32.0-0.3","SS1627326765948","","null","","","null","","","","","","","","","","","<p><img src= images/blank.png width =""600"" height = ""600"" style=""position:fixed;top:50%; left:50%; transform: translate(-50%, -50%); border:5px solid black"">","","","","",""
"","stimuli-presentation","136","411345","0.0-32.0-1.3","SS1627326765948","","1553.9000000059605","trial","","40","500","2053.9000000059605","images/stimuli/complex_02_A_a.gif","images/stimuli/complex_11_A_a.gif","forced_short","760","","","","","","7","complex_dissimilar","images/stimuli/complex_11_A_a.gif","",""
"","html-keyboard-response","137","412550","0.0-32.0-0.4","SS1627326765948","","null","","","null","","","","","","","","","","","<p><img src= images/blank.png width =""600"" height = ""600"" style=""position:fixed;top:50%; left:50%; transform: translate(-50%, -50%); border:5px solid black"">","","","","",""
"","stimuli-presentation","138","415562","0.0-32.0-1.4","SS1627326765948","","2502.4000000059605","trial","","40","500","3002.4000000059605","images/stimuli/complex_02_A_a.gif","images/stimuli/complex_11_A_a.gif","forced_short","760","","","","","","7","complex_dissimilar","images/stimuli/complex_11_A_a.gif","",""
"","html-keyboard-response","139","416457","0.0-32.0-0.5","SS1627326765948","","null","","","null","","","","","","","","","","","<p><img src= images/blank.png width =""600"" height = ""600"" style=""position:fixed;top:50%; left:50%; transform: translate(-50%, -50%); border:5px solid black"">","","","","",""
"","stimuli-presentation","140","418063","0.0-32.0-1.5","SS1627326765948","","1097.9000000059605","trial","","40","500","1597.9000000059605","images/stimuli/complex_02_A_a.gif","images/stimuli/complex_11_A_a.gif","forced_short","760","","","","","","7","complex_dissimilar","images/stimuli/complex_11_A_a.gif","",""
"","html-keyboard-response","141","418876","0.0-32.0-0.6","SS1627326765948","","null","","","null","","","","","","","","","","","<p><img src= images/blank.png width =""600"" height = ""600"" style=""position:fixed;top:50%; left:50%; transform: translate(-50%, -50%); border:5px solid black"">","","","","",""
"","stimuli-presentation","142","420373","0.0-32.0-1.6","SS1627326765948","","989.2999999821186","trial","","40","500","1489.2999999821186","images/stimuli/complex_02_A_a.gif","images/stimuli/complex_11_A_a.gif","forced_short","760","","","","","","7","complex_dissimilar","images/stimuli/complex_11_A_a.gif","",""
"","html-keyboard-response","143","421414","0.0-32.0-0.7","SS1627326765948","","null","","","null","","","","","","","","","","","<p><img src= images/blank.png width =""600"" height = ""600"" style=""position:fixed;top:50%; left:50%; transform: translate(-50%, -50%); border:5px solid black"">","","","","",""
"","stimuli-presentation","144","422867","0.0-32.0-1.7","SS1627326765948","","946","trial","","40","500","1446","images/stimuli/complex_02_A_a.gif","images/stimuli/complex_11_A_a.gif","forced_short","760","","","","","","7","complex_dissimilar","images/stimuli/complex_11_A_a.gif","",""
"","survey-multi-choice","145","427689","0.0-33.0","SS1627326765948","","4814","memory_test","","","","","","","","","{""Q0"":""No""}","[0]","images/stimuli/complex_24_A_b.gif","7","","","","","",""
"","survey-multi-choice","146","430251","0.0-34.0","SS1627326765948","","2557.399999976158","memory_test","","","","","","","","","{""Q0"":""Yes""}","[0]","images/stimuli/complex_11_A_a.gif","7","","","","","",""
"","instructions","147","435737","0.0-35.0","SS1627326765948","[{""page_index"":0,""viewing_time"":5479.799999982119}]","5480.299999982119","instructions","","","","","","","","","","","","","","","","","",""
"","survey-likert","148","443600","0.0-36.0","SS1627326765948","","7854.799999982119","similarity_question","","","","","","","","","{""Q0"":4}","[0]","","","","","","","images/stimuli/complex_21_A_a.gif","images/stimuli/complex_04_A_a.gif"
"","survey-likert","149","450035","0.0-37.0","SS1627326765948","","6429.100000023842","similarity_question","","","","","","","","","{""Q0"":2}","[0]","","","","","","","images/stimuli/complex_12_A_a.gif","images/stimuli/complex_09_A_b.gif"
"","survey-likert","150","454495","0.0-38.0","SS1627326765948","","4454.799999982119","similarity_question","","","","","","","","","{""Q0"":5}","[0]","","","","","","","images/stimuli/complex_06_A_b.gif","images/stimuli/complex_19_A_a.gif"
"","survey-likert","151","460472","0.0-39.0","SS1627326765948","","5970.9000000059605","similarity_question","","","","","","","","","{""Q0"":4}","[0]","","","","","","","images/stimuli/complex_23_A_a.gif","images/stimuli/complex_20_A_b.gif"
"","survey-likert","152","465953","0.0-40.0","SS1627326765948","","5474.200000017881","similarity_question","","","","","","","","","{""Q0"":1}","[0]","","","","","","","images/stimuli/complex_08_A_a.gif","images/stimuli/complex_07_A_a.gif"
"","survey-likert","153","470499","0.0-41.0","SS1627326765948","","4539.0999999940395","similarity_question","","","","","","","","","{""Q0"":1}","[0]","","","","","","","images/stimuli/complex_02_A_a.gif","images/stimuli/complex_11_A_a.gif"
"","survey-likert","154","476211","0.0-42.0","SS1627326765948","","5707.4000000059605","similarity_question","","","","","","","","","{""Q0"":1}","[0]","","","","","","","images/stimuli/complex_13_A_b.gif","images/stimuli/complex_16_A_a.gif"
"","survey-likert","155","480100","0.0-43.0","SS1627326765948","","3882.5","similarity_question","","","","","","","","","{""Q0"":1}","[0]","","","","","","","images/stimuli/complex_14_A_b.gif","images/stimuli/complex_15_A_b.gif"
"","instructions","156","484641","0.0-44.0","SS1627326765948","[{""page_index"":0,""viewing_time"":4535.399999976158}]","4536","instructions","","","","","","","","","","","","","","","","","",""
"","survey-likert","157","489583","0.0-45.0","SS1627326765948","","4937.0999999940395","","","","","","","","","","{""Q0"":4}","[0]","","","images/stimuli/complex_20_A_b.gif","","","","",""
"","survey-likert","158","494364","0.0-46.0","SS1627326765948","","4775.600000023842","","","","","","","","","","{""Q0"":5}","[0]","","","images/stimuli/complex_11_A_a.gif","","","","",""
"","survey-likert","159","498091","0.0-47.0","SS1627326765948","","3720.5","","","","","","","","","","{""Q0"":6}","[0]","","","images/stimuli/complex_19_A_a.gif","","","","",""
"","survey-likert","160","502643","0.0-48.0","SS1627326765948","","4544.399999976158","","","","","","","","","","{""Q0"":2}","[0]","","","images/stimuli/complex_12_A_a.gif","","","","",""
"","survey-likert","161","507565","0.0-49.0","SS1627326765948","","4915.5999999940395","","","","","","","","","","{""Q0"":4}","[0]","","","images/stimuli/complex_16_A_a.gif","","","","",""
"","survey-likert","162","512252","0.0-50.0","SS1627326765948","","4680.9000000059605","","","","","","","","","","{""Q0"":5}","[0]","","","images/stimuli/complex_04_A_a.gif","","","","",""
"","survey-likert","163","517109","0.0-51.0","SS1627326765948","","4851.9000000059605","","","","","","","","","","{""Q0"":6}","[0]","","","images/stimuli/complex_07_A_a.gif","","","","",""
"","survey-likert","164","520032","0.0-52.0","SS1627326765948","","2915.9000000059605","","","","","","","","","","{""Q0"":6}","[0]","","","images/stimuli/complex_14_A_b.gif","","","","",""
"true","fullscreen","165","521042","0.0-53.0","SS1627326765948","","","","","","","","","","","","","","","","","","","","",""
"","instructions","166","524315","0.0-54.0","SS1627326765948","[{""page_index"":0,""viewing_time"":3264.5999999940395}]","3264.9000000059605","instructions","","","","","","","","","","","","","","","","","",""
"","demog-age","167","528548","0.0-55.0","SS1627326765948","","4224.4000000059605","","","","","","","","","","{""age"":""24""}","","","","","","","","",""
"","demog-ethnic-US","168","533198","0.0-56.0","SS1627326765948","","4638.5999999940395","","","","","","","","","","{""ethnicity"":[""White""]}","[0]","","","","","","","",""
"","demog-gender-and-education","169","541718","0.0-57.0","SS1627326765948","","8513.5","","","","","","","","","","{""gender"":""Female"",""education"":""High school diploma""}","[0,1]","","","","","","","",""
"","survey-text","170","559926","0.0-58.0","SS1627326765948","","18199.59999999404","feedback","","","","","","","","","{""Q0"":""No issues. Interesting study.""}","","","","","","","","",""
"","instructions","171","562759","0.0-59.0","SS1627326765948","[{""page_index"":0,""viewing_time"":2827.2999999821186}]","2827.7999999821186","instructions","","","","","","","","","","","","","","","","","",""
