"success","trial_type","trial_index","time_elapsed","internal_node_id","subject","view_history","rt","stimulus_type","trial_stimulus","key_press","minimum_viewing_duration","trial_looking_time","block_deviant","block_background","exposure_type","forced_exposure_time","responses","question_order","memory_question_stimuli","memory_block_index","stimulus","block_number","block_type","stimulus_displayed","stimulus_left","stimulus_right"
"true","fullscreen","0","2297","0.0-0.0","SS1627326727628","","","","","","","","","","","","","","","","","","","","",""
"","instructions","1","4131","0.0-1.0","SS1627326727628","[{""page_index"":0,""viewing_time"":1830}]","1831","","","","","","","","","","","","","","","","","","",""
"","instructions","2","10679","0.0-2.0","SS1627326727628","[{""page_index"":0,""viewing_time"":2159},{""page_index"":1,""viewing_time"":2385}]","4545.000000000004","instructions","","","","","","","","","","","","","","","","","",""
"","stimuli-presentation","3","17297","0.0-3.0","SS1627326727628","","6112","","","40","500","6612","null","null","self_paced","0","","","","","","","","","",""
"","instructions","4","23615","0.0-4.0","SS1627326727628","[{""page_index"":0,""viewing_time"":6316}]","6316","instructions","","","","","","","","","","","","","","","","","",""
"","stimuli-presentation","5","26946","0.0-5.0","SS1627326727628","","2826","","","40","500","3326","null","null","forced_short","500","","","","","","","","","",""
"","stimuli-presentation","6","28668","0.0-6.0","SS1627326727628","","1217","","","40","500","1717","null","null","forced_short","500","","","","","","","","","",""
"","instructions","7","30030","0.0-7.0","SS1627326727628","[{""page_index"":0,""viewing_time"":1359}]","1359","instructions","","","","","","","","","","","","","","","","","",""
"","survey-multi-choice","8","33035","0.0-8.0","SS1627326727628","","3001","memory_test_practice","","","","","","","","","{""Q0"":""Yes""}","[0]","images/practice/instructions_example_spore2.gif","0","","","","","",""
"","survey-multi-choice","9","35244","0.0-9.0","SS1627326727628","","2207","memory_test_practice","","","","","","","","","{""Q0"":""No""}","[0]","images/practice/instructions_example_spore0.gif","0","","","","","",""
"","instructions","10","39267","0.0-10.0","SS1627326727628","[{""page_index"":0,""viewing_time"":3092},{""page_index"":1,""viewing_time"":929}]","4021","instructions","","","","","","","","","","","","","","","","","",""
"","html-keyboard-response","11","40371","0.0-11.0-0.0","SS1627326727628","","null","","","null","","","","","","","","","","","<p><img src= images/blank.png width =""600"" height = ""600"" style=""position:fixed;top:50%; left:50%; transform: translate(-50%, -50%); border:5px solid black"">","","","","",""
"","stimuli-presentation","12","41548","0.0-11.0-1.0","SS1627326727628","","990","trial","","40","500","1490","images/stimuli/complex_16_A_b.gif","images/stimuli/complex_17_A_a.gif","forced_short","180","","","","","","0","complex_dissimilar","images/stimuli/complex_17_A_a.gif","",""
"","html-keyboard-response","13","42526","0.0-11.0-0.1","SS1627326727628","","null","","","null","","","","","","","","","","","<p><img src= images/blank.png width =""600"" height = ""600"" style=""position:fixed;top:50%; left:50%; transform: translate(-50%, -50%); border:5px solid black"">","","","","",""
"","stimuli-presentation","14","46644","0.0-11.0-1.1","SS1627326727628","","3611","trial","","40","500","4111","images/stimuli/complex_16_A_b.gif","images/stimuli/complex_17_A_a.gif","forced_short","180","","","","","","0","complex_dissimilar","images/stimuli/complex_17_A_a.gif","",""
"","html-keyboard-response","15","47829","0.0-11.0-0.2","SS1627326727628","","null","","","null","","","","","","","","","","","<p><img src= images/blank.png width =""600"" height = ""600"" style=""position:fixed;top:50%; left:50%; transform: translate(-50%, -50%); border:5px solid black"">","","","","",""
"","stimuli-presentation","16","53713","0.0-11.0-1.2","SS1627326727628","","5378","trial","","40","500","5878","images/stimuli/complex_16_A_b.gif","images/stimuli/complex_17_A_a.gif","forced_short","180","","","","","","0","complex_dissimilar","images/stimuli/complex_17_A_a.gif","",""
"","html-keyboard-response","17","54868","0.0-11.0-0.3","SS1627326727628","","null","","","null","","","","","","","","","","","<p><img src= images/blank.png width =""600"" height = ""600"" style=""position:fixed;top:50%; left:50%; transform: translate(-50%, -50%); border:5px solid black"">","","","","",""
"","stimuli-presentation","18","58027","0.0-11.0-1.3","SS1627326727628","","2653.0000000000073","trial","","40","500","3153.0000000000073","images/stimuli/complex_16_A_b.gif","images/stimuli/complex_17_A_a.gif","forced_short","180","","","","","","0","complex_dissimilar","images/stimuli/complex_17_A_a.gif","",""
"","html-keyboard-response","19","59170","0.0-11.0-0.4","SS1627326727628","","null","","","null","","","","","","","","","","","<p><img src= images/blank.png width =""600"" height = ""600"" style=""position:fixed;top:50%; left:50%; transform: translate(-50%, -50%); border:5px solid black"">","","","","",""
"","stimuli-presentation","20","64421","0.0-11.0-1.4","SS1627326727628","","4745","trial","","40","500","5245","images/stimuli/complex_16_A_b.gif","images/stimuli/complex_17_A_a.gif","forced_short","180","","","","","","0","complex_dissimilar","images/stimuli/complex_17_A_a.gif","",""
"","html-keyboard-response","21","65512","0.0-11.0-0.5","SS1627326727628","","null","","","null","","","","","","","","","","","<p><img src= images/blank.png width =""600"" height = ""600"" style=""position:fixed;top:50%; left:50%; transform: translate(-50%, -50%); border:5px solid black"">","","","","",""
"","stimuli-presentation","22","70500","0.0-11.0-1.5","SS1627326727628","","4482","trial","","40","500","4982","images/stimuli/complex_16_A_b.gif","images/stimuli/complex_17_A_a.gif","forced_short","180","","","","","","0","complex_dissimilar","images/stimuli/complex_17_A_a.gif","",""
"","html-keyboard-response","23","71753","0.0-11.0-0.6","SS1627326727628","","null","","","null","","","","","","","","","","","<p><img src= images/blank.png width =""600"" height = ""600"" style=""position:fixed;top:50%; left:50%; transform: translate(-50%, -50%); border:5px solid black"">","","","","",""
"","stimuli-presentation","24","75010","0.0-11.0-1.6","SS1627326727628","","2752","trial","","40","500","3252","images/stimuli/complex_16_A_b.gif","images/stimuli/complex_17_A_a.gif","forced_short","180","","","","","","0","complex_dissimilar","images/stimuli/complex_16_A_b.gif","",""
"","survey-multi-choice","25","78487","0.0-12.0","SS1627326727628","","3474","memory_test","","","","","","","","","{""Q0"":""No""}","[0]","images/stimuli/complex_18_A_a.gif","0","","","","","",""
"","survey-multi-choice","26","80549","0.0-13.0","SS1627326727628","","2058","memory_test","","","","","","","","","{""Q0"":""Yes""}","[0]","images/stimuli/complex_17_A_a.gif","0","","","","","",""
"","html-keyboard-response","27","81395","0.0-14.0-0.0","SS1627326727628","","null","","","null","","","","","","","","","","","<p><img src= images/blank.png width =""600"" height = ""600"" style=""position:fixed;top:50%; left:50%; transform: translate(-50%, -50%); border:5px solid black"">","","","","",""
"","stimuli-presentation","28","82661","0.0-14.0-1.0","SS1627326727628","","950","trial","","40","500","1450","images/stimuli/complex_08_A_a.gif","images/stimuli/complex_10_A_a.gif","forced_short","310","","","","","","1","complex_dissimilar","images/stimuli/complex_10_A_a.gif","",""
"","html-keyboard-response","29","83608","0.0-14.0-0.1","SS1627326727628","","null","","","null","","","","","","","","","","","<p><img src= images/blank.png width =""600"" height = ""600"" style=""position:fixed;top:50%; left:50%; transform: translate(-50%, -50%); border:5px solid black"">","","","","",""
"","stimuli-presentation","30","85735","0.0-14.0-1.1","SS1627326727628","","1622","trial","","40","500","2122","images/stimuli/complex_08_A_a.gif","images/stimuli/complex_10_A_a.gif","forced_short","310","","","","","","1","complex_dissimilar","images/stimuli/complex_08_A_a.gif","",""
"","html-keyboard-response","31","86813","0.0-14.0-0.2","SS1627326727628","","null","","","null","","","","","","","","","","","<p><img src= images/blank.png width =""600"" height = ""600"" style=""position:fixed;top:50%; left:50%; transform: translate(-50%, -50%); border:5px solid black"">","","","","",""
"","stimuli-presentation","32","88879","0.0-14.0-1.2","SS1627326727628","","1562","trial","","40","500","2062","images/stimuli/complex_08_A_a.gif","images/stimuli/complex_10_A_a.gif","forced_short","310","","","","","","1","complex_dissimilar","images/stimuli/complex_10_A_a.gif","",""
"","html-keyboard-response","33","89956","0.0-14.0-0.3","SS1627326727628","","null","","","null","","","","","","","","","","","<p><img src= images/blank.png width =""600"" height = ""600"" style=""position:fixed;top:50%; left:50%; transform: translate(-50%, -50%); border:5px solid black"">","","","","",""
"","stimuli-presentation","34","91086","0.0-14.0-1.3","SS1627326727628","","624","trial","","40","500","1124","images/stimuli/complex_08_A_a.gif","images/stimuli/complex_10_A_a.gif","forced_short","310","","","","","","1","complex_dissimilar","images/stimuli/complex_10_A_a.gif","",""
"","html-keyboard-response","35","91987","0.0-14.0-0.4","SS1627326727628","","null","","","null","","","","","","","","","","","<p><img src= images/blank.png width =""600"" height = ""600"" style=""position:fixed;top:50%; left:50%; transform: translate(-50%, -50%); border:5px solid black"">","","","","",""
"","stimuli-presentation","36","92764","0.0-14.0-1.4","SS1627326727628","","271.99999999998545","trial","","40","500","771.9999999999854","images/stimuli/complex_08_A_a.gif","images/stimuli/complex_10_A_a.gif","forced_short","310","","","","","","1","complex_dissimilar","images/stimuli/complex_10_A_a.gif","",""
"","html-keyboard-response","37","93764","0.0-14.0-0.5","SS1627326727628","","null","","","null","","","","","","","","","","","<p><img src= images/blank.png width =""600"" height = ""600"" style=""position:fixed;top:50%; left:50%; transform: translate(-50%, -50%); border:5px solid black"">","","","","",""
"","stimuli-presentation","38","94279","0.0-14.0-1.5","SS1627326727628","","10","trial","","40","500","510","images/stimuli/complex_08_A_a.gif","images/stimuli/complex_10_A_a.gif","forced_short","310","","","","","","1","complex_dissimilar","images/stimuli/complex_10_A_a.gif","",""
"","html-keyboard-response","39","95317","0.0-14.0-0.6","SS1627326727628","","null","","","null","","","","","","","","","","","<p><img src= images/blank.png width =""600"" height = ""600"" style=""position:fixed;top:50%; left:50%; transform: translate(-50%, -50%); border:5px solid black"">","","","","",""
"","stimuli-presentation","40","96182","0.0-14.0-1.6","SS1627326727628","","359.99999999998545","trial","","40","500","859.9999999999854","images/stimuli/complex_08_A_a.gif","images/stimuli/complex_10_A_a.gif","forced_short","310","","","","","","1","complex_dissimilar","images/stimuli/complex_10_A_a.gif","",""
"","survey-multi-choice","41","98456","0.0-15.0","SS1627326727628","","2270.0000000000146","memory_test","","","","","","","","","{""Q0"":""Yes""}","[0]","images/stimuli/complex_08_A_a.gif","1","","","","","",""
"","survey-multi-choice","42","102432","0.0-16.0","SS1627326727628","","3972","memory_test","","","","","","","","","{""Q0"":""No""}","[0]","images/stimuli/complex_23_A_a.gif","1","","","","","",""
"","html-keyboard-response","43","103631","0.0-17.0-0.0","SS1627326727628","","null","","","null","","","","","","","","","","","<p><img src= images/blank.png width =""600"" height = ""600"" style=""position:fixed;top:50%; left:50%; transform: translate(-50%, -50%); border:5px solid black"">","","","","",""
"","stimuli-presentation","44","105508","0.0-17.0-1.0","SS1627326727628","","1761","trial","","40","500","2261","images/stimuli/complex_20_A_a.gif","images/stimuli/complex_01_A_b.gif","forced_short","110","","","","","","2","complex_dissimilar","images/stimuli/complex_01_A_b.gif","",""
"","html-keyboard-response","45","106355","0.0-17.0-0.1","SS1627326727628","","null","","","null","","","","","","","","","","","<p><img src= images/blank.png width =""600"" height = ""600"" style=""position:fixed;top:50%; left:50%; transform: translate(-50%, -50%); border:5px solid black"">","","","","",""
"","stimuli-presentation","46","108052","0.0-17.0-1.1","SS1627326727628","","1190.9999999999854","trial","","40","500","1690.9999999999854","images/stimuli/complex_20_A_a.gif","images/stimuli/complex_01_A_b.gif","forced_short","110","","","","","","2","complex_dissimilar","images/stimuli/complex_01_A_b.gif","",""
"","html-keyboard-response","47","109036","0.0-17.0-0.2","SS1627326727628","","null","","","null","","","","","","","","","","","<p><img src= images/blank.png width =""600"" height = ""600"" style=""position:fixed;top:50%; left:50%; transform: translate(-50%, -50%); border:5px solid black"">","","","","",""
"","stimuli-presentation","48","110258","0.0-17.0-1.2","SS1627326727628","","717","trial","","40","500","1217","images/stimuli/complex_20_A_a.gif","images/stimuli/complex_01_A_b.gif","forced_short","110","","","","","","2","complex_dissimilar","images/stimuli/complex_01_A_b.gif","",""
"","html-keyboard-response","49","111516","0.0-17.0-0.3","SS1627326727628","","null","","","null","","","","","","","","","","","<p><img src= images/blank.png width =""600"" height = ""600"" style=""position:fixed;top:50%; left:50%; transform: translate(-50%, -50%); border:5px solid black"">","","","","",""
"","stimuli-presentation","50","113382","0.0-17.0-1.3","SS1627326727628","","1360.0000000000146","trial","","40","500","1860.0000000000146","images/stimuli/complex_20_A_a.gif","images/stimuli/complex_01_A_b.gif","forced_short","110","","","","","","2","complex_dissimilar","images/stimuli/complex_01_A_b.gif","",""
"","html-keyboard-response","51","114303","0.0-17.0-0.4","SS1627326727628","","null","","","null","","","","","","","","","","","<p><img src= images/blank.png width =""600"" height = ""600"" style=""position:fixed;top:50%; left:50%; transform: translate(-50%, -50%); border:5px solid black"">","","","","",""
"","stimuli-presentation","52","115310","0.0-17.0-1.4","SS1627326727628","","501","trial","","40","500","1001","images/stimuli/complex_20_A_a.gif","images/stimuli/complex_01_A_b.gif","forced_short","110","","","","","","2","complex_dissimilar","images/stimuli/complex_01_A_b.gif","",""
"","html-keyboard-response","53","116167","0.0-17.0-0.5","SS1627326727628","","null","","","null","","","","","","","","","","","<p><img src= images/blank.png width =""600"" height = ""600"" style=""position:fixed;top:50%; left:50%; transform: translate(-50%, -50%); border:5px solid black"">","","","","",""
"","stimuli-presentation","54","117895","0.0-17.0-1.5","SS1627326727628","","1221","trial","","40","500","1721","images/stimuli/complex_20_A_a.gif","images/stimuli/complex_01_A_b.gif","forced_short","110","","","","","","2","complex_dissimilar","images/stimuli/complex_20_A_a.gif","",""
"","html-keyboard-response","55","119135","0.0-17.0-0.6","SS1627326727628","","null","","","null","","","","","","","","","","","<p><img src= images/blank.png width =""600"" height = ""600"" style=""position:fixed;top:50%; left:50%; transform: translate(-50%, -50%); border:5px solid black"">","","","","",""
"","stimuli-presentation","56","119667","0.0-17.0-1.6","SS1627326727628","","26.999999999985448","trial","","40","500","526.9999999999854","images/stimuli/complex_20_A_a.gif","images/stimuli/complex_01_A_b.gif","forced_short","110","","","","","","2","complex_dissimilar","images/stimuli/complex_01_A_b.gif","",""
"","html-keyboard-response","57","120906","0.0-17.0-0.7","SS1627326727628","","null","","","null","","","","","","","","","","","<p><img src= images/blank.png width =""600"" height = ""600"" style=""position:fixed;top:50%; left:50%; transform: translate(-50%, -50%); border:5px solid black"">","","","","",""
"","stimuli-presentation","58","121661","0.0-17.0-1.7","SS1627326727628","","249","trial","","40","500","749","images/stimuli/complex_20_A_a.gif","images/stimuli/complex_01_A_b.gif","forced_short","110","","","","","","2","complex_dissimilar","images/stimuli/complex_01_A_b.gif","",""
"","survey-multi-choice","59","124154","0.0-18.0","SS1627326727628","","2489.000000000029","memory_test","","","","","","","","","{""Q0"":""No""}","[0]","images/stimuli/complex_22_A_b.gif","2","","","","","",""
"","survey-multi-choice","60","125818","0.0-19.0","SS1627326727628","","1661","memory_test","","","","","","","","","{""Q0"":""Yes""}","[0]","images/stimuli/complex_01_A_b.gif","2","","","","","",""
"","html-keyboard-response","61","126926","0.0-20.0-0.0","SS1627326727628","","null","","","null","","","","","","","","","","","<p><img src= images/blank.png width =""600"" height = ""600"" style=""position:fixed;top:50%; left:50%; transform: translate(-50%, -50%); border:5px solid black"">","","","","",""
"","stimuli-presentation","62","129667","0.0-20.0-1.0","SS1627326727628","","2244.999999999971","trial","","40","500","2744.999999999971","images/stimuli/complex_06_A_a.gif","images/stimuli/complex_05_A_a.gif","forced_short","490","","","","","","3","complex_dissimilar","images/stimuli/complex_05_A_a.gif","",""
"","html-keyboard-response","63","130867","0.0-20.0-0.1","SS1627326727628","","null","","","null","","","","","","","","","","","<p><img src= images/blank.png width =""600"" height = ""600"" style=""position:fixed;top:50%; left:50%; transform: translate(-50%, -50%); border:5px solid black"">","","","","",""
"","stimuli-presentation","64","133810","0.0-20.0-1.1","SS1627326727628","","2436","trial","","40","500","2936","images/stimuli/complex_06_A_a.gif","images/stimuli/complex_05_A_a.gif","forced_short","490","","","","","","3","complex_dissimilar","images/stimuli/complex_05_A_a.gif","",""
"","html-keyboard-response","65","135044","0.0-20.0-0.2","SS1627326727628","","null","","","null","","","","","","","","","","","<p><img src= images/blank.png width =""600"" height = ""600"" style=""position:fixed;top:50%; left:50%; transform: translate(-50%, -50%); border:5px solid black"">","","","","",""
"","stimuli-presentation","66","135893","0.0-20.0-1.2","SS1627326727628","","342","trial","","40","500","842","images/stimuli/complex_06_A_a.gif","images/stimuli/complex_05_A_a.gif","forced_short","490","","","","","","3","complex_dissimilar","images/stimuli/complex_05_A_a.gif","",""
"","html-keyboard-response","67","136786","0.0-20.0-0.3","SS1627326727628","","null","","","null","","","","","","","","","","","<p><img src= images/blank.png width =""600"" height = ""600"" style=""position:fixed;top:50%; left:50%; transform: translate(-50%, -50%); border:5px solid black"">","","","","",""
"","stimuli-presentation","68","137362","0.0-20.0-1.3","SS1627326727628","","70","trial","","40","500","570","images/stimuli/complex_06_A_a.gif","images/stimuli/complex_05_A_a.gif","forced_short","490","","","","","","3","complex_dissimilar","images/stimuli/complex_05_A_a.gif","",""
"","html-keyboard-response","69","138308","0.0-20.0-0.4","SS1627326727628","","null","","","null","","","","","","","","","","","<p><img src= images/blank.png width =""600"" height = ""600"" style=""position:fixed;top:50%; left:50%; transform: translate(-50%, -50%); border:5px solid black"">","","","","",""
"","stimuli-presentation","70","139312","0.0-20.0-1.4","SS1627326727628","","499","trial","","40","500","999","images/stimuli/complex_06_A_a.gif","images/stimuli/complex_05_A_a.gif","forced_short","490","","","","","","3","complex_dissimilar","images/stimuli/complex_05_A_a.gif","",""
"","html-keyboard-response","71","140152","0.0-20.0-0.5","SS1627326727628","","null","","","null","","","","","","","","","","","<p><img src= images/blank.png width =""600"" height = ""600"" style=""position:fixed;top:50%; left:50%; transform: translate(-50%, -50%); border:5px solid black"">","","","","",""
"","stimuli-presentation","72","140664","0.0-20.0-1.5","SS1627326727628","","6","trial","","40","500","506","images/stimuli/complex_06_A_a.gif","images/stimuli/complex_05_A_a.gif","forced_short","490","","","","","","3","complex_dissimilar","images/stimuli/complex_05_A_a.gif","",""
"","html-keyboard-response","73","141756","0.0-20.0-0.6","SS1627326727628","","null","","","null","","","","","","","","","","","<p><img src= images/blank.png width =""600"" height = ""600"" style=""position:fixed;top:50%; left:50%; transform: translate(-50%, -50%); border:5px solid black"">","","","","",""
"","stimuli-presentation","74","142710","0.0-20.0-1.6","SS1627326727628","","448","trial","","40","500","948","images/stimuli/complex_06_A_a.gif","images/stimuli/complex_05_A_a.gif","forced_short","490","","","","","","3","complex_dissimilar","images/stimuli/complex_05_A_a.gif","",""
"","html-keyboard-response","75","143984","0.0-20.0-0.7","SS1627326727628","","null","","","null","","","","","","","","","","","<p><img src= images/blank.png width =""600"" height = ""600"" style=""position:fixed;top:50%; left:50%; transform: translate(-50%, -50%); border:5px solid black"">","","","","",""
"","stimuli-presentation","76","144663","0.0-20.0-1.7","SS1627326727628","","172","trial","","40","500","672","images/stimuli/complex_06_A_a.gif","images/stimuli/complex_05_A_a.gif","forced_short","490","","","","","","3","complex_dissimilar","images/stimuli/complex_05_A_a.gif","",""
"","survey-multi-choice","77","146832","0.0-21.0","SS1627326727628","","2164.000000000029","memory_test","","","","","","","","","{""Q0"":""Yes""}","[0]","images/stimuli/complex_05_A_a.gif","3","","","","","",""
"","survey-multi-choice","78","149250","0.0-22.0","SS1627326727628","","2413","memory_test","","","","","","","","","{""Q0"":""No""}","[0]","images/stimuli/complex_21_A_b.gif","3","","","","","",""
"","html-keyboard-response","79","150311","0.0-23.0-0.0","SS1627326727628","","null","","","null","","","","","","","","","","","<p><img src= images/blank.png width =""600"" height = ""600"" style=""position:fixed;top:50%; left:50%; transform: translate(-50%, -50%); border:5px solid black"">","","","","",""
"","stimuli-presentation","80","152428","0.0-23.0-1.0","SS1627326727628","","1460.000000000029","trial","","40","500","1960.000000000029","images/stimuli/complex_07_A_b.gif","images/stimuli/complex_02_A_b.gif","forced_short","650","","","","","","4","complex_dissimilar","images/stimuli/complex_02_A_b.gif","",""
"","html-keyboard-response","81","153328","0.0-23.0-0.1","SS1627326727628","","null","","","null","","","","","","","","","","","<p><img src= images/blank.png width =""600"" height = ""600"" style=""position:fixed;top:50%; left:50%; transform: translate(-50%, -50%); border:5px solid black"">","","","","",""
"","stimuli-presentation","82","155881","0.0-23.0-1.1","SS1627326727628","","2046","trial","","40","500","2546","images/stimuli/complex_07_A_b.gif","images/stimuli/complex_02_A_b.gif","forced_short","650","","","","","","4","complex_dissimilar","images/stimuli/complex_02_A_b.gif","",""
"","html-keyboard-response","83","157127","0.0-23.0-0.2","SS1627326727628","","null","","","null","","","","","","","","","","","<p><img src= images/blank.png width =""600"" height = ""600"" style=""position:fixed;top:50%; left:50%; transform: translate(-50%, -50%); border:5px solid black"">","","","","",""
"","stimuli-presentation","84","158986","0.0-23.0-1.2","SS1627326727628","","1352","trial","","40","500","1852","images/stimuli/complex_07_A_b.gif","images/stimuli/complex_02_A_b.gif","forced_short","650","","","","","","4","complex_dissimilar","images/stimuli/complex_07_A_b.gif","",""
"","html-keyboard-response","85","160178","0.0-23.0-0.3","SS1627326727628","","null","","","null","","","","","","","","","","","<p><img src= images/blank.png width =""600"" height = ""600"" style=""position:fixed;top:50%; left:50%; transform: translate(-50%, -50%); border:5px solid black"">","","","","",""
"","stimuli-presentation","86","161206","0.0-23.0-1.3","SS1627326727628","","522.9999999999709","trial","","40","500","1022.9999999999709","images/stimuli/complex_07_A_b.gif","images/stimuli/complex_02_A_b.gif","forced_short","650","","","","","","4","complex_dissimilar","images/stimuli/complex_02_A_b.gif","",""
"","html-keyboard-response","87","162446","0.0-23.0-0.4","SS1627326727628","","null","","","null","","","","","","","","","","","<p><img src= images/blank.png width =""600"" height = ""600"" style=""position:fixed;top:50%; left:50%; transform: translate(-50%, -50%); border:5px solid black"">","","","","",""
"","stimuli-presentation","88","163947","0.0-23.0-1.4","SS1627326727628","","993","trial","","40","500","1493","images/stimuli/complex_07_A_b.gif","images/stimuli/complex_02_A_b.gif","forced_short","650","","","","","","4","complex_dissimilar","images/stimuli/complex_02_A_b.gif","",""
"","html-keyboard-response","89","164913","0.0-23.0-0.5","SS1627326727628","","null","","","null","","","","","","","","","","","<p><img src= images/blank.png width =""600"" height = ""600"" style=""position:fixed;top:50%; left:50%; transform: translate(-50%, -50%); border:5px solid black"">","","","","",""
"","stimuli-presentation","90","165443","0.0-23.0-1.5","SS1627326727628","","24","trial","","40","500","524","images/stimuli/complex_07_A_b.gif","images/stimuli/complex_02_A_b.gif","forced_short","650","","","","","","4","complex_dissimilar","images/stimuli/complex_02_A_b.gif","",""
"","survey-multi-choice","91","167560","0.0-24.0","SS1627326727628","","2112","memory_test","","","","","","","","","{""Q0"":""Yes""}","[0]","images/stimuli/complex_02_A_b.gif","4","","","","","",""
"","survey-multi-choice","92","170469","0.0-25.0","SS1627326727628","","2905","memory_test","","","","","","","","","{""Q0"":""No""}","[0]","images/stimuli/complex_12_A_a.gif","4","","","","","",""
"","html-keyboard-response","93","171390","0.0-26.0-0.0","SS1627326727628","","null","","","null","","","","","","","","","","","<p><img src= images/blank.png width =""600"" height = ""600"" style=""position:fixed;top:50%; left:50%; transform: translate(-50%, -50%); border:5px solid black"">","","","","",""
"","stimuli-presentation","94","173718","0.0-26.0-1.0","SS1627326727628","","2042","trial","","40","500","2542","images/stimuli/complex_13_A_a.gif","images/stimuli/complex_19_A_a.gif","forced_short","280","","","","","","5","complex_dissimilar","images/stimuli/complex_19_A_a.gif","",""
"","html-keyboard-response","95","174848","0.0-26.0-0.1","SS1627326727628","","null","","","null","","","","","","","","","","","<p><img src= images/blank.png width =""600"" height = ""600"" style=""position:fixed;top:50%; left:50%; transform: translate(-50%, -50%); border:5px solid black"">","","","","",""
"","stimuli-presentation","96","175666","0.0-26.0-1.1","SS1627326727628","","311.0000000000291","trial","","40","500","811.0000000000291","images/stimuli/complex_13_A_a.gif","images/stimuli/complex_19_A_a.gif","forced_short","280","","","","","","5","complex_dissimilar","images/stimuli/complex_19_A_a.gif","",""
"","html-keyboard-response","97","176949","0.0-26.0-0.2","SS1627326727628","","null","","","null","","","","","","","","","","","<p><img src= images/blank.png width =""600"" height = ""600"" style=""position:fixed;top:50%; left:50%; transform: translate(-50%, -50%); border:5px solid black"">","","","","",""
"","stimuli-presentation","98","178512","0.0-26.0-1.2","SS1627326727628","","1056","trial","","40","500","1556","images/stimuli/complex_13_A_a.gif","images/stimuli/complex_19_A_a.gif","forced_short","280","","","","","","5","complex_dissimilar","images/stimuli/complex_13_A_a.gif","",""
"","html-keyboard-response","99","179445","0.0-26.0-0.3","SS1627326727628","","null","","","null","","","","","","","","","","","<p><img src= images/blank.png width =""600"" height = ""600"" style=""position:fixed;top:50%; left:50%; transform: translate(-50%, -50%); border:5px solid black"">","","","","",""
"","stimuli-presentation","100","180290","0.0-26.0-1.3","SS1627326727628","","337","trial","","40","500","837","images/stimuli/complex_13_A_a.gif","images/stimuli/complex_19_A_a.gif","forced_short","280","","","","","","5","complex_dissimilar","images/stimuli/complex_19_A_a.gif","",""
"","html-keyboard-response","101","181407","0.0-26.0-0.4","SS1627326727628","","null","","","null","","","","","","","","","","","<p><img src= images/blank.png width =""600"" height = ""600"" style=""position:fixed;top:50%; left:50%; transform: translate(-50%, -50%); border:5px solid black"">","","","","",""
"","stimuli-presentation","102","182044","0.0-26.0-1.4","SS1627326727628","","131","trial","","40","500","631","images/stimuli/complex_13_A_a.gif","images/stimuli/complex_19_A_a.gif","forced_short","280","","","","","","5","complex_dissimilar","images/stimuli/complex_19_A_a.gif","",""
"","html-keyboard-response","103","182941","0.0-26.0-0.5","SS1627326727628","","null","","","null","","","","","","","","","","","<p><img src= images/blank.png width =""600"" height = ""600"" style=""position:fixed;top:50%; left:50%; transform: translate(-50%, -50%); border:5px solid black"">","","","","",""
"","stimuli-presentation","104","183509","0.0-26.0-1.5","SS1627326727628","","59","trial","","40","500","559","images/stimuli/complex_13_A_a.gif","images/stimuli/complex_19_A_a.gif","forced_short","280","","","","","","5","complex_dissimilar","images/stimuli/complex_13_A_a.gif","",""
"","survey-multi-choice","105","186411","0.0-27.0","SS1627326727628","","2897","memory_test","","","","","","","","","{""Q0"":""No""}","[0]","images/stimuli/complex_11_A_b.gif","5","","","","","",""
"","survey-multi-choice","106","188550","0.0-28.0","SS1627326727628","","2134","memory_test","","","","","","","","","{""Q0"":""Yes""}","[0]","images/stimuli/complex_19_A_a.gif","5","","","","","",""
"","html-keyboard-response","107","189467","0.0-29.0-0.0","SS1627326727628","","null","","","null","","","","","","","","","","","<p><img src= images/blank.png width =""600"" height = ""600"" style=""position:fixed;top:50%; left:50%; transform: translate(-50%, -50%); border:5px solid black"">","","","","",""
"","stimuli-presentation","108","190345","0.0-29.0-1.0","SS1627326727628","","386","trial","","40","500","886","images/stimuli/complex_24_A_b.gif","images/stimuli/complex_09_A_b.gif","forced_short","480","","","","","","6","complex_dissimilar","images/stimuli/complex_09_A_b.gif","",""
"","html-keyboard-response","109","191591","0.0-29.0-0.1","SS1627326727628","","null","","","null","","","","","","","","","","","<p><img src= images/blank.png width =""600"" height = ""600"" style=""position:fixed;top:50%; left:50%; transform: translate(-50%, -50%); border:5px solid black"">","","","","",""
"","stimuli-presentation","110","193086","0.0-29.0-1.1","SS1627326727628","","985","trial","","40","500","1485","images/stimuli/complex_24_A_b.gif","images/stimuli/complex_09_A_b.gif","forced_short","480","","","","","","6","complex_dissimilar","images/stimuli/complex_09_A_b.gif","",""
"","html-keyboard-response","111","194254","0.0-29.0-0.2","SS1627326727628","","null","","","null","","","","","","","","","","","<p><img src= images/blank.png width =""600"" height = ""600"" style=""position:fixed;top:50%; left:50%; transform: translate(-50%, -50%); border:5px solid black"">","","","","",""
"","stimuli-presentation","112","195509","0.0-29.0-1.2","SS1627326727628","","746","trial","","40","500","1246","images/stimuli/complex_24_A_b.gif","images/stimuli/complex_09_A_b.gif","forced_short","480","","","","","","6","complex_dissimilar","images/stimuli/complex_09_A_b.gif","",""
"","html-keyboard-response","113","196496","0.0-29.0-0.3","SS1627326727628","","null","","","null","","","","","","","","","","","<p><img src= images/blank.png width =""600"" height = ""600"" style=""position:fixed;top:50%; left:50%; transform: translate(-50%, -50%); border:5px solid black"">","","","","",""
"","stimuli-presentation","114","197930","0.0-29.0-1.3","SS1627326727628","","926","trial","","40","500","1426","images/stimuli/complex_24_A_b.gif","images/stimuli/complex_09_A_b.gif","forced_short","480","","","","","","6","complex_dissimilar","images/stimuli/complex_09_A_b.gif","",""
"","html-keyboard-response","115","199190","0.0-29.0-0.4","SS1627326727628","","null","","","null","","","","","","","","","","","<p><img src= images/blank.png width =""600"" height = ""600"" style=""position:fixed;top:50%; left:50%; transform: translate(-50%, -50%); border:5px solid black"">","","","","",""
"","stimuli-presentation","116","199719","0.0-29.0-1.4","SS1627326727628","","19.000000000029104","trial","","40","500","519.0000000000291","images/stimuli/complex_24_A_b.gif","images/stimuli/complex_09_A_b.gif","forced_short","480","","","","","","6","complex_dissimilar","images/stimuli/complex_09_A_b.gif","",""
"","html-keyboard-response","117","200557","0.0-29.0-0.5","SS1627326727628","","null","","","null","","","","","","","","","","","<p><img src= images/blank.png width =""600"" height = ""600"" style=""position:fixed;top:50%; left:50%; transform: translate(-50%, -50%); border:5px solid black"">","","","","",""
"","stimuli-presentation","118","202420","0.0-29.0-1.5","SS1627326727628","","1354","trial","","40","500","1854","images/stimuli/complex_24_A_b.gif","images/stimuli/complex_09_A_b.gif","forced_short","480","","","","","","6","complex_dissimilar","images/stimuli/complex_09_A_b.gif","",""
"","html-keyboard-response","119","203665","0.0-29.0-0.6","SS1627326727628","","null","","","null","","","","","","","","","","","<p><img src= images/blank.png width =""600"" height = ""600"" style=""position:fixed;top:50%; left:50%; transform: translate(-50%, -50%); border:5px solid black"">","","","","",""
"","stimuli-presentation","120","204356","0.0-29.0-1.6","SS1627326727628","","183.0000000000291","trial","","40","500","683.0000000000291","images/stimuli/complex_24_A_b.gif","images/stimuli/complex_09_A_b.gif","forced_short","480","","","","","","6","complex_dissimilar","images/stimuli/complex_09_A_b.gif","",""
"","survey-multi-choice","121","207098","0.0-30.0","SS1627326727628","","2737","memory_test","","","","","","","","","{""Q0"":""No""}","[0]","images/stimuli/complex_15_A_a.gif","6","","","","","",""
"","survey-multi-choice","122","209285","0.0-31.0","SS1627326727628","","2184","memory_test","","","","","","","","","{""Q0"":""Yes""}","[0]","images/stimuli/complex_09_A_b.gif","6","","","","","",""
"","html-keyboard-response","123","210352","0.0-32.0-0.0","SS1627326727628","","null","","","null","","","","","","","","","","","<p><img src= images/blank.png width =""600"" height = ""600"" style=""position:fixed;top:50%; left:50%; transform: translate(-50%, -50%); border:5px solid black"">","","","","",""
"","stimuli-presentation","124","212207","0.0-32.0-1.0","SS1627326727628","","1438.000000000029","trial","","40","500","1938.000000000029","images/stimuli/complex_04_A_a.gif","images/stimuli/complex_14_A_b.gif","forced_short","410","","","","","","7","complex_dissimilar","images/stimuli/complex_14_A_b.gif","",""
"","html-keyboard-response","125","213051","0.0-32.0-0.1","SS1627326727628","","null","","","null","","","","","","","","","","","<p><img src= images/blank.png width =""600"" height = ""600"" style=""position:fixed;top:50%; left:50%; transform: translate(-50%, -50%); border:5px solid black"">","","","","",""
"","stimuli-presentation","126","214160","0.0-32.0-1.1","SS1627326727628","","601","trial","","40","500","1101","images/stimuli/complex_04_A_a.gif","images/stimuli/complex_14_A_b.gif","forced_short","410","","","","","","7","complex_dissimilar","images/stimuli/complex_14_A_b.gif","",""
"","html-keyboard-response","127","215212","0.0-32.0-0.2","SS1627326727628","","null","","","null","","","","","","","","","","","<p><img src= images/blank.png width =""600"" height = ""600"" style=""position:fixed;top:50%; left:50%; transform: translate(-50%, -50%); border:5px solid black"">","","","","",""
"","stimuli-presentation","128","216973","0.0-32.0-1.2","SS1627326727628","","1253","trial","","40","500","1753","images/stimuli/complex_04_A_a.gif","images/stimuli/complex_14_A_b.gif","forced_short","410","","","","","","7","complex_dissimilar","images/stimuli/complex_04_A_a.gif","",""
"","html-keyboard-response","129","217806","0.0-32.0-0.3","SS1627326727628","","null","","","null","","","","","","","","","","","<p><img src= images/blank.png width =""600"" height = ""600"" style=""position:fixed;top:50%; left:50%; transform: translate(-50%, -50%); border:5px solid black"">","","","","",""
"","stimuli-presentation","130","219391","0.0-32.0-1.3","SS1627326727628","","1075","trial","","40","500","1575","images/stimuli/complex_04_A_a.gif","images/stimuli/complex_14_A_b.gif","forced_short","410","","","","","","7","complex_dissimilar","images/stimuli/complex_14_A_b.gif","",""
"","html-keyboard-response","131","220579","0.0-32.0-0.4","SS1627326727628","","null","","","null","","","","","","","","","","","<p><img src= images/blank.png width =""600"" height = ""600"" style=""position:fixed;top:50%; left:50%; transform: translate(-50%, -50%); border:5px solid black"">","","","","",""
"","stimuli-presentation","132","222360","0.0-32.0-1.4","SS1627326727628","","1273","trial","","40","500","1773","images/stimuli/complex_04_A_a.gif","images/stimuli/complex_14_A_b.gif","forced_short","410","","","","","","7","complex_dissimilar","images/stimuli/complex_14_A_b.gif","",""
"","html-keyboard-response","133","223659","0.0-32.0-0.5","SS1627326727628","","null","","","null","","","","","","","","","","","<p><img src= images/blank.png width =""600"" height = ""600"" style=""position:fixed;top:50%; left:50%; transform: translate(-50%, -50%); border:5px solid black"">","","","","",""
"","stimuli-presentation","134","224703","0.0-32.0-1.5","SS1627326727628","","536","trial","","40","500","1036","images/stimuli/complex_04_A_a.gif","images/stimuli/complex_14_A_b.gif","forced_short","410","","","","","","7","complex_dissimilar","images/stimuli/complex_14_A_b.gif","",""
"","html-keyboard-response","135","225767","0.0-32.0-0.6","SS1627326727628","","null","","","null","","","","","","","","","","","<p><img src= images/blank.png width =""600"" height = ""600"" style=""position:fixed;top:50%; left:50%; transform: translate(-50%, -50%); border:5px solid black"">","","","","",""
"","stimuli-presentation","136","226922","0.0-32.0-1.6","SS1627326727628","","648","trial","","40","500","1148","images/stimuli/complex_04_A_a.gif","images/stimuli/complex_14_A_b.gif","forced_short","410","","","","","","7","complex_dissimilar","images/stimuli/complex_14_A_b.gif","",""
"","html-keyboard-response","137","228201","0.0-32.0-0.7","SS1627326727628","","null","","","null","","","","","","","","","","","<p><img src= images/blank.png width =""600"" height = ""600"" style=""position:fixed;top:50%; left:50%; transform: translate(-50%, -50%); border:5px solid black"">","","","","",""
"","stimuli-presentation","138","229550","0.0-32.0-1.7","SS1627326727628","","842","trial","","40","500","1342","images/stimuli/complex_04_A_a.gif","images/stimuli/complex_14_A_b.gif","forced_short","410","","","","","","7","complex_dissimilar","images/stimuli/complex_04_A_a.gif","",""
"","survey-multi-choice","139","232270","0.0-33.0","SS1627326727628","","2714","memory_test","","","","","","","","","{""Q0"":""No""}","[0]","images/stimuli/complex_03_A_b.gif","7","","","","","",""
"","survey-multi-choice","140","234022","0.0-34.0","SS1627326727628","","1746.000000000029","memory_test","","","","","","","","","{""Q0"":""Yes""}","[0]","images/stimuli/complex_14_A_b.gif","7","","","","","",""
"","instructions","141","238338","0.0-35.0","SS1627326727628","[{""page_index"":0,""viewing_time"":4311.000000000029}]","4311.000000000029","instructions","","","","","","","","","","","","","","","","","",""
"","survey-likert","142","243863","0.0-36.0","SS1627326727628","","5521","similarity_question","","","","","","","","","{""Q0"":2}","[0]","","","","","","","images/stimuli/complex_17_A_a.gif","images/stimuli/complex_16_A_b.gif"
"","survey-likert","143","252920","0.0-37.0","SS1627326727628","","9052.99999999997","similarity_question","","","","","","","","","{""Q0"":1}","[0]","","","","","","","images/stimuli/complex_20_A_a.gif","images/stimuli/complex_01_A_b.gif"
"","survey-likert","144","256631","0.0-38.0","SS1627326727628","","3707","similarity_question","","","","","","","","","{""Q0"":4}","[0]","","","","","","","images/stimuli/complex_08_A_a.gif","images/stimuli/complex_10_A_a.gif"
"","survey-likert","145","263668","0.0-39.0","SS1627326727628","","7032","similarity_question","","","","","","","","","{""Q0"":4}","[0]","","","","","","","images/stimuli/complex_05_A_a.gif","images/stimuli/complex_06_A_a.gif"
"","survey-likert","146","267964","0.0-40.0","SS1627326727628","","4291","similarity_question","","","","","","","","","{""Q0"":4}","[0]","","","","","","","images/stimuli/complex_24_A_b.gif","images/stimuli/complex_09_A_b.gif"
"","survey-likert","147","272270","0.0-41.0","SS1627326727628","","4302","similarity_question","","","","","","","","","{""Q0"":2}","[0]","","","","","","","images/stimuli/complex_07_A_b.gif","images/stimuli/complex_02_A_b.gif"
"","survey-likert","148","275434","0.0-42.0","SS1627326727628","","3158","similarity_question","","","","","","","","","{""Q0"":1}","[0]","","","","","","","images/stimuli/complex_13_A_a.gif","images/stimuli/complex_19_A_a.gif"
"","survey-likert","149","283715","0.0-43.0","SS1627326727628","","8277.000000000058","similarity_question","","","","","","","","","{""Q0"":0}","[0]","","","","","","","images/stimuli/complex_14_A_b.gif","images/stimuli/complex_04_A_a.gif"
"","instructions","150","286903","0.0-44.0","SS1627326727628","[{""page_index"":0,""viewing_time"":3184}]","3184","instructions","","","","","","","","","","","","","","","","","",""
"","survey-likert","151","292737","0.0-45.0","SS1627326727628","","5828","","","","","","","","","","{""Q0"":2}","[0]","","","images/stimuli/complex_16_A_b.gif","","","","",""
"","survey-likert","152","297335","0.0-46.0","SS1627326727628","","4593","","","","","","","","","","{""Q0"":4}","[0]","","","images/stimuli/complex_09_A_b.gif","","","","",""
"","survey-likert","153","299581","0.0-47.0","SS1627326727628","","2240","","","","","","","","","","{""Q0"":2}","[0]","","","images/stimuli/complex_13_A_a.gif","","","","",""
"","survey-likert","154","302120","0.0-48.0","SS1627326727628","","2534","","","","","","","","","","{""Q0"":4}","[0]","","","images/stimuli/complex_05_A_a.gif","","","","",""
"","survey-likert","155","303960","0.0-49.0","SS1627326727628","","1833.9999999999418","","","","","","","","","","{""Q0"":5}","[0]","","","images/stimuli/complex_07_A_b.gif","","","","",""
"","survey-likert","156","307914","0.0-50.0","SS1627326727628","","3948.999999999942","","","","","","","","","","{""Q0"":4}","[0]","","","images/stimuli/complex_01_A_b.gif","","","","",""
"","survey-likert","157","311583","0.0-51.0","SS1627326727628","","3663","","","","","","","","","","{""Q0"":4}","[0]","","","images/stimuli/complex_08_A_a.gif","","","","",""
"","survey-likert","158","314598","0.0-52.0","SS1627326727628","","3009","","","","","","","","","","{""Q0"":5}","[0]","","","images/stimuli/complex_14_A_b.gif","","","","",""
"true","fullscreen","159","315603","0.0-53.0","SS1627326727628","","","","","","","","","","","","","","","","","","","","",""
"","instructions","160","317424","0.0-54.0","SS1627326727628","[{""page_index"":0,""viewing_time"":1814.0000000000582}]","1815","instructions","","","","","","","","","","","","","","","","","",""
"","demog-age","161","319758","0.0-55.0","SS1627326727628","","2322","","","","","","","","","","{""age"":""21""}","","","","","","","","",""
"","demog-ethnic-US","162","321929","0.0-56.0","SS1627326727628","","2166","","","","","","","","","","{""ethnicity"":[""White""]}","[0]","","","","","","","",""
"","demog-gender-and-education","163","334173","0.0-57.0","SS1627326727628","","12240.000000000058","","","","","","","","","","{""gender"":""Female"",""education"":""Associate Degree/Technical certification""}","[0,1]","","","","","","","",""
"","survey-text","164","339731","0.0-58.0","SS1627326727628","","5544","feedback","","","","","","","","","{""Q0"":""N/A""}","","","","","","","","",""
"","instructions","165","341250","0.0-59.0","SS1627326727628","[{""page_index"":0,""viewing_time"":1516}]","1517.0000000000582","instructions","","","","","","","","","","","","","","","","","",""
