"success","trial_type","trial_index","time_elapsed","internal_node_id","subject","view_history","rt","stimulus_type","trial_stimulus","key_press","minimum_viewing_duration","trial_looking_time","block_deviant","block_background","exposure_type","forced_exposure_time","responses","question_order","memory_question_stimuli","memory_block_index","stimulus","block_number","block_type","stimulus_displayed","stimulus_left","stimulus_right"
"true","fullscreen","0","5449","0.0-0.0","SS1627326995707","","","","","","","","","","","","","","","","","","","","",""
"","instructions","1","8074","0.0-1.0","SS1627326995707","[{""page_index"":0,""viewing_time"":2621.60000000149}]","2621.800000000745","","","","","","","","","","","","","","","","","","",""
"","instructions","2","28934","0.0-2.0","SS1627326995707","[{""page_index"":0,""viewing_time"":15779.199999999255},{""page_index"":1,""viewing_time"":3070.60000000149}]","18850","instructions","","","","","","","","","","","","","","","","","",""
"","stimuli-presentation","3","39402","0.0-3.0","SS1627326995707","","9965.800000000745","","","40","500","10465.800000000745","null","null","self_paced","0","","","","","","","","","",""
"","instructions","4","48896","0.0-4.0","SS1627326995707","[{""page_index"":0,""viewing_time"":9492.199999999255}]","9492.29999999702","instructions","","","","","","","","","","","","","","","","","",""
"","stimuli-presentation","5","59671","0.0-5.0","SS1627326995707","","10272.5","","","40","500","10772.5","null","null","forced_short","500","","","","","","","","","",""
"","stimuli-presentation","6","62653","0.0-6.0","SS1627326995707","","2479.39999999851","","","40","500","2979.39999999851","null","null","forced_short","500","","","","","","","","","",""
"","instructions","7","69021","0.0-7.0","SS1627326995707","[{""page_index"":0,""viewing_time"":6367.699999999255}]","6367.79999999702","instructions","","","","","","","","","","","","","","","","","",""
"","survey-multi-choice","8","71716","0.0-8.0","SS1627326995707","","2691.900000002235","memory_test_practice","","","","","","","","","{""Q0"":""Yes""}","[0]","images/practice/instructions_example_spore2.gif","0","","","","","",""
"","survey-multi-choice","9","75524","0.0-9.0","SS1627326995707","","3806.599999997765","memory_test_practice","","","","","","","","","{""Q0"":""No""}","[0]","images/practice/instructions_example_spore0.gif","0","","","","","",""
"","instructions","10","84617","0.0-10.0","SS1627326995707","[{""page_index"":0,""viewing_time"":7908.599999997765},{""page_index"":1,""viewing_time"":1184.1000000014901}]","9093","instructions","","","","","","","","","","","","","","","","","",""
"","html-keyboard-response","11","85504","0.0-11.0-0.0","SS1627326995707","","null","","","null","","","","","","","","","","","<p><img src= images/blank.png width =""600"" height = ""600"" style=""position:fixed;top:50%; left:50%; transform: translate(-50%, -50%); border:5px solid black"">","","","","",""
"","stimuli-presentation","12","88838","0.0-11.0-1.0","SS1627326995707","","3071.5","trial","","40","500","3571.5","images/stimuli/complex_23_A_a.gif","images/stimuli/complex_05_A_a.gif","forced_short","260","","","","","","0","complex_dissimilar","images/stimuli/complex_05_A_a.gif","",""
"","html-keyboard-response","13","89762","0.0-11.0-0.1","SS1627326995707","","null","","","null","","","","","","","","","","","<p><img src= images/blank.png width =""600"" height = ""600"" style=""position:fixed;top:50%; left:50%; transform: translate(-50%, -50%); border:5px solid black"">","","","","",""
"","stimuli-presentation","14","94471","0.0-11.0-1.1","SS1627326995707","","4205","trial","","40","500","4705","images/stimuli/complex_23_A_a.gif","images/stimuli/complex_05_A_a.gif","forced_short","260","","","","","","0","complex_dissimilar","images/stimuli/complex_05_A_a.gif","",""
"","html-keyboard-response","15","95628","0.0-11.0-0.2","SS1627326995707","","null","","","null","","","","","","","","","","","<p><img src= images/blank.png width =""600"" height = ""600"" style=""position:fixed;top:50%; left:50%; transform: translate(-50%, -50%); border:5px solid black"">","","","","",""
"","stimuli-presentation","16","98573","0.0-11.0-1.2","SS1627326995707","","2441.300000000745","trial","","40","500","2941.300000000745","images/stimuli/complex_23_A_a.gif","images/stimuli/complex_05_A_a.gif","forced_short","260","","","","","","0","complex_dissimilar","images/stimuli/complex_05_A_a.gif","",""
"","html-keyboard-response","17","99452","0.0-11.0-0.3","SS1627326995707","","null","","","null","","","","","","","","","","","<p><img src= images/blank.png width =""600"" height = ""600"" style=""position:fixed;top:50%; left:50%; transform: translate(-50%, -50%); border:5px solid black"">","","","","",""
"","stimuli-presentation","18","101720","0.0-11.0-1.3","SS1627326995707","","1762.9000000022352","trial","","40","500","2262.900000002235","images/stimuli/complex_23_A_a.gif","images/stimuli/complex_05_A_a.gif","forced_short","260","","","","","","0","complex_dissimilar","images/stimuli/complex_05_A_a.gif","",""
"","html-keyboard-response","19","102565","0.0-11.0-0.4","SS1627326995707","","null","","","null","","","","","","","","","","","<p><img src= images/blank.png width =""600"" height = ""600"" style=""position:fixed;top:50%; left:50%; transform: translate(-50%, -50%); border:5px solid black"">","","","","",""
"","stimuli-presentation","20","105565","0.0-11.0-1.4","SS1627326995707","","2485.699999999255","trial","","40","500","2985.699999999255","images/stimuli/complex_23_A_a.gif","images/stimuli/complex_05_A_a.gif","forced_short","260","","","","","","0","complex_dissimilar","images/stimuli/complex_23_A_a.gif","",""
"","html-keyboard-response","21","106479","0.0-11.0-0.5","SS1627326995707","","null","","","null","","","","","","","","","","","<p><img src= images/blank.png width =""600"" height = ""600"" style=""position:fixed;top:50%; left:50%; transform: translate(-50%, -50%); border:5px solid black"">","","","","",""
"","stimuli-presentation","22","107353","0.0-11.0-1.5","SS1627326995707","","371.5","trial","","40","500","871.5","images/stimuli/complex_23_A_a.gif","images/stimuli/complex_05_A_a.gif","forced_short","260","","","","","","0","complex_dissimilar","images/stimuli/complex_05_A_a.gif","",""
"","html-keyboard-response","23","108386","0.0-11.0-0.6","SS1627326995707","","null","","","null","","","","","","","","","","","<p><img src= images/blank.png width =""600"" height = ""600"" style=""position:fixed;top:50%; left:50%; transform: translate(-50%, -50%); border:5px solid black"">","","","","",""
"","stimuli-presentation","24","111087","0.0-11.0-1.6","SS1627326995707","","2198.199999999255","trial","","40","500","2698.199999999255","images/stimuli/complex_23_A_a.gif","images/stimuli/complex_05_A_a.gif","forced_short","260","","","","","","0","complex_dissimilar","images/stimuli/complex_23_A_a.gif","",""
"","survey-multi-choice","25","113118","0.0-12.0","SS1627326995707","","2027.8999999985099","memory_test","","","","","","","","","{""Q0"":""No""}","[0]","images/stimuli/complex_14_A_a.gif","0","","","","","",""
"","survey-multi-choice","26","114591","0.0-13.0","SS1627326995707","","1472.1000000014901","memory_test","","","","","","","","","{""Q0"":""Yes""}","[0]","images/stimuli/complex_05_A_a.gif","0","","","","","",""
"","html-keyboard-response","27","115824","0.0-14.0-0.0","SS1627326995707","","null","","","null","","","","","","","","","","","<p><img src= images/blank.png width =""600"" height = ""600"" style=""position:fixed;top:50%; left:50%; transform: translate(-50%, -50%); border:5px solid black"">","","","","",""
"","stimuli-presentation","28","117959","0.0-14.0-1.0","SS1627326995707","","2021.199999999255","trial","","40","500","2521.199999999255","images/stimuli/complex_08_A_b.gif","images/stimuli/complex_17_A_b.gif","forced_short","110","","","","","","1","complex_dissimilar","images/stimuli/complex_17_A_b.gif","",""
"","html-keyboard-response","29","119160","0.0-14.0-0.1","SS1627326995707","","null","","","null","","","","","","","","","","","<p><img src= images/blank.png width =""600"" height = ""600"" style=""position:fixed;top:50%; left:50%; transform: translate(-50%, -50%); border:5px solid black"">","","","","",""
"","stimuli-presentation","30","121462","0.0-14.0-1.1","SS1627326995707","","1797","trial","","40","500","2297","images/stimuli/complex_08_A_b.gif","images/stimuli/complex_17_A_b.gif","forced_short","110","","","","","","1","complex_dissimilar","images/stimuli/complex_17_A_b.gif","",""
"","html-keyboard-response","31","122488","0.0-14.0-0.2","SS1627326995707","","null","","","null","","","","","","","","","","","<p><img src= images/blank.png width =""600"" height = ""600"" style=""position:fixed;top:50%; left:50%; transform: translate(-50%, -50%); border:5px solid black"">","","","","",""
"","stimuli-presentation","32","123358","0.0-14.0-1.2","SS1627326995707","","365.9000000022352","trial","","40","500","865.9000000022352","images/stimuli/complex_08_A_b.gif","images/stimuli/complex_17_A_b.gif","forced_short","110","","","","","","1","complex_dissimilar","images/stimuli/complex_17_A_b.gif","",""
"","html-keyboard-response","33","124587","0.0-14.0-0.3","SS1627326995707","","null","","","null","","","","","","","","","","","<p><img src= images/blank.png width =""600"" height = ""600"" style=""position:fixed;top:50%; left:50%; transform: translate(-50%, -50%); border:5px solid black"">","","","","",""
"","stimuli-presentation","34","127173","0.0-14.0-1.3","SS1627326995707","","2082.10000000149","trial","","40","500","2582.10000000149","images/stimuli/complex_08_A_b.gif","images/stimuli/complex_17_A_b.gif","forced_short","110","","","","","","1","complex_dissimilar","images/stimuli/complex_17_A_b.gif","",""
"","html-keyboard-response","35","128255","0.0-14.0-0.4","SS1627326995707","","null","","","null","","","","","","","","","","","<p><img src= images/blank.png width =""600"" height = ""600"" style=""position:fixed;top:50%; left:50%; transform: translate(-50%, -50%); border:5px solid black"">","","","","",""
"","stimuli-presentation","36","129518","0.0-14.0-1.4","SS1627326995707","","757.3999999985099","trial","","40","500","1257.3999999985099","images/stimuli/complex_08_A_b.gif","images/stimuli/complex_17_A_b.gif","forced_short","110","","","","","","1","complex_dissimilar","images/stimuli/complex_17_A_b.gif","",""
"","html-keyboard-response","37","130654","0.0-14.0-0.5","SS1627326995707","","null","","","null","","","","","","","","","","","<p><img src= images/blank.png width =""600"" height = ""600"" style=""position:fixed;top:50%; left:50%; transform: translate(-50%, -50%); border:5px solid black"">","","","","",""
"","stimuli-presentation","38","132036","0.0-14.0-1.5","SS1627326995707","","880.3000000007451","trial","","40","500","1380.300000000745","images/stimuli/complex_08_A_b.gif","images/stimuli/complex_17_A_b.gif","forced_short","110","","","","","","1","complex_dissimilar","images/stimuli/complex_17_A_b.gif","",""
"","html-keyboard-response","39","132912","0.0-14.0-0.6","SS1627326995707","","null","","","null","","","","","","","","","","","<p><img src= images/blank.png width =""600"" height = ""600"" style=""position:fixed;top:50%; left:50%; transform: translate(-50%, -50%); border:5px solid black"">","","","","",""
"","stimuli-presentation","40","135125","0.0-14.0-1.6","SS1627326995707","","1711.199999999255","trial","","40","500","2211.199999999255","images/stimuli/complex_08_A_b.gif","images/stimuli/complex_17_A_b.gif","forced_short","110","","","","","","1","complex_dissimilar","images/stimuli/complex_08_A_b.gif","",""
"","survey-multi-choice","41","136840","0.0-15.0","SS1627326995707","","1711.3999999985099","memory_test","","","","","","","","","{""Q0"":""Yes""}","[0]","images/stimuli/complex_08_A_b.gif","1","","","","","",""
"","survey-multi-choice","42","138844","0.0-16.0","SS1627326995707","","2002.800000000745","memory_test","","","","","","","","","{""Q0"":""No""}","[0]","images/stimuli/complex_19_A_b.gif","1","","","","","",""
"","html-keyboard-response","43","140148","0.0-17.0-0.0","SS1627326995707","","null","","","null","","","","","","","","","","","<p><img src= images/blank.png width =""600"" height = ""600"" style=""position:fixed;top:50%; left:50%; transform: translate(-50%, -50%); border:5px solid black"">","","","","",""
"","stimuli-presentation","44","142302","0.0-17.0-1.0","SS1627326995707","","1528.5","trial","","40","500","2028.5","images/stimuli/complex_16_A_a.gif","images/stimuli/complex_13_A_a.gif","forced_short","620","","","","","","2","complex_dissimilar","images/stimuli/complex_13_A_a.gif","",""
"","html-keyboard-response","45","143308","0.0-17.0-0.1","SS1627326995707","","null","","","null","","","","","","","","","","","<p><img src= images/blank.png width =""600"" height = ""600"" style=""position:fixed;top:50%; left:50%; transform: translate(-50%, -50%); border:5px solid black"">","","","","",""
"","stimuli-presentation","46","145262","0.0-17.0-1.1","SS1627326995707","","1448.199999999255","trial","","40","500","1948.199999999255","images/stimuli/complex_16_A_a.gif","images/stimuli/complex_13_A_a.gif","forced_short","620","","","","","","2","complex_dissimilar","images/stimuli/complex_13_A_a.gif","",""
"","html-keyboard-response","47","146116","0.0-17.0-0.2","SS1627326995707","","null","","","null","","","","","","","","","","","<p><img src= images/blank.png width =""600"" height = ""600"" style=""position:fixed;top:50%; left:50%; transform: translate(-50%, -50%); border:5px solid black"">","","","","",""
"","stimuli-presentation","48","147694","0.0-17.0-1.2","SS1627326995707","","1061.2999999970198","trial","","40","500","1561.2999999970198","images/stimuli/complex_16_A_a.gif","images/stimuli/complex_13_A_a.gif","forced_short","620","","","","","","2","complex_dissimilar","images/stimuli/complex_13_A_a.gif","",""
"","html-keyboard-response","49","148881","0.0-17.0-0.3","SS1627326995707","","null","","","null","","","","","","","","","","","<p><img src= images/blank.png width =""600"" height = ""600"" style=""position:fixed;top:50%; left:50%; transform: translate(-50%, -50%); border:5px solid black"">","","","","",""
"","stimuli-presentation","50","153285","0.0-17.0-1.3","SS1627326995707","","3886.599999997765","trial","","40","500","4386.599999997765","images/stimuli/complex_16_A_a.gif","images/stimuli/complex_13_A_a.gif","forced_short","620","","","","","","2","complex_dissimilar","images/stimuli/complex_16_A_a.gif","",""
"","html-keyboard-response","51","154178","0.0-17.0-0.4","SS1627326995707","","null","","","null","","","","","","","","","","","<p><img src= images/blank.png width =""600"" height = ""600"" style=""position:fixed;top:50%; left:50%; transform: translate(-50%, -50%); border:5px solid black"">","","","","",""
"","stimuli-presentation","52","155566","0.0-17.0-1.4","SS1627326995707","","870.8999999985099","trial","","40","500","1370.8999999985099","images/stimuli/complex_16_A_a.gif","images/stimuli/complex_13_A_a.gif","forced_short","620","","","","","","2","complex_dissimilar","images/stimuli/complex_13_A_a.gif","",""
"","html-keyboard-response","53","156711","0.0-17.0-0.5","SS1627326995707","","null","","","null","","","","","","","","","","","<p><img src= images/blank.png width =""600"" height = ""600"" style=""position:fixed;top:50%; left:50%; transform: translate(-50%, -50%); border:5px solid black"">","","","","",""
"","stimuli-presentation","54","158248","0.0-17.0-1.5","SS1627326995707","","1032.7000000029802","trial","","40","500","1532.7000000029802","images/stimuli/complex_16_A_a.gif","images/stimuli/complex_13_A_a.gif","forced_short","620","","","","","","2","complex_dissimilar","images/stimuli/complex_13_A_a.gif","",""
"","html-keyboard-response","55","159534","0.0-17.0-0.6","SS1627326995707","","null","","","null","","","","","","","","","","","<p><img src= images/blank.png width =""600"" height = ""600"" style=""position:fixed;top:50%; left:50%; transform: translate(-50%, -50%); border:5px solid black"">","","","","",""
"","stimuli-presentation","56","160382","0.0-17.0-1.6","SS1627326995707","","342","trial","","40","500","842","images/stimuli/complex_16_A_a.gif","images/stimuli/complex_13_A_a.gif","forced_short","620","","","","","","2","complex_dissimilar","images/stimuli/complex_13_A_a.gif","",""
"","html-keyboard-response","57","161219","0.0-17.0-0.7","SS1627326995707","","null","","","null","","","","","","","","","","","<p><img src= images/blank.png width =""600"" height = ""600"" style=""position:fixed;top:50%; left:50%; transform: translate(-50%, -50%); border:5px solid black"">","","","","",""
"","stimuli-presentation","58","162213","0.0-17.0-1.7","SS1627326995707","","489.1000000014901","trial","","40","500","989.1000000014901","images/stimuli/complex_16_A_a.gif","images/stimuli/complex_13_A_a.gif","forced_short","620","","","","","","2","complex_dissimilar","images/stimuli/complex_16_A_a.gif","",""
"","survey-multi-choice","59","163919","0.0-18.0","SS1627326995707","","1700.9000000022352","memory_test","","","","","","","","","{""Q0"":""No""}","[0]","images/stimuli/complex_22_A_a.gif","2","","","","","",""
"","survey-multi-choice","60","165573","0.0-19.0","SS1627326995707","","1651.5","memory_test","","","","","","","","","{""Q0"":""Yes""}","[0]","images/stimuli/complex_16_A_a.gif","2","","","","","",""
"","html-keyboard-response","61","166474","0.0-20.0-0.0","SS1627326995707","","null","","","null","","","","","","","","","","","<p><img src= images/blank.png width =""600"" height = ""600"" style=""position:fixed;top:50%; left:50%; transform: translate(-50%, -50%); border:5px solid black"">","","","","",""
"","stimuli-presentation","62","168174","0.0-20.0-1.0","SS1627326995707","","1386.699999999255","trial","","40","500","1886.699999999255","images/stimuli/complex_11_A_b.gif","images/stimuli/complex_06_A_a.gif","forced_short","310","","","","","","3","complex_dissimilar","images/stimuli/complex_06_A_a.gif","",""
"","html-keyboard-response","63","169268","0.0-20.0-0.1","SS1627326995707","","null","","","null","","","","","","","","","","","<p><img src= images/blank.png width =""600"" height = ""600"" style=""position:fixed;top:50%; left:50%; transform: translate(-50%, -50%); border:5px solid black"">","","","","",""
"","stimuli-presentation","64","171100","0.0-20.0-1.1","SS1627326995707","","1326.5","trial","","40","500","1826.5","images/stimuli/complex_11_A_b.gif","images/stimuli/complex_06_A_a.gif","forced_short","310","","","","","","3","complex_dissimilar","images/stimuli/complex_06_A_a.gif","",""
"","html-keyboard-response","65","172228","0.0-20.0-0.2","SS1627326995707","","null","","","null","","","","","","","","","","","<p><img src= images/blank.png width =""600"" height = ""600"" style=""position:fixed;top:50%; left:50%; transform: translate(-50%, -50%); border:5px solid black"">","","","","",""
"","stimuli-presentation","66","173469","0.0-20.0-1.2","SS1627326995707","","732.1999999992549","trial","","40","500","1232.199999999255","images/stimuli/complex_11_A_b.gif","images/stimuli/complex_06_A_a.gif","forced_short","310","","","","","","3","complex_dissimilar","images/stimuli/complex_06_A_a.gif","",""
"","html-keyboard-response","67","174749","0.0-20.0-0.3","SS1627326995707","","null","","","null","","","","","","","","","","","<p><img src= images/blank.png width =""600"" height = ""600"" style=""position:fixed;top:50%; left:50%; transform: translate(-50%, -50%); border:5px solid black"">","","","","",""
"","stimuli-presentation","68","179030","0.0-20.0-1.3","SS1627326995707","","3776.60000000149","trial","","40","500","4276.60000000149","images/stimuli/complex_11_A_b.gif","images/stimuli/complex_06_A_a.gif","forced_short","310","","","","","","3","complex_dissimilar","images/stimuli/complex_06_A_a.gif","",""
"","html-keyboard-response","69","180175","0.0-20.0-0.4","SS1627326995707","","null","","","null","","","","","","","","","","","<p><img src= images/blank.png width =""600"" height = ""600"" style=""position:fixed;top:50%; left:50%; transform: translate(-50%, -50%); border:5px solid black"">","","","","",""
"","stimuli-presentation","70","180981","0.0-20.0-1.4","SS1627326995707","","290.3999999985099","trial","","40","500","790.3999999985099","images/stimuli/complex_11_A_b.gif","images/stimuli/complex_06_A_a.gif","forced_short","310","","","","","","3","complex_dissimilar","images/stimuli/complex_06_A_a.gif","",""
"","html-keyboard-response","71","181931","0.0-20.0-0.5","SS1627326995707","","null","","","null","","","","","","","","","","","<p><img src= images/blank.png width =""600"" height = ""600"" style=""position:fixed;top:50%; left:50%; transform: translate(-50%, -50%); border:5px solid black"">","","","","",""
"","stimuli-presentation","72","184813","0.0-20.0-1.5","SS1627326995707","","2376.60000000149","trial","","40","500","2876.60000000149","images/stimuli/complex_11_A_b.gif","images/stimuli/complex_06_A_a.gif","forced_short","310","","","","","","3","complex_dissimilar","images/stimuli/complex_11_A_b.gif","",""
"","html-keyboard-response","73","186075","0.0-20.0-0.6","SS1627326995707","","null","","","null","","","","","","","","","","","<p><img src= images/blank.png width =""600"" height = ""600"" style=""position:fixed;top:50%; left:50%; transform: translate(-50%, -50%); border:5px solid black"">","","","","",""
"","stimuli-presentation","74","186951","0.0-20.0-1.6","SS1627326995707","","373.3999999985099","trial","","40","500","873.3999999985099","images/stimuli/complex_11_A_b.gif","images/stimuli/complex_06_A_a.gif","forced_short","310","","","","","","3","complex_dissimilar","images/stimuli/complex_11_A_b.gif","",""
"","survey-multi-choice","75","188694","0.0-21.0","SS1627326995707","","1740.8999999985099","memory_test","","","","","","","","","{""Q0"":""Yes""}","[0]","images/stimuli/complex_06_A_a.gif","3","","","","","",""
"","survey-multi-choice","76","192126","0.0-22.0","SS1627326995707","","3430","memory_test","","","","","","","","","{""Q0"":""No""}","[0]","images/stimuli/complex_01_A_a.gif","3","","","","","",""
"","html-keyboard-response","77","193250","0.0-23.0-0.0","SS1627326995707","","null","","","null","","","","","","","","","","","<p><img src= images/blank.png width =""600"" height = ""600"" style=""position:fixed;top:50%; left:50%; transform: translate(-50%, -50%); border:5px solid black"">","","","","",""
"","stimuli-presentation","78","195597","0.0-23.0-1.0","SS1627326995707","","1700.0999999977648","trial","","40","500","2200.099999997765","images/stimuli/complex_10_A_b.gif","images/stimuli/complex_07_A_b.gif","forced_short","640","","","","","","4","complex_dissimilar","images/stimuli/complex_07_A_b.gif","",""
"","html-keyboard-response","79","196826","0.0-23.0-0.1","SS1627326995707","","null","","","null","","","","","","","","","","","<p><img src= images/blank.png width =""600"" height = ""600"" style=""position:fixed;top:50%; left:50%; transform: translate(-50%, -50%); border:5px solid black"">","","","","",""
"","stimuli-presentation","80","198916","0.0-23.0-1.1","SS1627326995707","","1586.1000000014901","trial","","40","500","2086.10000000149","images/stimuli/complex_10_A_b.gif","images/stimuli/complex_07_A_b.gif","forced_short","640","","","","","","4","complex_dissimilar","images/stimuli/complex_07_A_b.gif","",""
"","html-keyboard-response","81","200127","0.0-23.0-0.2","SS1627326995707","","null","","","null","","","","","","","","","","","<p><img src= images/blank.png width =""600"" height = ""600"" style=""position:fixed;top:50%; left:50%; transform: translate(-50%, -50%); border:5px solid black"">","","","","",""
"","stimuli-presentation","82","201957","0.0-23.0-1.2","SS1627326995707","","1322.699999999255","trial","","40","500","1822.699999999255","images/stimuli/complex_10_A_b.gif","images/stimuli/complex_07_A_b.gif","forced_short","640","","","","","","4","complex_dissimilar","images/stimuli/complex_07_A_b.gif","",""
"","html-keyboard-response","83","203000","0.0-23.0-0.3","SS1627326995707","","null","","","null","","","","","","","","","","","<p><img src= images/blank.png width =""600"" height = ""600"" style=""position:fixed;top:50%; left:50%; transform: translate(-50%, -50%); border:5px solid black"">","","","","",""
"","stimuli-presentation","84","203668","0.0-23.0-1.3","SS1627326995707","","164","trial","","40","500","664","images/stimuli/complex_10_A_b.gif","images/stimuli/complex_07_A_b.gif","forced_short","640","","","","","","4","complex_dissimilar","images/stimuli/complex_07_A_b.gif","",""
"","html-keyboard-response","85","204522","0.0-23.0-0.4","SS1627326995707","","null","","","null","","","","","","","","","","","<p><img src= images/blank.png width =""600"" height = ""600"" style=""position:fixed;top:50%; left:50%; transform: translate(-50%, -50%); border:5px solid black"">","","","","",""
"","stimuli-presentation","86","205068","0.0-23.0-1.4","SS1627326995707","","43.600000001490116","trial","","40","500","543.6000000014901","images/stimuli/complex_10_A_b.gif","images/stimuli/complex_07_A_b.gif","forced_short","640","","","","","","4","complex_dissimilar","images/stimuli/complex_07_A_b.gif","",""
"","html-keyboard-response","87","205921","0.0-23.0-0.5","SS1627326995707","","null","","","null","","","","","","","","","","","<p><img src= images/blank.png width =""600"" height = ""600"" style=""position:fixed;top:50%; left:50%; transform: translate(-50%, -50%); border:5px solid black"">","","","","",""
"","stimuli-presentation","88","207757","0.0-23.0-1.5","SS1627326995707","","1330.300000000745","trial","","40","500","1830.300000000745","images/stimuli/complex_10_A_b.gif","images/stimuli/complex_07_A_b.gif","forced_short","640","","","","","","4","complex_dissimilar","images/stimuli/complex_07_A_b.gif","",""
"","survey-multi-choice","89","210009","0.0-24.0","SS1627326995707","","2246.60000000149","memory_test","","","","","","","","","{""Q0"":""Yes""}","[0]","images/stimuli/complex_07_A_b.gif","4","","","","","",""
"","survey-multi-choice","90","211834","0.0-25.0","SS1627326995707","","1823.3999999985099","memory_test","","","","","","","","","{""Q0"":""No""}","[0]","images/stimuli/complex_04_A_a.gif","4","","","","","",""
"","html-keyboard-response","91","212716","0.0-26.0-0.0","SS1627326995707","","null","","","null","","","","","","","","","","","<p><img src= images/blank.png width =""600"" height = ""600"" style=""position:fixed;top:50%; left:50%; transform: translate(-50%, -50%); border:5px solid black"">","","","","",""
"","stimuli-presentation","92","214757","0.0-26.0-1.0","SS1627326995707","","1963.699999999255","trial","","40","500","2463.699999999255","images/stimuli/complex_21_A_a.gif","images/stimuli/complex_20_A_a.gif","forced_short","70","","","","","","5","complex_dissimilar","images/stimuli/complex_20_A_a.gif","",""
"","html-keyboard-response","93","215787","0.0-26.0-0.1","SS1627326995707","","null","","","null","","","","","","","","","","","<p><img src= images/blank.png width =""600"" height = ""600"" style=""position:fixed;top:50%; left:50%; transform: translate(-50%, -50%); border:5px solid black"">","","","","",""
"","stimuli-presentation","94","218612","0.0-26.0-1.1","SS1627326995707","","2319.10000000149","trial","","40","500","2819.10000000149","images/stimuli/complex_21_A_a.gif","images/stimuli/complex_20_A_a.gif","forced_short","70","","","","","","5","complex_dissimilar","images/stimuli/complex_20_A_a.gif","",""
"","html-keyboard-response","95","219904","0.0-26.0-0.2","SS1627326995707","","null","","","null","","","","","","","","","","","<p><img src= images/blank.png width =""600"" height = ""600"" style=""position:fixed;top:50%; left:50%; transform: translate(-50%, -50%); border:5px solid black"">","","","","",""
"","stimuli-presentation","96","220756","0.0-26.0-1.2","SS1627326995707","","346","trial","","40","500","846","images/stimuli/complex_21_A_a.gif","images/stimuli/complex_20_A_a.gif","forced_short","70","","","","","","5","complex_dissimilar","images/stimuli/complex_20_A_a.gif","",""
"","html-keyboard-response","97","221657","0.0-26.0-0.3","SS1627326995707","","null","","","null","","","","","","","","","","","<p><img src= images/blank.png width =""600"" height = ""600"" style=""position:fixed;top:50%; left:50%; transform: translate(-50%, -50%); border:5px solid black"">","","","","",""
"","stimuli-presentation","98","222708","0.0-26.0-1.3","SS1627326995707","","535.8000000007451","trial","","40","500","1035.800000000745","images/stimuli/complex_21_A_a.gif","images/stimuli/complex_20_A_a.gif","forced_short","70","","","","","","5","complex_dissimilar","images/stimuli/complex_20_A_a.gif","",""
"","html-keyboard-response","99","223555","0.0-26.0-0.4","SS1627326995707","","null","","","null","","","","","","","","","","","<p><img src= images/blank.png width =""600"" height = ""600"" style=""position:fixed;top:50%; left:50%; transform: translate(-50%, -50%); border:5px solid black"">","","","","",""
"","stimuli-presentation","100","225164","0.0-26.0-1.4","SS1627326995707","","1103.6000000014901","trial","","40","500","1603.6000000014901","images/stimuli/complex_21_A_a.gif","images/stimuli/complex_20_A_a.gif","forced_short","70","","","","","","5","complex_dissimilar","images/stimuli/complex_20_A_a.gif","",""
"","html-keyboard-response","101","226251","0.0-26.0-0.5","SS1627326995707","","null","","","null","","","","","","","","","","","<p><img src= images/blank.png width =""600"" height = ""600"" style=""position:fixed;top:50%; left:50%; transform: translate(-50%, -50%); border:5px solid black"">","","","","",""
"","stimuli-presentation","102","227469","0.0-26.0-1.5","SS1627326995707","","711.8999999985099","trial","","40","500","1211.8999999985099","images/stimuli/complex_21_A_a.gif","images/stimuli/complex_20_A_a.gif","forced_short","70","","","","","","5","complex_dissimilar","images/stimuli/complex_20_A_a.gif","",""
"","html-keyboard-response","103","228558","0.0-26.0-0.6","SS1627326995707","","null","","","null","","","","","","","","","","","<p><img src= images/blank.png width =""600"" height = ""600"" style=""position:fixed;top:50%; left:50%; transform: translate(-50%, -50%); border:5px solid black"">","","","","",""
"","stimuli-presentation","104","229941","0.0-26.0-1.6","SS1627326995707","","876.8000000007451","trial","","40","500","1376.800000000745","images/stimuli/complex_21_A_a.gif","images/stimuli/complex_20_A_a.gif","forced_short","70","","","","","","5","complex_dissimilar","images/stimuli/complex_20_A_a.gif","",""
"","html-keyboard-response","105","231021","0.0-26.0-0.7","SS1627326995707","","null","","","null","","","","","","","","","","","<p><img src= images/blank.png width =""600"" height = ""600"" style=""position:fixed;top:50%; left:50%; transform: translate(-50%, -50%); border:5px solid black"">","","","","",""
"","stimuli-presentation","106","232493","0.0-26.0-1.7","SS1627326995707","","952.4000000022352","trial","","40","500","1452.4000000022352","images/stimuli/complex_21_A_a.gif","images/stimuli/complex_20_A_a.gif","forced_short","70","","","","","","5","complex_dissimilar","images/stimuli/complex_20_A_a.gif","",""
"","survey-multi-choice","107","234042","0.0-27.0","SS1627326995707","","1543.1000000014901","memory_test","","","","","","","","","{""Q0"":""Yes""}","[0]","images/stimuli/complex_20_A_a.gif","5","","","","","",""
"","survey-multi-choice","108","235922","0.0-28.0","SS1627326995707","","1877.800000000745","memory_test","","","","","","","","","{""Q0"":""No""}","[0]","images/stimuli/complex_15_A_b.gif","5","","","","","",""
"","html-keyboard-response","109","237118","0.0-29.0-0.0","SS1627326995707","","null","","","null","","","","","","","","","","","<p><img src= images/blank.png width =""600"" height = ""600"" style=""position:fixed;top:50%; left:50%; transform: translate(-50%, -50%); border:5px solid black"">","","","","",""
"","stimuli-presentation","110","239012","0.0-29.0-1.0","SS1627326995707","","1547.199999999255","trial","","40","500","2047.199999999255","images/stimuli/complex_12_A_b.gif","images/stimuli/complex_18_A_a.gif","forced_short","340","","","","","","6","complex_dissimilar","images/stimuli/complex_18_A_a.gif","",""
"","html-keyboard-response","111","240283","0.0-29.0-0.1","SS1627326995707","","null","","","null","","","","","","","","","","","<p><img src= images/blank.png width =""600"" height = ""600"" style=""position:fixed;top:50%; left:50%; transform: translate(-50%, -50%); border:5px solid black"">","","","","",""
"","stimuli-presentation","112","242614","0.0-29.0-1.1","SS1627326995707","","1823.7999999970198","trial","","40","500","2323.7999999970198","images/stimuli/complex_12_A_b.gif","images/stimuli/complex_18_A_a.gif","forced_short","340","","","","","","6","complex_dissimilar","images/stimuli/complex_18_A_a.gif","",""
"","html-keyboard-response","113","243605","0.0-29.0-0.2","SS1627326995707","","null","","","null","","","","","","","","","","","<p><img src= images/blank.png width =""600"" height = ""600"" style=""position:fixed;top:50%; left:50%; transform: translate(-50%, -50%); border:5px solid black"">","","","","",""
"","stimuli-presentation","114","245260","0.0-29.0-1.2","SS1627326995707","","1139.699999999255","trial","","40","500","1639.699999999255","images/stimuli/complex_12_A_b.gif","images/stimuli/complex_18_A_a.gif","forced_short","340","","","","","","6","complex_dissimilar","images/stimuli/complex_18_A_a.gif","",""
"","html-keyboard-response","115","246413","0.0-29.0-0.3","SS1627326995707","","null","","","null","","","","","","","","","","","<p><img src= images/blank.png width =""600"" height = ""600"" style=""position:fixed;top:50%; left:50%; transform: translate(-50%, -50%); border:5px solid black"">","","","","",""
"","stimuli-presentation","116","247999","0.0-29.0-1.3","SS1627326995707","","1078.9000000022352","trial","","40","500","1578.9000000022352","images/stimuli/complex_12_A_b.gif","images/stimuli/complex_18_A_a.gif","forced_short","340","","","","","","6","complex_dissimilar","images/stimuli/complex_18_A_a.gif","",""
"","html-keyboard-response","117","248811","0.0-29.0-0.4","SS1627326995707","","null","","","null","","","","","","","","","","","<p><img src= images/blank.png width =""600"" height = ""600"" style=""position:fixed;top:50%; left:50%; transform: translate(-50%, -50%); border:5px solid black"">","","","","",""
"","stimuli-presentation","118","250509","0.0-29.0-1.4","SS1627326995707","","1188.800000000745","trial","","40","500","1688.800000000745","images/stimuli/complex_12_A_b.gif","images/stimuli/complex_18_A_a.gif","forced_short","340","","","","","","6","complex_dissimilar","images/stimuli/complex_18_A_a.gif","",""
"","html-keyboard-response","119","251478","0.0-29.0-0.5","SS1627326995707","","null","","","null","","","","","","","","","","","<p><img src= images/blank.png width =""600"" height = ""600"" style=""position:fixed;top:50%; left:50%; transform: translate(-50%, -50%); border:5px solid black"">","","","","",""
"","stimuli-presentation","120","252988","0.0-29.0-1.5","SS1627326995707","","1003.7999999970198","trial","","40","500","1503.7999999970198","images/stimuli/complex_12_A_b.gif","images/stimuli/complex_18_A_a.gif","forced_short","340","","","","","","6","complex_dissimilar","images/stimuli/complex_18_A_a.gif","",""
"","html-keyboard-response","121","253921","0.0-29.0-0.6","SS1627326995707","","null","","","null","","","","","","","","","","","<p><img src= images/blank.png width =""600"" height = ""600"" style=""position:fixed;top:50%; left:50%; transform: translate(-50%, -50%); border:5px solid black"">","","","","",""
"","stimuli-presentation","122","255532","0.0-29.0-1.6","SS1627326995707","","1104.300000000745","trial","","40","500","1604.300000000745","images/stimuli/complex_12_A_b.gif","images/stimuli/complex_18_A_a.gif","forced_short","340","","","","","","6","complex_dissimilar","images/stimuli/complex_18_A_a.gif","",""
"","survey-multi-choice","123","256990","0.0-30.0","SS1627326995707","","1454.8999999985099","memory_test","","","","","","","","","{""Q0"":""Yes""}","[0]","images/stimuli/complex_18_A_a.gif","6","","","","","",""
"","survey-multi-choice","124","258888","0.0-31.0","SS1627326995707","","1895.4000000022352","memory_test","","","","","","","","","{""Q0"":""No""}","[0]","images/stimuli/complex_02_A_a.gif","6","","","","","",""
"","html-keyboard-response","125","260021","0.0-32.0-0.0","SS1627326995707","","null","","","null","","","","","","","","","","","<p><img src= images/blank.png width =""600"" height = ""600"" style=""position:fixed;top:50%; left:50%; transform: translate(-50%, -50%); border:5px solid black"">","","","","",""
"","stimuli-presentation","126","261468","0.0-32.0-1.0","SS1627326995707","","960.9000000022352","trial","","40","500","1460.9000000022352","images/stimuli/complex_03_A_a.gif","images/stimuli/complex_09_A_a.gif","forced_short","480","","","","","","7","complex_dissimilar","images/stimuli/complex_09_A_a.gif","",""
"","html-keyboard-response","127","262281","0.0-32.0-0.1","SS1627326995707","","null","","","null","","","","","","","","","","","<p><img src= images/blank.png width =""600"" height = ""600"" style=""position:fixed;top:50%; left:50%; transform: translate(-50%, -50%); border:5px solid black"">","","","","",""
"","stimuli-presentation","128","264021","0.0-32.0-1.1","SS1627326995707","","1235.1000000014901","trial","","40","500","1735.1000000014901","images/stimuli/complex_03_A_a.gif","images/stimuli/complex_09_A_a.gif","forced_short","480","","","","","","7","complex_dissimilar","images/stimuli/complex_09_A_a.gif","",""
"","html-keyboard-response","129","264940","0.0-32.0-0.2","SS1627326995707","","null","","","null","","","","","","","","","","","<p><img src= images/blank.png width =""600"" height = ""600"" style=""position:fixed;top:50%; left:50%; transform: translate(-50%, -50%); border:5px solid black"">","","","","",""
"","stimuli-presentation","130","266575","0.0-32.0-1.2","SS1627326995707","","1132.699999999255","trial","","40","500","1632.699999999255","images/stimuli/complex_03_A_a.gif","images/stimuli/complex_09_A_a.gif","forced_short","480","","","","","","7","complex_dissimilar","images/stimuli/complex_09_A_a.gif","",""
"","html-keyboard-response","131","267436","0.0-32.0-0.3","SS1627326995707","","null","","","null","","","","","","","","","","","<p><img src= images/blank.png width =""600"" height = ""600"" style=""position:fixed;top:50%; left:50%; transform: translate(-50%, -50%); border:5px solid black"">","","","","",""
"","stimuli-presentation","132","269237","0.0-32.0-1.3","SS1627326995707","","1296.1000000014901","trial","","40","500","1796.1000000014901","images/stimuli/complex_03_A_a.gif","images/stimuli/complex_09_A_a.gif","forced_short","480","","","","","","7","complex_dissimilar","images/stimuli/complex_03_A_a.gif","",""
"","html-keyboard-response","133","270299","0.0-32.0-0.4","SS1627326995707","","null","","","null","","","","","","","","","","","<p><img src= images/blank.png width =""600"" height = ""600"" style=""position:fixed;top:50%; left:50%; transform: translate(-50%, -50%); border:5px solid black"">","","","","",""
"","stimuli-presentation","134","271693","0.0-32.0-1.4","SS1627326995707","","889.1999999992549","trial","","40","500","1389.199999999255","images/stimuli/complex_03_A_a.gif","images/stimuli/complex_09_A_a.gif","forced_short","480","","","","","","7","complex_dissimilar","images/stimuli/complex_09_A_a.gif","",""
"","html-keyboard-response","135","272676","0.0-32.0-0.5","SS1627326995707","","null","","","null","","","","","","","","","","","<p><img src= images/blank.png width =""600"" height = ""600"" style=""position:fixed;top:50%; left:50%; transform: translate(-50%, -50%); border:5px solid black"">","","","","",""
"","stimuli-presentation","136","274173","0.0-32.0-1.5","SS1627326995707","","990.8999999985099","trial","","40","500","1490.8999999985099","images/stimuli/complex_03_A_a.gif","images/stimuli/complex_09_A_a.gif","forced_short","480","","","","","","7","complex_dissimilar","images/stimuli/complex_03_A_a.gif","",""
"","html-keyboard-response","137","275383","0.0-32.0-0.6","SS1627326995707","","null","","","null","","","","","","","","","","","<p><img src= images/blank.png width =""600"" height = ""600"" style=""position:fixed;top:50%; left:50%; transform: translate(-50%, -50%); border:5px solid black"">","","","","",""
"","stimuli-presentation","138","276661","0.0-32.0-1.6","SS1627326995707","","774.4000000022352","trial","","40","500","1274.4000000022352","images/stimuli/complex_03_A_a.gif","images/stimuli/complex_09_A_a.gif","forced_short","480","","","","","","7","complex_dissimilar","images/stimuli/complex_09_A_a.gif","",""
"","html-keyboard-response","139","277516","0.0-32.0-0.7","SS1627326995707","","null","","","null","","","","","","","","","","","<p><img src= images/blank.png width =""600"" height = ""600"" style=""position:fixed;top:50%; left:50%; transform: translate(-50%, -50%); border:5px solid black"">","","","","",""
"","stimuli-presentation","140","278571","0.0-32.0-1.7","SS1627326995707","","552.8999999985099","trial","","40","500","1052.8999999985099","images/stimuli/complex_03_A_a.gif","images/stimuli/complex_09_A_a.gif","forced_short","480","","","","","","7","complex_dissimilar","images/stimuli/complex_09_A_a.gif","",""
"","survey-multi-choice","141","280634","0.0-33.0","SS1627326995707","","2060.599999997765","memory_test","","","","","","","","","{""Q0"":""No""}","[0]","images/stimuli/complex_24_A_a.gif","7","","","","","",""
"","survey-multi-choice","142","282138","0.0-34.0","SS1627326995707","","1500.4000000022352","memory_test","","","","","","","","","{""Q0"":""Yes""}","[0]","images/stimuli/complex_03_A_a.gif","7","","","","","",""
"","instructions","143","288106","0.0-35.0","SS1627326995707","[{""page_index"":0,""viewing_time"":5965.39999999851}]","5965.699999999255","instructions","","","","","","","","","","","","","","","","","",""
"","survey-likert","144","299087","0.0-36.0","SS1627326995707","","10977","similarity_question","","","","","","","","","{""Q0"":1}","[0]","","","","","","","images/stimuli/complex_21_A_a.gif","images/stimuli/complex_20_A_a.gif"
"","survey-likert","145","302780","0.0-37.0","SS1627326995707","","3689.7000000029802","similarity_question","","","","","","","","","{""Q0"":0}","[0]","","","","","","","images/stimuli/complex_06_A_a.gif","images/stimuli/complex_11_A_b.gif"
"","survey-likert","146","308698","0.0-38.0","SS1627326995707","","5915","similarity_question","","","","","","","","","{""Q0"":1}","[0]","","","","","","","images/stimuli/complex_18_A_a.gif","images/stimuli/complex_12_A_b.gif"
"","survey-likert","147","312452","0.0-39.0","SS1627326995707","","3751.60000000149","similarity_question","","","","","","","","","{""Q0"":4}","[0]","","","","","","","images/stimuli/complex_17_A_b.gif","images/stimuli/complex_08_A_b.gif"
"","survey-likert","148","317384","0.0-40.0","SS1627326995707","","4928.699999999255","similarity_question","","","","","","","","","{""Q0"":1}","[0]","","","","","","","images/stimuli/complex_16_A_a.gif","images/stimuli/complex_13_A_a.gif"
"","survey-likert","149","323400","0.0-41.0","SS1627326995707","","6013.29999999702","similarity_question","","","","","","","","","{""Q0"":2}","[0]","","","","","","","images/stimuli/complex_23_A_a.gif","images/stimuli/complex_05_A_a.gif"
"","survey-likert","150","332179","0.0-42.0","SS1627326995707","","8776","similarity_question","","","","","","","","","{""Q0"":3}","[0]","","","","","","","images/stimuli/complex_10_A_b.gif","images/stimuli/complex_07_A_b.gif"
"","survey-likert","151","336507","0.0-43.0","SS1627326995707","","4324.900000002235","similarity_question","","","","","","","","","{""Q0"":1}","[0]","","","","","","","images/stimuli/complex_09_A_a.gif","images/stimuli/complex_03_A_a.gif"
"","instructions","152","344454","0.0-44.0","SS1627326995707","[{""page_index"":0,""viewing_time"":7944.89999999851}]","7945.199999999255","instructions","","","","","","","","","","","","","","","","","",""
"","survey-likert","153","349083","0.0-45.0","SS1627326995707","","4625.800000000745","","","","","","","","","","{""Q0"":1}","[0]","","","images/stimuli/complex_05_A_a.gif","","","","",""
"","survey-likert","154","351434","0.0-46.0","SS1627326995707","","2348.7999999970198","","","","","","","","","","{""Q0"":4}","[0]","","","images/stimuli/complex_12_A_b.gif","","","","",""
"","survey-likert","155","355682","0.0-47.0","SS1627326995707","","4244.79999999702","","","","","","","","","","{""Q0"":1}","[0]","","","images/stimuli/complex_03_A_a.gif","","","","",""
"","survey-likert","156","359097","0.0-48.0","SS1627326995707","","3410.699999999255","","","","","","","","","","{""Q0"":2}","[0]","","","images/stimuli/complex_06_A_a.gif","","","","",""
"","survey-likert","157","361450","0.0-49.0","SS1627326995707","","2350.7999999970198","","","","","","","","","","{""Q0"":4}","[0]","","","images/stimuli/complex_16_A_a.gif","","","","",""
"","survey-likert","158","365782","0.0-50.0","SS1627326995707","","4328.800000000745","","","","","","","","","","{""Q0"":5}","[0]","","","images/stimuli/complex_20_A_a.gif","","","","",""
"","survey-likert","159","370228","0.0-51.0","SS1627326995707","","4442.29999999702","","","","","","","","","","{""Q0"":4}","[0]","","","images/stimuli/complex_08_A_b.gif","","","","",""
"","survey-likert","160","373734","0.0-52.0","SS1627326995707","","3502.400000002235","","","","","","","","","","{""Q0"":6}","[0]","","","images/stimuli/complex_07_A_b.gif","","","","",""
"true","fullscreen","161","374740","0.0-53.0","SS1627326995707","","","","","","","","","","","","","","","","","","","","",""
"","instructions","162","376643","0.0-54.0","SS1627326995707","[{""page_index"":0,""viewing_time"":1896.8999999985099}]","1897.300000000745","instructions","","","","","","","","","","","","","","","","","",""
"","demog-age","163","379528","0.0-55.0","SS1627326995707","","2880.300000000745","","","","","","","","","","{""age"":""23""}","","","","","","","","",""
"","demog-ethnic-US","164","381956","0.0-56.0","SS1627326995707","","2421.199999999255","","","","","","","","","","{""ethnicity"":[""White""]}","[0]","","","","","","","",""
"","demog-gender-and-education","165","387444","0.0-57.0","SS1627326995707","","5484.099999997765","","","","","","","","","","{""gender"":""Female"",""education"":""Bachelor's Degree""}","[0,1]","","","","","","","",""
"","survey-text","166","392646","0.0-58.0","SS1627326995707","","5197.199999999255","feedback","","","","","","","","","{""Q0"":""No""}","","","","","","","","",""
"","instructions","167","394014","0.0-59.0","SS1627326995707","[{""page_index"":0,""viewing_time"":1365.199999999255}]","1365.699999999255","instructions","","","","","","","","","","","","","","","","","",""
