"success","trial_type","trial_index","time_elapsed","internal_node_id","subject","view_history","rt","stimulus_type","trial_stimulus","key_press","minimum_viewing_duration","trial_looking_time","block_deviant","block_background","exposure_type","forced_exposure_time","responses","question_order","memory_question_stimuli","memory_block_index","stimulus","block_number","block_type","stimulus_displayed","stimulus_left","stimulus_right"
"true","fullscreen","0","4050","0.0-0.0","SS1627326946925","","","","","","","","","","","","","","","","","","","","",""
"","instructions","1","21271","0.0-1.0","SS1627326946925","[{""page_index"":0,""viewing_time"":17216.299999998882}]","17217.099999999627","","","","","","","","","","","","","","","","","","",""
"","instructions","2","41005","0.0-2.0","SS1627326946925","[{""page_index"":0,""viewing_time"":14161.5},{""page_index"":1,""viewing_time"":3563.2000000011176}]","17725","instructions","","","","","","","","","","","","","","","","","",""
"","stimuli-presentation","3","53748","0.0-3.0","SS1627326946925","","12234.599999999627","","","40","500","12734.599999999627","null","null","self_paced","0","","","","","","","","","",""
"","instructions","4","67793","0.0-4.0","SS1627326946925","[{""page_index"":0,""viewing_time"":14043.39999999851}]","14043.799999998882","instructions","","","","","","","","","","","","","","","","","",""
"","stimuli-presentation","5","72181","0.0-5.0","SS1627326946925","","3885.5","","","40","500","4385.5","null","null","forced_short","500","","","","","","","","","",""
"","stimuli-presentation","6","74587","0.0-6.0","SS1627326946925","","1901.2999999988824","","","40","500","2401.2999999988824","null","null","forced_short","500","","","","","","","","","",""
"","instructions","7","83241","0.0-7.0","SS1627326946925","[{""page_index"":0,""viewing_time"":8651.60000000149}]","8652","instructions","","","","","","","","","","","","","","","","","",""
"","survey-multi-choice","8","86682","0.0-8.0","SS1627326946925","","3438","memory_test_practice","","","","","","","","","{""Q0"":""Yes""}","[0]","images/practice/instructions_example_spore2.gif","0","","","","","",""
"","survey-multi-choice","9","89012","0.0-9.0","SS1627326946925","","2327.9000000003725","memory_test_practice","","","","","","","","","{""Q0"":""No""}","[0]","images/practice/instructions_example_spore0.gif","0","","","","","",""
"","instructions","10","116885","0.0-10.0","SS1627326946925","[{""page_index"":0,""viewing_time"":10576.700000001118},{""page_index"":1,""viewing_time"":17295.099999999627}]","27872.10000000149","instructions","","","","","","","","","","","","","","","","","",""
"","html-keyboard-response","11","118134","0.0-11.0-0.0","SS1627326946925","","null","","","null","","","","","","","","","","","<p><img src= images/blank.png width =""600"" height = ""600"" style=""position:fixed;top:50%; left:50%; transform: translate(-50%, -50%); border:5px solid black"">","","","","",""
"","stimuli-presentation","12","123989","0.0-11.0-1.0","SS1627326946925","","5524.9000000003725","trial","","40","500","6024.9000000003725","images/stimuli/complex_15_A_b.gif","images/stimuli/complex_13_A_b.gif","forced_short","320","","","","","","0","complex_dissimilar","images/stimuli/complex_13_A_b.gif","",""
"","html-keyboard-response","13","125288","0.0-11.0-0.1","SS1627326946925","","null","","","null","","","","","","","","","","","<p><img src= images/blank.png width =""600"" height = ""600"" style=""position:fixed;top:50%; left:50%; transform: translate(-50%, -50%); border:5px solid black"">","","","","",""
"","stimuli-presentation","14","135791","0.0-11.0-1.1","SS1627326946925","","9993","trial","","40","500","10493","images/stimuli/complex_15_A_b.gif","images/stimuli/complex_13_A_b.gif","forced_short","320","","","","","","0","complex_dissimilar","images/stimuli/complex_13_A_b.gif","",""
"","html-keyboard-response","15","136966","0.0-11.0-0.2","SS1627326946925","","null","","","null","","","","","","","","","","","<p><img src= images/blank.png width =""600"" height = ""600"" style=""position:fixed;top:50%; left:50%; transform: translate(-50%, -50%); border:5px solid black"">","","","","",""
"","stimuli-presentation","16","143486","0.0-11.0-1.2","SS1627326946925","","6003.300000000745","trial","","40","500","6503.300000000745","images/stimuli/complex_15_A_b.gif","images/stimuli/complex_13_A_b.gif","forced_short","320","","","","","","0","complex_dissimilar","images/stimuli/complex_13_A_b.gif","",""
"","html-keyboard-response","17","144683","0.0-11.0-0.3","SS1627326946925","","null","","","null","","","","","","","","","","","<p><img src= images/blank.png width =""600"" height = ""600"" style=""position:fixed;top:50%; left:50%; transform: translate(-50%, -50%); border:5px solid black"">","","","","",""
"","stimuli-presentation","18","153099","0.0-11.0-1.3","SS1627326946925","","7905.300000000745","trial","","40","500","8405.300000000745","images/stimuli/complex_15_A_b.gif","images/stimuli/complex_13_A_b.gif","forced_short","320","","","","","","0","complex_dissimilar","images/stimuli/complex_13_A_b.gif","",""
"","html-keyboard-response","19","154037","0.0-11.0-0.4","SS1627326946925","","null","","","null","","","","","","","","","","","<p><img src= images/blank.png width =""600"" height = ""600"" style=""position:fixed;top:50%; left:50%; transform: translate(-50%, -50%); border:5px solid black"">","","","","",""
"","stimuli-presentation","20","163029","0.0-11.0-1.4","SS1627326946925","","8482.5","trial","","40","500","8982.5","images/stimuli/complex_15_A_b.gif","images/stimuli/complex_13_A_b.gif","forced_short","320","","","","","","0","complex_dissimilar","images/stimuli/complex_13_A_b.gif","",""
"","html-keyboard-response","21","164247","0.0-11.0-0.5","SS1627326946925","","null","","","null","","","","","","","","","","","<p><img src= images/blank.png width =""600"" height = ""600"" style=""position:fixed;top:50%; left:50%; transform: translate(-50%, -50%); border:5px solid black"">","","","","",""
"","stimuli-presentation","22","171006","0.0-11.0-1.5","SS1627326946925","","6251.300000000745","trial","","40","500","6751.300000000745","images/stimuli/complex_15_A_b.gif","images/stimuli/complex_13_A_b.gif","forced_short","320","","","","","","0","complex_dissimilar","images/stimuli/complex_13_A_b.gif","",""
"","html-keyboard-response","23","171850","0.0-11.0-0.6","SS1627326946925","","null","","","null","","","","","","","","","","","<p><img src= images/blank.png width =""600"" height = ""600"" style=""position:fixed;top:50%; left:50%; transform: translate(-50%, -50%); border:5px solid black"">","","","","",""
"","stimuli-presentation","24","178387","0.0-11.0-1.6","SS1627326946925","","6030.200000001118","trial","","40","500","6530.200000001118","images/stimuli/complex_15_A_b.gif","images/stimuli/complex_13_A_b.gif","forced_short","320","","","","","","0","complex_dissimilar","images/stimuli/complex_13_A_b.gif","",""
"","survey-multi-choice","25","181896","0.0-12.0","SS1627326946925","","3505.7000000011176","memory_test","","","","","","","","","{""Q0"":""No""}","[0]","images/stimuli/complex_17_A_a.gif","0","","","","","",""
"","survey-multi-choice","26","184794","0.0-13.0","SS1627326946925","","2893.5999999996275","memory_test","","","","","","","","","{""Q0"":""Yes""}","[0]","images/stimuli/complex_13_A_b.gif","0","","","","","",""
"","html-keyboard-response","27","185868","0.0-14.0-0.0","SS1627326946925","","null","","","null","","","","","","","","","","","<p><img src= images/blank.png width =""600"" height = ""600"" style=""position:fixed;top:50%; left:50%; transform: translate(-50%, -50%); border:5px solid black"">","","","","",""
"","stimuli-presentation","28","190115","0.0-14.0-1.0","SS1627326946925","","3552.39999999851","trial","","40","500","4052.39999999851","images/stimuli/complex_01_A_a.gif","images/stimuli/complex_10_A_a.gif","forced_short","680","","","","","","1","complex_dissimilar","images/stimuli/complex_10_A_a.gif","",""
"","html-keyboard-response","29","191007","0.0-14.0-0.1","SS1627326946925","","null","","","null","","","","","","","","","","","<p><img src= images/blank.png width =""600"" height = ""600"" style=""position:fixed;top:50%; left:50%; transform: translate(-50%, -50%); border:5px solid black"">","","","","",""
"","stimuli-presentation","30","196183","0.0-14.0-1.1","SS1627326946925","","4661.4000000003725","trial","","40","500","5161.4000000003725","images/stimuli/complex_01_A_a.gif","images/stimuli/complex_10_A_a.gif","forced_short","680","","","","","","1","complex_dissimilar","images/stimuli/complex_10_A_a.gif","",""
"","html-keyboard-response","31","197317","0.0-14.0-0.2","SS1627326946925","","null","","","null","","","","","","","","","","","<p><img src= images/blank.png width =""600"" height = ""600"" style=""position:fixed;top:50%; left:50%; transform: translate(-50%, -50%); border:5px solid black"">","","","","",""
"","stimuli-presentation","32","202109","0.0-14.0-1.2","SS1627326946925","","4280.799999998882","trial","","40","500","4780.799999998882","images/stimuli/complex_01_A_a.gif","images/stimuli/complex_10_A_a.gif","forced_short","680","","","","","","1","complex_dissimilar","images/stimuli/complex_10_A_a.gif","",""
"","html-keyboard-response","33","203307","0.0-14.0-0.3","SS1627326946925","","null","","","null","","","","","","","","","","","<p><img src= images/blank.png width =""600"" height = ""600"" style=""position:fixed;top:50%; left:50%; transform: translate(-50%, -50%); border:5px solid black"">","","","","",""
"","stimuli-presentation","34","209168","0.0-14.0-1.3","SS1627326946925","","5344","trial","","40","500","5844","images/stimuli/complex_01_A_a.gif","images/stimuli/complex_10_A_a.gif","forced_short","680","","","","","","1","complex_dissimilar","images/stimuli/complex_01_A_a.gif","",""
"","html-keyboard-response","35","210113","0.0-14.0-0.4","SS1627326946925","","null","","","null","","","","","","","","","","","<p><img src= images/blank.png width =""600"" height = ""600"" style=""position:fixed;top:50%; left:50%; transform: translate(-50%, -50%); border:5px solid black"">","","","","",""
"","stimuli-presentation","36","215633","0.0-14.0-1.4","SS1627326946925","","5005.5","trial","","40","500","5505.5","images/stimuli/complex_01_A_a.gif","images/stimuli/complex_10_A_a.gif","forced_short","680","","","","","","1","complex_dissimilar","images/stimuli/complex_10_A_a.gif","",""
"","html-keyboard-response","37","216655","0.0-14.0-0.5","SS1627326946925","","null","","","null","","","","","","","","","","","<p><img src= images/blank.png width =""600"" height = ""600"" style=""position:fixed;top:50%; left:50%; transform: translate(-50%, -50%); border:5px solid black"">","","","","",""
"","stimuli-presentation","38","220823","0.0-14.0-1.5","SS1627326946925","","3654.800000000745","trial","","40","500","4154.800000000745","images/stimuli/complex_01_A_a.gif","images/stimuli/complex_10_A_a.gif","forced_short","680","","","","","","1","complex_dissimilar","images/stimuli/complex_10_A_a.gif","",""
"","html-keyboard-response","39","222055","0.0-14.0-0.6","SS1627326946925","","null","","","null","","","","","","","","","","","<p><img src= images/blank.png width =""600"" height = ""600"" style=""position:fixed;top:50%; left:50%; transform: translate(-50%, -50%); border:5px solid black"">","","","","",""
"","stimuli-presentation","40","226342","0.0-14.0-1.6","SS1627326946925","","3767.5","trial","","40","500","4267.5","images/stimuli/complex_01_A_a.gif","images/stimuli/complex_10_A_a.gif","forced_short","680","","","","","","1","complex_dissimilar","images/stimuli/complex_10_A_a.gif","",""
"","html-keyboard-response","41","227422","0.0-14.0-0.7","SS1627326946925","","null","","","null","","","","","","","","","","","<p><img src= images/blank.png width =""600"" height = ""600"" style=""position:fixed;top:50%; left:50%; transform: translate(-50%, -50%); border:5px solid black"">","","","","",""
"","stimuli-presentation","42","231112","0.0-14.0-1.7","SS1627326946925","","3178.800000000745","trial","","40","500","3678.800000000745","images/stimuli/complex_01_A_a.gif","images/stimuli/complex_10_A_a.gif","forced_short","680","","","","","","1","complex_dissimilar","images/stimuli/complex_10_A_a.gif","",""
"","survey-multi-choice","43","234258","0.0-15.0","SS1627326946925","","3142.199999999255","memory_test","","","","","","","","","{""Q0"":""Yes""}","[0]","images/stimuli/complex_01_A_a.gif","1","","","","","",""
"","survey-multi-choice","44","236739","0.0-16.0","SS1627326946925","","2476.9000000003725","memory_test","","","","","","","","","{""Q0"":""No""}","[0]","images/stimuli/complex_19_A_b.gif","1","","","","","",""
"","html-keyboard-response","45","238049","0.0-17.0-0.0","SS1627326946925","","null","","","null","","","","","","","","","","","<p><img src= images/blank.png width =""600"" height = ""600"" style=""position:fixed;top:50%; left:50%; transform: translate(-50%, -50%); border:5px solid black"">","","","","",""
"","stimuli-presentation","46","240973","0.0-17.0-1.0","SS1627326946925","","2374.2000000011176","trial","","40","500","2874.2000000011176","images/stimuli/complex_22_A_a.gif","images/stimuli/complex_06_A_b.gif","forced_short","540","","","","","","2","complex_dissimilar","images/stimuli/complex_06_A_b.gif","",""
"","html-keyboard-response","47","241791","0.0-17.0-0.1","SS1627326946925","","null","","","null","","","","","","","","","","","<p><img src= images/blank.png width =""600"" height = ""600"" style=""position:fixed;top:50%; left:50%; transform: translate(-50%, -50%); border:5px solid black"">","","","","",""
"","stimuli-presentation","48","246089","0.0-17.0-1.1","SS1627326946925","","3791.199999999255","trial","","40","500","4291.199999999255","images/stimuli/complex_22_A_a.gif","images/stimuli/complex_06_A_b.gif","forced_short","540","","","","","","2","complex_dissimilar","images/stimuli/complex_06_A_b.gif","",""
"","html-keyboard-response","49","247317","0.0-17.0-0.2","SS1627326946925","","null","","","null","","","","","","","","","","","<p><img src= images/blank.png width =""600"" height = ""600"" style=""position:fixed;top:50%; left:50%; transform: translate(-50%, -50%); border:5px solid black"">","","","","",""
"","stimuli-presentation","50","249905","0.0-17.0-1.2","SS1627326946925","","2069","trial","","40","500","2569","images/stimuli/complex_22_A_a.gif","images/stimuli/complex_06_A_b.gif","forced_short","540","","","","","","2","complex_dissimilar","images/stimuli/complex_06_A_b.gif","",""
"","html-keyboard-response","51","250954","0.0-17.0-0.3","SS1627326946925","","null","","","null","","","","","","","","","","","<p><img src= images/blank.png width =""600"" height = ""600"" style=""position:fixed;top:50%; left:50%; transform: translate(-50%, -50%); border:5px solid black"">","","","","",""
"","stimuli-presentation","52","252519","0.0-17.0-1.3","SS1627326946925","","1055.800000000745","trial","","40","500","1555.800000000745","images/stimuli/complex_22_A_a.gif","images/stimuli/complex_06_A_b.gif","forced_short","540","","","","","","2","complex_dissimilar","images/stimuli/complex_06_A_b.gif","",""
"","html-keyboard-response","53","253555","0.0-17.0-0.4","SS1627326946925","","null","","","null","","","","","","","","","","","<p><img src= images/blank.png width =""600"" height = ""600"" style=""position:fixed;top:50%; left:50%; transform: translate(-50%, -50%); border:5px solid black"">","","","","",""
"","stimuli-presentation","54","257237","0.0-17.0-1.4","SS1627326946925","","3169","trial","","40","500","3669","images/stimuli/complex_22_A_a.gif","images/stimuli/complex_06_A_b.gif","forced_short","540","","","","","","2","complex_dissimilar","images/stimuli/complex_22_A_a.gif","",""
"","html-keyboard-response","55","258432","0.0-17.0-0.5","SS1627326946925","","null","","","null","","","","","","","","","","","<p><img src= images/blank.png width =""600"" height = ""600"" style=""position:fixed;top:50%; left:50%; transform: translate(-50%, -50%); border:5px solid black"">","","","","",""
"","stimuli-presentation","56","261234","0.0-17.0-1.5","SS1627326946925","","2287","trial","","40","500","2787","images/stimuli/complex_22_A_a.gif","images/stimuli/complex_06_A_b.gif","forced_short","540","","","","","","2","complex_dissimilar","images/stimuli/complex_06_A_b.gif","",""
"","html-keyboard-response","57","262417","0.0-17.0-0.6","SS1627326946925","","null","","","null","","","","","","","","","","","<p><img src= images/blank.png width =""600"" height = ""600"" style=""position:fixed;top:50%; left:50%; transform: translate(-50%, -50%); border:5px solid black"">","","","","",""
"","stimuli-presentation","58","265115","0.0-17.0-1.6","SS1627326946925","","2185.2999999988824","trial","","40","500","2685.2999999988824","images/stimuli/complex_22_A_a.gif","images/stimuli/complex_06_A_b.gif","forced_short","540","","","","","","2","complex_dissimilar","images/stimuli/complex_06_A_b.gif","",""
"","survey-multi-choice","59","269446","0.0-18.0","SS1627326946925","","4325.10000000149","memory_test","","","","","","","","","{""Q0"":""No""}","[0]","images/stimuli/complex_24_A_a.gif","2","","","","","",""
"","survey-multi-choice","60","273449","0.0-19.0","SS1627326946925","","3999.0999999996275","memory_test","","","","","","","","","{""Q0"":""Yes""}","[0]","images/stimuli/complex_22_A_a.gif","2","","","","","",""
"","html-keyboard-response","61","274373","0.0-20.0-0.0","SS1627326946925","","null","","","null","","","","","","","","","","","<p><img src= images/blank.png width =""600"" height = ""600"" style=""position:fixed;top:50%; left:50%; transform: translate(-50%, -50%); border:5px solid black"">","","","","",""
"","stimuli-presentation","62","276535","0.0-20.0-1.0","SS1627326946925","","1249.9000000003725","trial","","40","500","1749.9000000003725","images/stimuli/complex_08_A_b.gif","images/stimuli/complex_09_A_b.gif","forced_short","900","","","","","","3","complex_dissimilar","images/stimuli/complex_09_A_b.gif","",""
"","html-keyboard-response","63","277525","0.0-20.0-0.1","SS1627326946925","","null","","","null","","","","","","","","","","","<p><img src= images/blank.png width =""600"" height = ""600"" style=""position:fixed;top:50%; left:50%; transform: translate(-50%, -50%); border:5px solid black"">","","","","",""
"","stimuli-presentation","64","284765","0.0-20.0-1.1","SS1627326946925","","6734.300000000745","trial","","40","500","7234.300000000745","images/stimuli/complex_08_A_b.gif","images/stimuli/complex_09_A_b.gif","forced_short","900","","","","","","3","complex_dissimilar","images/stimuli/complex_09_A_b.gif","",""
"","html-keyboard-response","65","285594","0.0-20.0-0.2","SS1627326946925","","null","","","null","","","","","","","","","","","<p><img src= images/blank.png width =""600"" height = ""600"" style=""position:fixed;top:50%; left:50%; transform: translate(-50%, -50%); border:5px solid black"">","","","","",""
"","stimuli-presentation","66","289584","0.0-20.0-1.2","SS1627326946925","","3483","trial","","40","500","3983","images/stimuli/complex_08_A_b.gif","images/stimuli/complex_09_A_b.gif","forced_short","900","","","","","","3","complex_dissimilar","images/stimuli/complex_09_A_b.gif","",""
"","html-keyboard-response","67","290570","0.0-20.0-0.3","SS1627326946925","","null","","","null","","","","","","","","","","","<p><img src= images/blank.png width =""600"" height = ""600"" style=""position:fixed;top:50%; left:50%; transform: translate(-50%, -50%); border:5px solid black"">","","","","",""
"","stimuli-presentation","68","293286","0.0-20.0-1.3","SS1627326946925","","2185.699999999255","trial","","40","500","2685.699999999255","images/stimuli/complex_08_A_b.gif","images/stimuli/complex_09_A_b.gif","forced_short","900","","","","","","3","complex_dissimilar","images/stimuli/complex_09_A_b.gif","",""
"","html-keyboard-response","69","294577","0.0-20.0-0.4","SS1627326946925","","null","","","null","","","","","","","","","","","<p><img src= images/blank.png width =""600"" height = ""600"" style=""position:fixed;top:50%; left:50%; transform: translate(-50%, -50%); border:5px solid black"">","","","","",""
"","stimuli-presentation","70","296777","0.0-20.0-1.4","SS1627326946925","","1685.6000000014901","trial","","40","500","2185.60000000149","images/stimuli/complex_08_A_b.gif","images/stimuli/complex_09_A_b.gif","forced_short","900","","","","","","3","complex_dissimilar","images/stimuli/complex_09_A_b.gif","",""
"","html-keyboard-response","71","298064","0.0-20.0-0.5","SS1627326946925","","null","","","null","","","","","","","","","","","<p><img src= images/blank.png width =""600"" height = ""600"" style=""position:fixed;top:50%; left:50%; transform: translate(-50%, -50%); border:5px solid black"">","","","","",""
"","stimuli-presentation","72","299870","0.0-20.0-1.5","SS1627326946925","","1289.4000000003725","trial","","40","500","1789.4000000003725","images/stimuli/complex_08_A_b.gif","images/stimuli/complex_09_A_b.gif","forced_short","900","","","","","","3","complex_dissimilar","images/stimuli/complex_09_A_b.gif","",""
"","html-keyboard-response","73","300751","0.0-20.0-0.6","SS1627326946925","","null","","","null","","","","","","","","","","","<p><img src= images/blank.png width =""600"" height = ""600"" style=""position:fixed;top:50%; left:50%; transform: translate(-50%, -50%); border:5px solid black"">","","","","",""
"","stimuli-presentation","74","302669","0.0-20.0-1.6","SS1627326946925","","1409.699999999255","trial","","40","500","1909.699999999255","images/stimuli/complex_08_A_b.gif","images/stimuli/complex_09_A_b.gif","forced_short","900","","","","","","3","complex_dissimilar","images/stimuli/complex_09_A_b.gif","",""
"","html-keyboard-response","75","303558","0.0-20.0-0.7","SS1627326946925","","null","","","null","","","","","","","","","","","<p><img src= images/blank.png width =""600"" height = ""600"" style=""position:fixed;top:50%; left:50%; transform: translate(-50%, -50%); border:5px solid black"">","","","","",""
"","stimuli-presentation","76","305215","0.0-20.0-1.7","SS1627326946925","","1130.800000000745","trial","","40","500","1630.800000000745","images/stimuli/complex_08_A_b.gif","images/stimuli/complex_09_A_b.gif","forced_short","900","","","","","","3","complex_dissimilar","images/stimuli/complex_09_A_b.gif","",""
"","survey-multi-choice","77","308315","0.0-21.0","SS1627326946925","","3094.300000000745","memory_test","","","","","","","","","{""Q0"":""No""}","[0]","images/stimuli/complex_04_A_a.gif","3","","","","","",""
"","survey-multi-choice","78","313557","0.0-22.0","SS1627326946925","","5238.10000000149","memory_test","","","","","","","","","{""Q0"":""Yes""}","[0]","images/stimuli/complex_09_A_b.gif","3","","","","","",""
"","html-keyboard-response","79","314564","0.0-23.0-0.0","SS1627326946925","","null","","","null","","","","","","","","","","","<p><img src= images/blank.png width =""600"" height = ""600"" style=""position:fixed;top:50%; left:50%; transform: translate(-50%, -50%); border:5px solid black"">","","","","",""
"","stimuli-presentation","80","317048","0.0-23.0-1.0","SS1627326946925","","1509.3999999985099","trial","","40","500","2009.3999999985099","images/stimuli/complex_07_A_b.gif","images/stimuli/complex_20_A_a.gif","forced_short","960","","","","","","4","complex_dissimilar","images/stimuli/complex_20_A_a.gif","",""
"","html-keyboard-response","81","318197","0.0-23.0-0.1","SS1627326946925","","null","","","null","","","","","","","","","","","<p><img src= images/blank.png width =""600"" height = ""600"" style=""position:fixed;top:50%; left:50%; transform: translate(-50%, -50%); border:5px solid black"">","","","","",""
"","stimuli-presentation","82","323300","0.0-23.0-1.1","SS1627326946925","","4591.799999998882","trial","","40","500","5091.799999998882","images/stimuli/complex_07_A_b.gif","images/stimuli/complex_20_A_a.gif","forced_short","960","","","","","","4","complex_dissimilar","images/stimuli/complex_20_A_a.gif","",""
"","html-keyboard-response","83","324615","0.0-23.0-0.2","SS1627326946925","","null","","","null","","","","","","","","","","","<p><img src= images/blank.png width =""600"" height = ""600"" style=""position:fixed;top:50%; left:50%; transform: translate(-50%, -50%); border:5px solid black"">","","","","",""
"","stimuli-presentation","84","328686","0.0-23.0-1.2","SS1627326946925","","3558.0999999996275","trial","","40","500","4058.0999999996275","images/stimuli/complex_07_A_b.gif","images/stimuli/complex_20_A_a.gif","forced_short","960","","","","","","4","complex_dissimilar","images/stimuli/complex_20_A_a.gif","",""
"","html-keyboard-response","85","329592","0.0-23.0-0.3","SS1627326946925","","null","","","null","","","","","","","","","","","<p><img src= images/blank.png width =""600"" height = ""600"" style=""position:fixed;top:50%; left:50%; transform: translate(-50%, -50%); border:5px solid black"">","","","","",""
"","stimuli-presentation","86","331803","0.0-23.0-1.3","SS1627326946925","","1694.3999999985099","trial","","40","500","2194.39999999851","images/stimuli/complex_07_A_b.gif","images/stimuli/complex_20_A_a.gif","forced_short","960","","","","","","4","complex_dissimilar","images/stimuli/complex_20_A_a.gif","",""
"","html-keyboard-response","87","332964","0.0-23.0-0.4","SS1627326946925","","null","","","null","","","","","","","","","","","<p><img src= images/blank.png width =""600"" height = ""600"" style=""position:fixed;top:50%; left:50%; transform: translate(-50%, -50%); border:5px solid black"">","","","","",""
"","stimuli-presentation","88","335265","0.0-23.0-1.4","SS1627326946925","","1791.6000000014901","trial","","40","500","2291.60000000149","images/stimuli/complex_07_A_b.gif","images/stimuli/complex_20_A_a.gif","forced_short","960","","","","","","4","complex_dissimilar","images/stimuli/complex_20_A_a.gif","",""
"","html-keyboard-response","89","336148","0.0-23.0-0.5","SS1627326946925","","null","","","null","","","","","","","","","","","<p><img src= images/blank.png width =""600"" height = ""600"" style=""position:fixed;top:50%; left:50%; transform: translate(-50%, -50%); border:5px solid black"">","","","","",""
"","stimuli-presentation","90","338239","0.0-23.0-1.5","SS1627326946925","","1562.5999999996275","trial","","40","500","2062.5999999996275","images/stimuli/complex_07_A_b.gif","images/stimuli/complex_20_A_a.gif","forced_short","960","","","","","","4","complex_dissimilar","images/stimuli/complex_20_A_a.gif","",""
"","html-keyboard-response","91","339250","0.0-23.0-0.6","SS1627326946925","","null","","","null","","","","","","","","","","","<p><img src= images/blank.png width =""600"" height = ""600"" style=""position:fixed;top:50%; left:50%; transform: translate(-50%, -50%); border:5px solid black"">","","","","",""
"","stimuli-presentation","92","342317","0.0-23.0-1.6","SS1627326946925","","2558.199999999255","trial","","40","500","3058.199999999255","images/stimuli/complex_07_A_b.gif","images/stimuli/complex_20_A_a.gif","forced_short","960","","","","","","4","complex_dissimilar","images/stimuli/complex_20_A_a.gif","",""
"","html-keyboard-response","93","343470","0.0-23.0-0.7","SS1627326946925","","null","","","null","","","","","","","","","","","<p><img src= images/blank.png width =""600"" height = ""600"" style=""position:fixed;top:50%; left:50%; transform: translate(-50%, -50%); border:5px solid black"">","","","","",""
"","stimuli-presentation","94","344580","0.0-23.0-1.7","SS1627326946925","","595","trial","","40","500","1095","images/stimuli/complex_07_A_b.gif","images/stimuli/complex_20_A_a.gif","forced_short","960","","","","","","4","complex_dissimilar","images/stimuli/complex_20_A_a.gif","",""
"","survey-multi-choice","95","349001","0.0-24.0","SS1627326946925","","4415.5","memory_test","","","","","","","","","{""Q0"":""Yes""}","[0]","images/stimuli/complex_20_A_a.gif","4","","","","","",""
"","survey-multi-choice","96","351402","0.0-25.0","SS1627326946925","","2395.89999999851","memory_test","","","","","","","","","{""Q0"":""No""}","[0]","images/stimuli/complex_05_A_a.gif","4","","","","","",""
"","html-keyboard-response","97","352389","0.0-26.0-0.0","SS1627326946925","","null","","","null","","","","","","","","","","","<p><img src= images/blank.png width =""600"" height = ""600"" style=""position:fixed;top:50%; left:50%; transform: translate(-50%, -50%); border:5px solid black"">","","","","",""
"","stimuli-presentation","98","354201","0.0-26.0-1.0","SS1627326946925","","1391","trial","","40","500","1891","images/stimuli/complex_03_A_b.gif","images/stimuli/complex_16_A_b.gif","forced_short","400","","","","","","5","complex_dissimilar","images/stimuli/complex_16_A_b.gif","",""
"","html-keyboard-response","99","355195","0.0-26.0-0.1","SS1627326946925","","null","","","null","","","","","","","","","","","<p><img src= images/blank.png width =""600"" height = ""600"" style=""position:fixed;top:50%; left:50%; transform: translate(-50%, -50%); border:5px solid black"">","","","","",""
"","stimuli-presentation","100","358796","0.0-26.0-1.1","SS1627326946925","","3091.60000000149","trial","","40","500","3591.60000000149","images/stimuli/complex_03_A_b.gif","images/stimuli/complex_16_A_b.gif","forced_short","400","","","","","","5","complex_dissimilar","images/stimuli/complex_16_A_b.gif","",""
"","html-keyboard-response","101","360084","0.0-26.0-0.2","SS1627326946925","","null","","","null","","","","","","","","","","","<p><img src= images/blank.png width =""600"" height = ""600"" style=""position:fixed;top:50%; left:50%; transform: translate(-50%, -50%); border:5px solid black"">","","","","",""
"","stimuli-presentation","102","361144","0.0-26.0-1.2","SS1627326946925","","539.2000000011176","trial","","40","500","1039.2000000011176","images/stimuli/complex_03_A_b.gif","images/stimuli/complex_16_A_b.gif","forced_short","400","","","","","","5","complex_dissimilar","images/stimuli/complex_16_A_b.gif","",""
"","html-keyboard-response","103","362414","0.0-26.0-0.3","SS1627326946925","","null","","","null","","","","","","","","","","","<p><img src= images/blank.png width =""600"" height = ""600"" style=""position:fixed;top:50%; left:50%; transform: translate(-50%, -50%); border:5px solid black"">","","","","",""
"","stimuli-presentation","104","364207","0.0-26.0-1.3","SS1627326946925","","1288.0999999996275","trial","","40","500","1788.0999999996275","images/stimuli/complex_03_A_b.gif","images/stimuli/complex_16_A_b.gif","forced_short","400","","","","","","5","complex_dissimilar","images/stimuli/complex_16_A_b.gif","",""
"","html-keyboard-response","105","365382","0.0-26.0-0.4","SS1627326946925","","null","","","null","","","","","","","","","","","<p><img src= images/blank.png width =""600"" height = ""600"" style=""position:fixed;top:50%; left:50%; transform: translate(-50%, -50%); border:5px solid black"">","","","","",""
"","stimuli-presentation","106","367905","0.0-26.0-1.4","SS1627326946925","","2007.4000000003725","trial","","40","500","2507.4000000003725","images/stimuli/complex_03_A_b.gif","images/stimuli/complex_16_A_b.gif","forced_short","400","","","","","","5","complex_dissimilar","images/stimuli/complex_03_A_b.gif","",""
"","html-keyboard-response","107","369137","0.0-26.0-0.5","SS1627326946925","","null","","","null","","","","","","","","","","","<p><img src= images/blank.png width =""600"" height = ""600"" style=""position:fixed;top:50%; left:50%; transform: translate(-50%, -50%); border:5px solid black"">","","","","",""
"","stimuli-presentation","108","370742","0.0-26.0-1.5","SS1627326946925","","1091","trial","","40","500","1591","images/stimuli/complex_03_A_b.gif","images/stimuli/complex_16_A_b.gif","forced_short","400","","","","","","5","complex_dissimilar","images/stimuli/complex_16_A_b.gif","",""
"","survey-multi-choice","109","373299","0.0-27.0","SS1627326946925","","2551","memory_test","","","","","","","","","{""Q0"":""Yes""}","[0]","images/stimuli/complex_16_A_b.gif","5","","","","","",""
"","survey-multi-choice","110","450057","0.0-28.0","SS1627326946925","","76753.69999999925","memory_test","","","","","","","","","{""Q0"":""No""}","[0]","images/stimuli/complex_21_A_b.gif","5","","","","","",""
"","html-keyboard-response","111","450950","0.0-29.0-0.0","SS1627326946925","","null","","","null","","","","","","","","","","","<p><img src= images/blank.png width =""600"" height = ""600"" style=""position:fixed;top:50%; left:50%; transform: translate(-50%, -50%); border:5px solid black"">","","","","",""
"","stimuli-presentation","112","453112","0.0-29.0-1.0","SS1627326946925","","1856.9000000003725","trial","","40","500","2356.9000000003725","images/stimuli/complex_23_A_a.gif","images/stimuli/complex_11_A_b.gif","forced_short","290","","","","","","6","complex_dissimilar","images/stimuli/complex_11_A_b.gif","",""
"","html-keyboard-response","113","454319","0.0-29.0-0.1","SS1627326946925","","null","","","null","","","","","","","","","","","<p><img src= images/blank.png width =""600"" height = ""600"" style=""position:fixed;top:50%; left:50%; transform: translate(-50%, -50%); border:5px solid black"">","","","","",""
"","stimuli-presentation","114","461757","0.0-29.0-1.1","SS1627326946925","","6930.800000000745","trial","","40","500","7430.800000000745","images/stimuli/complex_23_A_a.gif","images/stimuli/complex_11_A_b.gif","forced_short","290","","","","","","6","complex_dissimilar","images/stimuli/complex_11_A_b.gif","",""
"","html-keyboard-response","115","462935","0.0-29.0-0.2","SS1627326946925","","null","","","null","","","","","","","","","","","<p><img src= images/blank.png width =""600"" height = ""600"" style=""position:fixed;top:50%; left:50%; transform: translate(-50%, -50%); border:5px solid black"">","","","","",""
"","stimuli-presentation","116","463756","0.0-29.0-1.2","SS1627326946925","","311.80000000074506","trial","","40","500","811.8000000007451","images/stimuli/complex_23_A_a.gif","images/stimuli/complex_11_A_b.gif","forced_short","290","","","","","","6","complex_dissimilar","images/stimuli/complex_11_A_b.gif","",""
"","html-keyboard-response","117","464579","0.0-29.0-0.3","SS1627326946925","","null","","","null","","","","","","","","","","","<p><img src= images/blank.png width =""600"" height = ""600"" style=""position:fixed;top:50%; left:50%; transform: translate(-50%, -50%); border:5px solid black"">","","","","",""
"","stimuli-presentation","118","465706","0.0-29.0-1.3","SS1627326946925","","608.2000000011176","trial","","40","500","1108.2000000011176","images/stimuli/complex_23_A_a.gif","images/stimuli/complex_11_A_b.gif","forced_short","290","","","","","","6","complex_dissimilar","images/stimuli/complex_11_A_b.gif","",""
"","html-keyboard-response","119","466564","0.0-29.0-0.4","SS1627326946925","","null","","","null","","","","","","","","","","","<p><img src= images/blank.png width =""600"" height = ""600"" style=""position:fixed;top:50%; left:50%; transform: translate(-50%, -50%); border:5px solid black"">","","","","",""
"","stimuli-presentation","120","467635","0.0-29.0-1.4","SS1627326946925","","562.5999999996275","trial","","40","500","1062.5999999996275","images/stimuli/complex_23_A_a.gif","images/stimuli/complex_11_A_b.gif","forced_short","290","","","","","","6","complex_dissimilar","images/stimuli/complex_11_A_b.gif","",""
"","html-keyboard-response","121","468747","0.0-29.0-0.5","SS1627326946925","","null","","","null","","","","","","","","","","","<p><img src= images/blank.png width =""600"" height = ""600"" style=""position:fixed;top:50%; left:50%; transform: translate(-50%, -50%); border:5px solid black"">","","","","",""
"","stimuli-presentation","122","469373","0.0-29.0-1.5","SS1627326946925","","118.29999999888241","trial","","40","500","618.2999999988824","images/stimuli/complex_23_A_a.gif","images/stimuli/complex_11_A_b.gif","forced_short","290","","","","","","6","complex_dissimilar","images/stimuli/complex_11_A_b.gif","",""
"","html-keyboard-response","123","470528","0.0-29.0-0.6","SS1627326946925","","null","","","null","","","","","","","","","","","<p><img src= images/blank.png width =""600"" height = ""600"" style=""position:fixed;top:50%; left:50%; transform: translate(-50%, -50%); border:5px solid black"">","","","","",""
"","stimuli-presentation","124","471177","0.0-29.0-1.6","SS1627326946925","","131.39999999850988","trial","","40","500","631.3999999985099","images/stimuli/complex_23_A_a.gif","images/stimuli/complex_11_A_b.gif","forced_short","290","","","","","","6","complex_dissimilar","images/stimuli/complex_11_A_b.gif","",""
"","html-keyboard-response","125","472118","0.0-29.0-0.7","SS1627326946925","","null","","","null","","","","","","","","","","","<p><img src= images/blank.png width =""600"" height = ""600"" style=""position:fixed;top:50%; left:50%; transform: translate(-50%, -50%); border:5px solid black"">","","","","",""
"","stimuli-presentation","126","472645","0.0-29.0-1.7","SS1627326946925","","12.199999999254942","trial","","40","500","512.1999999992549","images/stimuli/complex_23_A_a.gif","images/stimuli/complex_11_A_b.gif","forced_short","290","","","","","","6","complex_dissimilar","images/stimuli/complex_11_A_b.gif","",""
"","survey-multi-choice","127","475287","0.0-30.0","SS1627326946925","","2634.9000000003725","memory_test","","","","","","","","","{""Q0"":""Yes""}","[0]","images/stimuli/complex_11_A_b.gif","6","","","","","",""
"","survey-multi-choice","128","477912","0.0-31.0","SS1627326946925","","2619.10000000149","memory_test","","","","","","","","","{""Q0"":""No""}","[0]","images/stimuli/complex_12_A_b.gif","6","","","","","",""
"","html-keyboard-response","129","478777","0.0-32.0-0.0","SS1627326946925","","null","","","null","","","","","","","","","","","<p><img src= images/blank.png width =""600"" height = ""600"" style=""position:fixed;top:50%; left:50%; transform: translate(-50%, -50%); border:5px solid black"">","","","","",""
"","stimuli-presentation","130","480313","0.0-32.0-1.0","SS1627326946925","","786.2000000011176","trial","","40","500","1286.2000000011176","images/stimuli/complex_02_A_a.gif","images/stimuli/complex_18_A_a.gif","forced_short","730","","","","","","7","complex_dissimilar","images/stimuli/complex_18_A_a.gif","",""
"","html-keyboard-response","131","481452","0.0-32.0-0.1","SS1627326946925","","null","","","null","","","","","","","","","","","<p><img src= images/blank.png width =""600"" height = ""600"" style=""position:fixed;top:50%; left:50%; transform: translate(-50%, -50%); border:5px solid black"">","","","","",""
"","stimuli-presentation","132","482461","0.0-32.0-1.1","SS1627326946925","","488.5","trial","","40","500","988.5","images/stimuli/complex_02_A_a.gif","images/stimuli/complex_18_A_a.gif","forced_short","730","","","","","","7","complex_dissimilar","images/stimuli/complex_18_A_a.gif","",""
"","html-keyboard-response","133","483618","0.0-32.0-0.2","SS1627326946925","","null","","","null","","","","","","","","","","","<p><img src= images/blank.png width =""600"" height = ""600"" style=""position:fixed;top:50%; left:50%; transform: translate(-50%, -50%); border:5px solid black"">","","","","",""
"","stimuli-presentation","134","484880","0.0-32.0-1.2","SS1627326946925","","755","trial","","40","500","1255","images/stimuli/complex_02_A_a.gif","images/stimuli/complex_18_A_a.gif","forced_short","730","","","","","","7","complex_dissimilar","images/stimuli/complex_18_A_a.gif","",""
"","html-keyboard-response","135","486018","0.0-32.0-0.3","SS1627326946925","","null","","","null","","","","","","","","","","","<p><img src= images/blank.png width =""600"" height = ""600"" style=""position:fixed;top:50%; left:50%; transform: translate(-50%, -50%); border:5px solid black"">","","","","",""
"","stimuli-presentation","136","487705","0.0-32.0-1.3","SS1627326946925","","1176.0999999996275","trial","","40","500","1676.0999999996275","images/stimuli/complex_02_A_a.gif","images/stimuli/complex_18_A_a.gif","forced_short","730","","","","","","7","complex_dissimilar","images/stimuli/complex_18_A_a.gif","",""
"","html-keyboard-response","137","488886","0.0-32.0-0.4","SS1627326946925","","null","","","null","","","","","","","","","","","<p><img src= images/blank.png width =""600"" height = ""600"" style=""position:fixed;top:50%; left:50%; transform: translate(-50%, -50%); border:5px solid black"">","","","","",""
"","stimuli-presentation","138","490196","0.0-32.0-1.4","SS1627326946925","","795.3999999985099","trial","","40","500","1295.3999999985099","images/stimuli/complex_02_A_a.gif","images/stimuli/complex_18_A_a.gif","forced_short","730","","","","","","7","complex_dissimilar","images/stimuli/complex_18_A_a.gif","",""
"","html-keyboard-response","139","491361","0.0-32.0-0.5","SS1627326946925","","null","","","null","","","","","","","","","","","<p><img src= images/blank.png width =""600"" height = ""600"" style=""position:fixed;top:50%; left:50%; transform: translate(-50%, -50%); border:5px solid black"">","","","","",""
"","stimuli-presentation","140","492386","0.0-32.0-1.5","SS1627326946925","","515.5999999996275","trial","","40","500","1015.5999999996275","images/stimuli/complex_02_A_a.gif","images/stimuli/complex_18_A_a.gif","forced_short","730","","","","","","7","complex_dissimilar","images/stimuli/complex_18_A_a.gif","",""
"","html-keyboard-response","141","493357","0.0-32.0-0.6","SS1627326946925","","null","","","null","","","","","","","","","","","<p><img src= images/blank.png width =""600"" height = ""600"" style=""position:fixed;top:50%; left:50%; transform: translate(-50%, -50%); border:5px solid black"">","","","","",""
"","stimuli-presentation","142","495140","0.0-32.0-1.6","SS1627326946925","","1273.300000000745","trial","","40","500","1773.300000000745","images/stimuli/complex_02_A_a.gif","images/stimuli/complex_18_A_a.gif","forced_short","730","","","","","","7","complex_dissimilar","images/stimuli/complex_18_A_a.gif","",""
"","survey-multi-choice","143","498419","0.0-33.0","SS1627326946925","","3272.300000000745","memory_test","","","","","","","","","{""Q0"":""No""}","[0]","images/stimuli/complex_14_A_a.gif","7","","","","","",""
"","survey-multi-choice","144","500654","0.0-34.0","SS1627326946925","","2229.89999999851","memory_test","","","","","","","","","{""Q0"":""Yes""}","[0]","images/stimuli/complex_18_A_a.gif","7","","","","","",""
"","instructions","145","507849","0.0-35.0","SS1627326946925","[{""page_index"":0,""viewing_time"":7191.699999999255}]","7192.0999999996275","instructions","","","","","","","","","","","","","","","","","",""
"","survey-likert","146","513091","0.0-36.0","SS1627326946925","","5234.5","similarity_question","","","","","","","","","{""Q0"":1}","[0]","","","","","","","images/stimuli/complex_22_A_a.gif","images/stimuli/complex_06_A_b.gif"
"","survey-likert","147","517219","0.0-37.0","SS1627326946925","","4120","similarity_question","","","","","","","","","{""Q0"":4}","[0]","","","","","","","images/stimuli/complex_01_A_a.gif","images/stimuli/complex_10_A_a.gif"
"","survey-likert","148","521668","0.0-38.0","SS1627326946925","","4442.300000000745","similarity_question","","","","","","","","","{""Q0"":2}","[0]","","","","","","","images/stimuli/complex_16_A_b.gif","images/stimuli/complex_03_A_b.gif"
"","survey-likert","149","525998","0.0-39.0","SS1627326946925","","4324.199999999255","similarity_question","","","","","","","","","{""Q0"":0}","[0]","","","","","","","images/stimuli/complex_20_A_a.gif","images/stimuli/complex_07_A_b.gif"
"","survey-likert","150","539630","0.0-40.0","SS1627326946925","","13626.099999999627","similarity_question","","","","","","","","","{""Q0"":3}","[0]","","","","","","","images/stimuli/complex_13_A_b.gif","images/stimuli/complex_15_A_b.gif"
"","survey-likert","151","543203","0.0-41.0","SS1627326946925","","3567.5999999996275","similarity_question","","","","","","","","","{""Q0"":1}","[0]","","","","","","","images/stimuli/complex_02_A_a.gif","images/stimuli/complex_18_A_a.gif"
"","survey-likert","152","546881","0.0-42.0","SS1627326946925","","3671","similarity_question","","","","","","","","","{""Q0"":4}","[0]","","","","","","","images/stimuli/complex_09_A_b.gif","images/stimuli/complex_08_A_b.gif"
"","survey-likert","153","552467","0.0-43.0","SS1627326946925","","5577.5999999996275","similarity_question","","","","","","","","","{""Q0"":0}","[0]","","","","","","","images/stimuli/complex_23_A_a.gif","images/stimuli/complex_11_A_b.gif"
"","instructions","154","557353","0.0-44.0","SS1627326946925","[{""page_index"":0,""viewing_time"":4880.39999999851}]","4880.89999999851","instructions","","","","","","","","","","","","","","","","","",""
"","survey-likert","155","561841","0.0-45.0","SS1627326946925","","4481.4000000003725","","","","","","","","","","{""Q0"":2}","[0]","","","images/stimuli/complex_01_A_a.gif","","","","",""
"","survey-likert","156","564959","0.0-46.0","SS1627326946925","","3112.4000000003725","","","","","","","","","","{""Q0"":1}","[0]","","","images/stimuli/complex_22_A_a.gif","","","","",""
"","survey-likert","157","569628","0.0-47.0","SS1627326946925","","4662.0999999996275","","","","","","","","","","{""Q0"":3}","[0]","","","images/stimuli/complex_13_A_b.gif","","","","",""
"","survey-likert","158","573068","0.0-48.0","SS1627326946925","","3433.7000000011176","","","","","","","","","","{""Q0"":4}","[0]","","","images/stimuli/complex_20_A_a.gif","","","","",""
"","survey-likert","159","576508","0.0-49.0","SS1627326946925","","3434.9000000003725","","","","","","","","","","{""Q0"":2}","[0]","","","images/stimuli/complex_16_A_b.gif","","","","",""
"","survey-likert","160","579451","0.0-50.0","SS1627326946925","","2936.5999999996275","","","","","","","","","","{""Q0"":5}","[0]","","","images/stimuli/complex_18_A_a.gif","","","","",""
"","survey-likert","161","582630","0.0-51.0","SS1627326946925","","3172.5999999996275","","","","","","","","","","{""Q0"":5}","[0]","","","images/stimuli/complex_11_A_b.gif","","","","",""
"","survey-likert","162","585830","0.0-52.0","SS1627326946925","","3193.300000000745","","","","","","","","","","{""Q0"":2}","[0]","","","images/stimuli/complex_09_A_b.gif","","","","",""
"true","fullscreen","163","586837","0.0-53.0","SS1627326946925","","","","","","","","","","","","","","","","","","","","",""
"","instructions","164","588785","0.0-54.0","SS1627326946925","[{""page_index"":0,""viewing_time"":1938.4000000003725}]","1938.9000000003725","instructions","","","","","","","","","","","","","","","","","",""
"","demog-age","165","591524","0.0-55.0","SS1627326946925","","2730.800000000745","","","","","","","","","","{""age"":""21""}","","","","","","","","",""
"","demog-ethnic-US","166","594099","0.0-56.0","SS1627326946925","","2562.5","","","","","","","","","","{""ethnicity"":[""White""]}","[0]","","","","","","","",""
"","demog-gender-and-education","167","601040","0.0-57.0","SS1627326946925","","6936.5","","","","","","","","","","{""gender"":""Female"",""education"":""Bachelor's Degree""}","[0,1]","","","","","","","",""
"","survey-text","168","621933","0.0-58.0","SS1627326946925","","20886.800000000745","feedback","","","","","","","","","{""Q0"":""No issues with this and very easy to understand""}","","","","","","","","",""
"","instructions","169","623574","0.0-59.0","SS1627326946925","[{""page_index"":0,""viewing_time"":1637.4000000003725}]","1637.7000000011176","instructions","","","","","","","","","","","","","","","","","",""
