"success","trial_type","trial_index","time_elapsed","internal_node_id","subject","view_history","rt","stimulus_type","trial_stimulus","key_press","minimum_viewing_duration","trial_looking_time","block_deviant","block_background","exposure_type","forced_exposure_time","responses","question_order","memory_question_stimuli","memory_block_index","stimulus","block_number","block_type","stimulus_displayed","stimulus_left","stimulus_right"
"true","fullscreen","0","3498","0.0-0.0","SS1627327252429","","","","","","","","","","","","","","","","","","","","",""
"","instructions","1","15916","0.0-1.0","SS1627327252429","[{""page_index"":0,""viewing_time"":12412.5}]","12413.5","","","","","","","","","","","","","","","","","","",""
"","instructions","2","32485","0.0-2.0","SS1627327252429","[{""page_index"":0,""viewing_time"":11606.599999999977},{""page_index"":1,""viewing_time"":2951}]","14558.199999999953","instructions","","","","","","","","","","","","","","","","","",""
"","stimuli-presentation","3","43431","0.0-3.0","SS1627327252429","","10438.5","","","40","500","10938.5","null","null","self_paced","0","","","","","","","","","",""
"","instructions","4","57392","0.0-4.0","SS1627327252429","[{""page_index"":0,""viewing_time"":13957.299999999988}]","13957.900000000023","instructions","","","","","","","","","","","","","","","","","",""
"","stimuli-presentation","5","62868","0.0-5.0","SS1627327252429","","4968.400000000023","","","40","500","5468.400000000023","null","null","forced_short","500","","","","","","","","","",""
"","stimuli-presentation","6","65933","0.0-6.0","SS1627327252429","","2559.1999999999534","","","40","500","3059.1999999999534","null","null","forced_short","500","","","","","","","","","",""
"","instructions","7","72688","0.0-7.0","SS1627327252429","[{""page_index"":0,""viewing_time"":6752.299999999988}]","6752.799999999988","instructions","","","","","","","","","","","","","","","","","",""
"","survey-multi-choice","8","76718","0.0-8.0","SS1627327252429","","4022.9000000000233","memory_test_practice","","","","","","","","","{""Q0"":""Yes""}","[0]","images/practice/instructions_example_spore2.gif","0","","","","","",""
"","survey-multi-choice","9","79978","0.0-9.0","SS1627327252429","","3246","memory_test_practice","","","","","","","","","{""Q0"":""No""}","[0]","images/practice/instructions_example_spore0.gif","0","","","","","",""
"","instructions","10","94418","0.0-10.0","SS1627327252429","[{""page_index"":0,""viewing_time"":12976.399999999965},{""page_index"":1,""viewing_time"":1447.600000000035}]","14424.399999999965","instructions","","","","","","","","","","","","","","","","","",""
"","html-keyboard-response","11","95377","0.0-11.0-0.0","SS1627327252429","","null","","","null","","","","","","","","","","","<p><img src= images/blank.png width =""600"" height = ""600"" style=""position:fixed;top:50%; left:50%; transform: translate(-50%, -50%); border:5px solid black"">","","","","",""
"","stimuli-presentation","12","98336","0.0-11.0-1.0","SS1627327252429","","2193.5999999999767","trial","","40","500","2693.5999999999767","images/stimuli/complex_12_A_a.gif","images/stimuli/complex_15_A_b.gif","forced_short","750","","","","","","0","complex_dissimilar","images/stimuli/complex_15_A_b.gif","",""
"","html-keyboard-response","13","99364","0.0-11.0-0.1","SS1627327252429","","null","","","null","","","","","","","","","","","<p><img src= images/blank.png width =""600"" height = ""600"" style=""position:fixed;top:50%; left:50%; transform: translate(-50%, -50%); border:5px solid black"">","","","","",""
"","stimuli-presentation","14","108386","0.0-11.0-1.1","SS1627327252429","","8514.100000000035","trial","","40","500","9014.100000000035","images/stimuli/complex_12_A_a.gif","images/stimuli/complex_15_A_b.gif","forced_short","750","","","","","","0","complex_dissimilar","images/stimuli/complex_15_A_b.gif","",""
"","html-keyboard-response","15","109388","0.0-11.0-0.2","SS1627327252429","","null","","","null","","","","","","","","","","","<p><img src= images/blank.png width =""600"" height = ""600"" style=""position:fixed;top:50%; left:50%; transform: translate(-50%, -50%); border:5px solid black"">","","","","",""
"","stimuli-presentation","16","115767","0.0-11.0-1.2","SS1627327252429","","5872.5","trial","","40","500","6372.5","images/stimuli/complex_12_A_a.gif","images/stimuli/complex_15_A_b.gif","forced_short","750","","","","","","0","complex_dissimilar","images/stimuli/complex_15_A_b.gif","",""
"","html-keyboard-response","17","116724","0.0-11.0-0.3","SS1627327252429","","null","","","null","","","","","","","","","","","<p><img src= images/blank.png width =""600"" height = ""600"" style=""position:fixed;top:50%; left:50%; transform: translate(-50%, -50%); border:5px solid black"">","","","","",""
"","stimuli-presentation","18","122680","0.0-11.0-1.3","SS1627327252429","","5441.099999999977","trial","","40","500","5941.099999999977","images/stimuli/complex_12_A_a.gif","images/stimuli/complex_15_A_b.gif","forced_short","750","","","","","","0","complex_dissimilar","images/stimuli/complex_15_A_b.gif","",""
"","html-keyboard-response","19","123942","0.0-11.0-0.4","SS1627327252429","","null","","","null","","","","","","","","","","","<p><img src= images/blank.png width =""600"" height = ""600"" style=""position:fixed;top:50%; left:50%; transform: translate(-50%, -50%); border:5px solid black"">","","","","",""
"","stimuli-presentation","20","130367","0.0-11.0-1.4","SS1627327252429","","5920.299999999988","trial","","40","500","6420.299999999988","images/stimuli/complex_12_A_a.gif","images/stimuli/complex_15_A_b.gif","forced_short","750","","","","","","0","complex_dissimilar","images/stimuli/complex_15_A_b.gif","",""
"","html-keyboard-response","21","131240","0.0-11.0-0.5","SS1627327252429","","null","","","null","","","","","","","","","","","<p><img src= images/blank.png width =""600"" height = ""600"" style=""position:fixed;top:50%; left:50%; transform: translate(-50%, -50%); border:5px solid black"">","","","","",""
"","stimuli-presentation","22","138655","0.0-11.0-1.5","SS1627327252429","","6908.299999999988","trial","","40","500","7408.299999999988","images/stimuli/complex_12_A_a.gif","images/stimuli/complex_15_A_b.gif","forced_short","750","","","","","","0","complex_dissimilar","images/stimuli/complex_12_A_a.gif","",""
"","html-keyboard-response","23","139753","0.0-11.0-0.6","SS1627327252429","","null","","","null","","","","","","","","","","","<p><img src= images/blank.png width =""600"" height = ""600"" style=""position:fixed;top:50%; left:50%; transform: translate(-50%, -50%); border:5px solid black"">","","","","",""
"","stimuli-presentation","24","143035","0.0-11.0-1.6","SS1627327252429","","2772.0999999999767","trial","","40","500","3272.0999999999767","images/stimuli/complex_12_A_a.gif","images/stimuli/complex_15_A_b.gif","forced_short","750","","","","","","0","complex_dissimilar","images/stimuli/complex_15_A_b.gif","",""
"","html-keyboard-response","25","144331","0.0-11.0-0.7","SS1627327252429","","null","","","null","","","","","","","","","","","<p><img src= images/blank.png width =""600"" height = ""600"" style=""position:fixed;top:50%; left:50%; transform: translate(-50%, -50%); border:5px solid black"">","","","","",""
"","stimuli-presentation","26","147930","0.0-11.0-1.7","SS1627327252429","","3094.5","trial","","40","500","3594.5","images/stimuli/complex_12_A_a.gif","images/stimuli/complex_15_A_b.gif","forced_short","750","","","","","","0","complex_dissimilar","images/stimuli/complex_15_A_b.gif","",""
"","survey-multi-choice","27","151193","0.0-12.0","SS1627327252429","","3260.2999999999884","memory_test","","","","","","","","","{""Q0"":""No""}","[0]","images/stimuli/complex_19_A_b.gif","0","","","","","",""
"","survey-multi-choice","28","153602","0.0-13.0","SS1627327252429","","2394.7000000000116","memory_test","","","","","","","","","{""Q0"":""Yes""}","[0]","images/stimuli/complex_12_A_a.gif","0","","","","","",""
"","html-keyboard-response","29","154660","0.0-14.0-0.0","SS1627327252429","","null","","","null","","","","","","","","","","","<p><img src= images/blank.png width =""600"" height = ""600"" style=""position:fixed;top:50%; left:50%; transform: translate(-50%, -50%); border:5px solid black"">","","","","",""
"","stimuli-presentation","30","158178","0.0-14.0-1.0","SS1627327252429","","3374.600000000035","trial","","40","500","3874.600000000035","images/stimuli/complex_10_A_b.gif","images/stimuli/complex_20_A_a.gif","forced_short","130","","","","","","1","complex_dissimilar","images/stimuli/complex_20_A_a.gif","",""
"","html-keyboard-response","31","159132","0.0-14.0-0.1","SS1627327252429","","null","","","null","","","","","","","","","","","<p><img src= images/blank.png width =""600"" height = ""600"" style=""position:fixed;top:50%; left:50%; transform: translate(-50%, -50%); border:5px solid black"">","","","","",""
"","stimuli-presentation","32","166613","0.0-14.0-1.1","SS1627327252429","","6965.400000000023","trial","","40","500","7465.400000000023","images/stimuli/complex_10_A_b.gif","images/stimuli/complex_20_A_a.gif","forced_short","130","","","","","","1","complex_dissimilar","images/stimuli/complex_20_A_a.gif","",""
"","html-keyboard-response","33","167742","0.0-14.0-0.2","SS1627327252429","","null","","","null","","","","","","","","","","","<p><img src= images/blank.png width =""600"" height = ""600"" style=""position:fixed;top:50%; left:50%; transform: translate(-50%, -50%); border:5px solid black"">","","","","",""
"","stimuli-presentation","34","170841","0.0-14.0-1.2","SS1627327252429","","2589.7000000000116","trial","","40","500","3089.7000000000116","images/stimuli/complex_10_A_b.gif","images/stimuli/complex_20_A_a.gif","forced_short","130","","","","","","1","complex_dissimilar","images/stimuli/complex_20_A_a.gif","",""
"","html-keyboard-response","35","171706","0.0-14.0-0.3","SS1627327252429","","null","","","null","","","","","","","","","","","<p><img src= images/blank.png width =""600"" height = ""600"" style=""position:fixed;top:50%; left:50%; transform: translate(-50%, -50%); border:5px solid black"">","","","","",""
"","stimuli-presentation","36","176557","0.0-14.0-1.3","SS1627327252429","","4347.200000000012","trial","","40","500","4847.200000000012","images/stimuli/complex_10_A_b.gif","images/stimuli/complex_20_A_a.gif","forced_short","130","","","","","","1","complex_dissimilar","images/stimuli/complex_10_A_b.gif","",""
"","html-keyboard-response","37","177581","0.0-14.0-0.4","SS1627327252429","","null","","","null","","","","","","","","","","","<p><img src= images/blank.png width =""600"" height = ""600"" style=""position:fixed;top:50%; left:50%; transform: translate(-50%, -50%); border:5px solid black"">","","","","",""
"","stimuli-presentation","38","180110","0.0-14.0-1.4","SS1627327252429","","2007.7000000000116","trial","","40","500","2507.7000000000116","images/stimuli/complex_10_A_b.gif","images/stimuli/complex_20_A_a.gif","forced_short","130","","","","","","1","complex_dissimilar","images/stimuli/complex_20_A_a.gif","",""
"","html-keyboard-response","39","181199","0.0-14.0-0.5","SS1627327252429","","null","","","null","","","","","","","","","","","<p><img src= images/blank.png width =""600"" height = ""600"" style=""position:fixed;top:50%; left:50%; transform: translate(-50%, -50%); border:5px solid black"">","","","","",""
"","stimuli-presentation","40","183378","0.0-14.0-1.5","SS1627327252429","","1668.2999999999884","trial","","40","500","2168.2999999999884","images/stimuli/complex_10_A_b.gif","images/stimuli/complex_20_A_a.gif","forced_short","130","","","","","","1","complex_dissimilar","images/stimuli/complex_20_A_a.gif","",""
"","html-keyboard-response","41","184662","0.0-14.0-0.6","SS1627327252429","","null","","","null","","","","","","","","","","","<p><img src= images/blank.png width =""600"" height = ""600"" style=""position:fixed;top:50%; left:50%; transform: translate(-50%, -50%); border:5px solid black"">","","","","",""
"","stimuli-presentation","42","188066","0.0-14.0-1.6","SS1627327252429","","2900.5999999999767","trial","","40","500","3400.5999999999767","images/stimuli/complex_10_A_b.gif","images/stimuli/complex_20_A_a.gif","forced_short","130","","","","","","1","complex_dissimilar","images/stimuli/complex_20_A_a.gif","",""
"","survey-multi-choice","43","202484","0.0-15.0","SS1627327252429","","14415.20000000007","memory_test","","","","","","","","","{""Q0"":""Yes""}","[0]","images/stimuli/complex_18_A_a.gif","1","","","","","",""
"","survey-multi-choice","44","205006","0.0-16.0","SS1627327252429","","2505.1999999999534","memory_test","","","","","","","","","{""Q0"":""Yes""}","[0]","images/stimuli/complex_20_A_a.gif","1","","","","","",""
"","html-keyboard-response","45","206305","0.0-17.0-0.0","SS1627327252429","","null","","","null","","","","","","","","","","","<p><img src= images/blank.png width =""600"" height = ""600"" style=""position:fixed;top:50%; left:50%; transform: translate(-50%, -50%); border:5px solid black"">","","","","",""
"","stimuli-presentation","46","211215","0.0-17.0-1.0","SS1627327252429","","4452.599999999977","trial","","40","500","4952.599999999977","images/stimuli/complex_22_A_b.gif","images/stimuli/complex_05_A_a.gif","forced_short","450","","","","","","2","complex_dissimilar","images/stimuli/complex_05_A_a.gif","",""
"","html-keyboard-response","47","212220","0.0-17.0-0.1","SS1627327252429","","null","","","null","","","","","","","","","","","<p><img src= images/blank.png width =""600"" height = ""600"" style=""position:fixed;top:50%; left:50%; transform: translate(-50%, -50%); border:5px solid black"">","","","","",""
"","stimuli-presentation","48","216989","0.0-17.0-1.1","SS1627327252429","","4243.5","trial","","40","500","4743.5","images/stimuli/complex_22_A_b.gif","images/stimuli/complex_05_A_a.gif","forced_short","450","","","","","","2","complex_dissimilar","images/stimuli/complex_05_A_a.gif","",""
"","html-keyboard-response","49","218140","0.0-17.0-0.2","SS1627327252429","","null","","","null","","","","","","","","","","","<p><img src= images/blank.png width =""600"" height = ""600"" style=""position:fixed;top:50%; left:50%; transform: translate(-50%, -50%); border:5px solid black"">","","","","",""
"","stimuli-presentation","50","221137","0.0-17.0-1.2","SS1627327252429","","2487.5999999999767","trial","","40","500","2987.5999999999767","images/stimuli/complex_22_A_b.gif","images/stimuli/complex_05_A_a.gif","forced_short","450","","","","","","2","complex_dissimilar","images/stimuli/complex_05_A_a.gif","",""
"","html-keyboard-response","51","222406","0.0-17.0-0.3","SS1627327252429","","null","","","null","","","","","","","","","","","<p><img src= images/blank.png width =""600"" height = ""600"" style=""position:fixed;top:50%; left:50%; transform: translate(-50%, -50%); border:5px solid black"">","","","","",""
"","stimuli-presentation","52","224775","0.0-17.0-1.3","SS1627327252429","","1863.2000000000698","trial","","40","500","2363.20000000007","images/stimuli/complex_22_A_b.gif","images/stimuli/complex_05_A_a.gif","forced_short","450","","","","","","2","complex_dissimilar","images/stimuli/complex_05_A_a.gif","",""
"","html-keyboard-response","53","225840","0.0-17.0-0.4","SS1627327252429","","null","","","null","","","","","","","","","","","<p><img src= images/blank.png width =""600"" height = ""600"" style=""position:fixed;top:50%; left:50%; transform: translate(-50%, -50%); border:5px solid black"">","","","","",""
"","stimuli-presentation","54","230473","0.0-17.0-1.4","SS1627327252429","","4123.300000000047","trial","","40","500","4623.300000000047","images/stimuli/complex_22_A_b.gif","images/stimuli/complex_05_A_a.gif","forced_short","450","","","","","","2","complex_dissimilar","images/stimuli/complex_22_A_b.gif","",""
"","html-keyboard-response","55","231744","0.0-17.0-0.5","SS1627327252429","","null","","","null","","","","","","","","","","","<p><img src= images/blank.png width =""600"" height = ""600"" style=""position:fixed;top:50%; left:50%; transform: translate(-50%, -50%); border:5px solid black"">","","","","",""
"","stimuli-presentation","56","233253","0.0-17.0-1.5","SS1627327252429","","1003.5999999999767","trial","","40","500","1503.5999999999767","images/stimuli/complex_22_A_b.gif","images/stimuli/complex_05_A_a.gif","forced_short","450","","","","","","2","complex_dissimilar","images/stimuli/complex_22_A_b.gif","",""
"","html-keyboard-response","57","234415","0.0-17.0-0.6","SS1627327252429","","null","","","null","","","","","","","","","","","<p><img src= images/blank.png width =""600"" height = ""600"" style=""position:fixed;top:50%; left:50%; transform: translate(-50%, -50%); border:5px solid black"">","","","","",""
"","stimuli-presentation","58","236338","0.0-17.0-1.6","SS1627327252429","","1407.8000000000466","trial","","40","500","1907.8000000000466","images/stimuli/complex_22_A_b.gif","images/stimuli/complex_05_A_a.gif","forced_short","450","","","","","","2","complex_dissimilar","images/stimuli/complex_05_A_a.gif","",""
"","html-keyboard-response","59","237460","0.0-17.0-0.7","SS1627327252429","","null","","","null","","","","","","","","","","","<p><img src= images/blank.png width =""600"" height = ""600"" style=""position:fixed;top:50%; left:50%; transform: translate(-50%, -50%); border:5px solid black"">","","","","",""
"","stimuli-presentation","60","240330","0.0-17.0-1.7","SS1627327252429","","2360.1999999999534","trial","","40","500","2860.1999999999534","images/stimuli/complex_22_A_b.gif","images/stimuli/complex_05_A_a.gif","forced_short","450","","","","","","2","complex_dissimilar","images/stimuli/complex_05_A_a.gif","",""
"","survey-multi-choice","61","243576","0.0-18.0","SS1627327252429","","3242.1999999999534","memory_test","","","","","","","","","{""Q0"":""No""}","[0]","images/stimuli/complex_14_A_b.gif","2","","","","","",""
"","survey-multi-choice","62","245694","0.0-19.0","SS1627327252429","","2110.1999999999534","memory_test","","","","","","","","","{""Q0"":""Yes""}","[0]","images/stimuli/complex_22_A_b.gif","2","","","","","",""
"","html-keyboard-response","63","246515","0.0-20.0-0.0","SS1627327252429","","null","","","null","","","","","","","","","","","<p><img src= images/blank.png width =""600"" height = ""600"" style=""position:fixed;top:50%; left:50%; transform: translate(-50%, -50%); border:5px solid black"">","","","","",""
"","stimuli-presentation","64","249434","0.0-20.0-1.0","SS1627327252429","","2853","trial","","40","500","3353","images/stimuli/complex_16_A_a.gif","images/stimuli/complex_23_A_a.gif","forced_short","60","","","","","","3","complex_dissimilar","images/stimuli/complex_23_A_a.gif","",""
"","html-keyboard-response","65","250450","0.0-20.0-0.1","SS1627327252429","","null","","","null","","","","","","","","","","","<p><img src= images/blank.png width =""600"" height = ""600"" style=""position:fixed;top:50%; left:50%; transform: translate(-50%, -50%); border:5px solid black"">","","","","",""
"","stimuli-presentation","66","254747","0.0-20.0-1.1","SS1627327252429","","3791.600000000093","trial","","40","500","4291.600000000093","images/stimuli/complex_16_A_a.gif","images/stimuli/complex_23_A_a.gif","forced_short","60","","","","","","3","complex_dissimilar","images/stimuli/complex_23_A_a.gif","",""
"","html-keyboard-response","67","255611","0.0-20.0-0.2","SS1627327252429","","null","","","null","","","","","","","","","","","<p><img src= images/blank.png width =""600"" height = ""600"" style=""position:fixed;top:50%; left:50%; transform: translate(-50%, -50%); border:5px solid black"">","","","","",""
"","stimuli-presentation","68","257230","0.0-20.0-1.2","SS1627327252429","","1100.2000000000698","trial","","40","500","1600.2000000000698","images/stimuli/complex_16_A_a.gif","images/stimuli/complex_23_A_a.gif","forced_short","60","","","","","","3","complex_dissimilar","images/stimuli/complex_23_A_a.gif","",""
"","html-keyboard-response","69","258249","0.0-20.0-0.3","SS1627327252429","","null","","","null","","","","","","","","","","","<p><img src= images/blank.png width =""600"" height = ""600"" style=""position:fixed;top:50%; left:50%; transform: translate(-50%, -50%); border:5px solid black"">","","","","",""
"","stimuli-presentation","70","261035","0.0-20.0-1.3","SS1627327252429","","2269.5","trial","","40","500","2769.5","images/stimuli/complex_16_A_a.gif","images/stimuli/complex_23_A_a.gif","forced_short","60","","","","","","3","complex_dissimilar","images/stimuli/complex_23_A_a.gif","",""
"","html-keyboard-response","71","262129","0.0-20.0-0.4","SS1627327252429","","null","","","null","","","","","","","","","","","<p><img src= images/blank.png width =""600"" height = ""600"" style=""position:fixed;top:50%; left:50%; transform: translate(-50%, -50%); border:5px solid black"">","","","","",""
"","stimuli-presentation","72","264120","0.0-20.0-1.4","SS1627327252429","","1479.9000000000233","trial","","40","500","1979.9000000000233","images/stimuli/complex_16_A_a.gif","images/stimuli/complex_23_A_a.gif","forced_short","60","","","","","","3","complex_dissimilar","images/stimuli/complex_23_A_a.gif","",""
"","html-keyboard-response","73","265194","0.0-20.0-0.5","SS1627327252429","","null","","","null","","","","","","","","","","","<p><img src= images/blank.png width =""600"" height = ""600"" style=""position:fixed;top:50%; left:50%; transform: translate(-50%, -50%); border:5px solid black"">","","","","",""
"","stimuli-presentation","74","267828","0.0-20.0-1.5","SS1627327252429","","2122.6999999999534","trial","","40","500","2622.6999999999534","images/stimuli/complex_16_A_a.gif","images/stimuli/complex_23_A_a.gif","forced_short","60","","","","","","3","complex_dissimilar","images/stimuli/complex_23_A_a.gif","",""
"","html-keyboard-response","75","268691","0.0-20.0-0.6","SS1627327252429","","null","","","null","","","","","","","","","","","<p><img src= images/blank.png width =""600"" height = ""600"" style=""position:fixed;top:50%; left:50%; transform: translate(-50%, -50%); border:5px solid black"">","","","","",""
"","stimuli-presentation","76","270278","0.0-20.0-1.6","SS1627327252429","","1076.5","trial","","40","500","1576.5","images/stimuli/complex_16_A_a.gif","images/stimuli/complex_23_A_a.gif","forced_short","60","","","","","","3","complex_dissimilar","images/stimuli/complex_23_A_a.gif","",""
"","html-keyboard-response","77","271516","0.0-20.0-0.7","SS1627327252429","","null","","","null","","","","","","","","","","","<p><img src= images/blank.png width =""600"" height = ""600"" style=""position:fixed;top:50%; left:50%; transform: translate(-50%, -50%); border:5px solid black"">","","","","",""
"","stimuli-presentation","78","273087","0.0-20.0-1.7","SS1627327252429","","1060.4000000000233","trial","","40","500","1560.4000000000233","images/stimuli/complex_16_A_a.gif","images/stimuli/complex_23_A_a.gif","forced_short","60","","","","","","3","complex_dissimilar","images/stimuli/complex_23_A_a.gif","",""
"","survey-multi-choice","79","276292","0.0-21.0","SS1627327252429","","3194.8000000000466","memory_test","","","","","","","","","{""Q0"":""Yes""}","[0]","images/stimuli/complex_23_A_a.gif","3","","","","","",""
"","survey-multi-choice","80","280396","0.0-22.0","SS1627327252429","","4085.4000000000233","memory_test","","","","","","","","","{""Q0"":""No""}","[0]","images/stimuli/complex_13_A_a.gif","3","","","","","",""
"","html-keyboard-response","81","281590","0.0-23.0-0.0","SS1627327252429","","null","","","null","","","","","","","","","","","<p><img src= images/blank.png width =""600"" height = ""600"" style=""position:fixed;top:50%; left:50%; transform: translate(-50%, -50%); border:5px solid black"">","","","","",""
"","stimuli-presentation","82","284173","0.0-23.0-1.0","SS1627327252429","","2522.3000000000466","trial","","40","500","3022.3000000000466","images/stimuli/complex_24_A_b.gif","images/stimuli/complex_08_A_a.gif","forced_short","50","","","","","","4","complex_dissimilar","images/stimuli/complex_08_A_a.gif","",""
"","html-keyboard-response","83","285227","0.0-23.0-0.1","SS1627327252429","","null","","","null","","","","","","","","","","","<p><img src= images/blank.png width =""600"" height = ""600"" style=""position:fixed;top:50%; left:50%; transform: translate(-50%, -50%); border:5px solid black"">","","","","",""
"","stimuli-presentation","84","290370","0.0-23.0-1.1","SS1627327252429","","4634.100000000093","trial","","40","500","5134.100000000093","images/stimuli/complex_24_A_b.gif","images/stimuli/complex_08_A_a.gif","forced_short","50","","","","","","4","complex_dissimilar","images/stimuli/complex_08_A_a.gif","",""
"","html-keyboard-response","85","291419","0.0-23.0-0.2","SS1627327252429","","null","","","null","","","","","","","","","","","<p><img src= images/blank.png width =""600"" height = ""600"" style=""position:fixed;top:50%; left:50%; transform: translate(-50%, -50%); border:5px solid black"">","","","","",""
"","stimuli-presentation","86","294596","0.0-23.0-1.2","SS1627327252429","","2659","trial","","40","500","3159","images/stimuli/complex_24_A_b.gif","images/stimuli/complex_08_A_a.gif","forced_short","50","","","","","","4","complex_dissimilar","images/stimuli/complex_08_A_a.gif","",""
"","html-keyboard-response","87","295689","0.0-23.0-0.3","SS1627327252429","","null","","","null","","","","","","","","","","","<p><img src= images/blank.png width =""600"" height = ""600"" style=""position:fixed;top:50%; left:50%; transform: translate(-50%, -50%); border:5px solid black"">","","","","",""
"","stimuli-presentation","88","299564","0.0-23.0-1.3","SS1627327252429","","3363.9000000000233","trial","","40","500","3863.9000000000233","images/stimuli/complex_24_A_b.gif","images/stimuli/complex_08_A_a.gif","forced_short","50","","","","","","4","complex_dissimilar","images/stimuli/complex_08_A_a.gif","",""
"","html-keyboard-response","89","300629","0.0-23.0-0.4","SS1627327252429","","null","","","null","","","","","","","","","","","<p><img src= images/blank.png width =""600"" height = ""600"" style=""position:fixed;top:50%; left:50%; transform: translate(-50%, -50%); border:5px solid black"">","","","","",""
"","stimuli-presentation","90","303844","0.0-23.0-1.4","SS1627327252429","","2701.0999999999767","trial","","40","500","3201.0999999999767","images/stimuli/complex_24_A_b.gif","images/stimuli/complex_08_A_a.gif","forced_short","50","","","","","","4","complex_dissimilar","images/stimuli/complex_08_A_a.gif","",""
"","html-keyboard-response","91","304995","0.0-23.0-0.5","SS1627327252429","","null","","","null","","","","","","","","","","","<p><img src= images/blank.png width =""600"" height = ""600"" style=""position:fixed;top:50%; left:50%; transform: translate(-50%, -50%); border:5px solid black"">","","","","",""
"","stimuli-presentation","92","306982","0.0-23.0-1.5","SS1627327252429","","1477.1000000000931","trial","","40","500","1977.1000000000931","images/stimuli/complex_24_A_b.gif","images/stimuli/complex_08_A_a.gif","forced_short","50","","","","","","4","complex_dissimilar","images/stimuli/complex_08_A_a.gif","",""
"","html-keyboard-response","93","307887","0.0-23.0-0.6","SS1627327252429","","null","","","null","","","","","","","","","","","<p><img src= images/blank.png width =""600"" height = ""600"" style=""position:fixed;top:50%; left:50%; transform: translate(-50%, -50%); border:5px solid black"">","","","","",""
"","stimuli-presentation","94","309802","0.0-23.0-1.6","SS1627327252429","","1409.6999999999534","trial","","40","500","1909.6999999999534","images/stimuli/complex_24_A_b.gif","images/stimuli/complex_08_A_a.gif","forced_short","50","","","","","","4","complex_dissimilar","images/stimuli/complex_08_A_a.gif","",""
"","html-keyboard-response","95","310730","0.0-23.0-0.7","SS1627327252429","","null","","","null","","","","","","","","","","","<p><img src= images/blank.png width =""600"" height = ""600"" style=""position:fixed;top:50%; left:50%; transform: translate(-50%, -50%); border:5px solid black"">","","","","",""
"","stimuli-presentation","96","314090","0.0-23.0-1.7","SS1627327252429","","2840.5999999999767","trial","","40","500","3340.5999999999767","images/stimuli/complex_24_A_b.gif","images/stimuli/complex_08_A_a.gif","forced_short","50","","","","","","4","complex_dissimilar","images/stimuli/complex_08_A_a.gif","",""
"","survey-multi-choice","97","318737","0.0-24.0","SS1627327252429","","4639.29999999993","memory_test","","","","","","","","","{""Q0"":""No""}","[0]","images/stimuli/complex_03_A_b.gif","4","","","","","",""
"","survey-multi-choice","98","320629","0.0-25.0","SS1627327252429","","1873.6999999999534","memory_test","","","","","","","","","{""Q0"":""Yes""}","[0]","images/stimuli/complex_08_A_a.gif","4","","","","","",""
"","html-keyboard-response","99","321882","0.0-26.0-0.0","SS1627327252429","","null","","","null","","","","","","","","","","","<p><img src= images/blank.png width =""600"" height = ""600"" style=""position:fixed;top:50%; left:50%; transform: translate(-50%, -50%); border:5px solid black"">","","","","",""
"","stimuli-presentation","100","324917","0.0-26.0-1.0","SS1627327252429","","2473.0999999999767","trial","","40","500","2973.0999999999767","images/stimuli/complex_21_A_b.gif","images/stimuli/complex_17_A_a.gif","forced_short","550","","","","","","5","complex_dissimilar","images/stimuli/complex_17_A_a.gif","",""
"","html-keyboard-response","101","325879","0.0-26.0-0.1","SS1627327252429","","null","","","null","","","","","","","","","","","<p><img src= images/blank.png width =""600"" height = ""600"" style=""position:fixed;top:50%; left:50%; transform: translate(-50%, -50%); border:5px solid black"">","","","","",""
"","stimuli-presentation","102","329450","0.0-26.0-1.1","SS1627327252429","","3052.9000000000233","trial","","40","500","3552.9000000000233","images/stimuli/complex_21_A_b.gif","images/stimuli/complex_17_A_a.gif","forced_short","550","","","","","","5","complex_dissimilar","images/stimuli/complex_17_A_a.gif","",""
"","html-keyboard-response","103","330644","0.0-26.0-0.2","SS1627327252429","","null","","","null","","","","","","","","","","","<p><img src= images/blank.png width =""600"" height = ""600"" style=""position:fixed;top:50%; left:50%; transform: translate(-50%, -50%); border:5px solid black"">","","","","",""
"","stimuli-presentation","104","334455","0.0-26.0-1.2","SS1627327252429","","3303","trial","","40","500","3803","images/stimuli/complex_21_A_b.gif","images/stimuli/complex_17_A_a.gif","forced_short","550","","","","","","5","complex_dissimilar","images/stimuli/complex_17_A_a.gif","",""
"","html-keyboard-response","105","335424","0.0-26.0-0.3","SS1627327252429","","null","","","null","","","","","","","","","","","<p><img src= images/blank.png width =""600"" height = ""600"" style=""position:fixed;top:50%; left:50%; transform: translate(-50%, -50%); border:5px solid black"">","","","","",""
"","stimuli-presentation","106","337194","0.0-26.0-1.3","SS1627327252429","","1256.3999999999069","trial","","40","500","1756.3999999999069","images/stimuli/complex_21_A_b.gif","images/stimuli/complex_17_A_a.gif","forced_short","550","","","","","","5","complex_dissimilar","images/stimuli/complex_17_A_a.gif","",""
"","html-keyboard-response","107","338045","0.0-26.0-0.4","SS1627327252429","","null","","","null","","","","","","","","","","","<p><img src= images/blank.png width =""600"" height = ""600"" style=""position:fixed;top:50%; left:50%; transform: translate(-50%, -50%); border:5px solid black"">","","","","",""
"","stimuli-presentation","108","340664","0.0-26.0-1.4","SS1627327252429","","2097","trial","","40","500","2597","images/stimuli/complex_21_A_b.gif","images/stimuli/complex_17_A_a.gif","forced_short","550","","","","","","5","complex_dissimilar","images/stimuli/complex_17_A_a.gif","",""
"","html-keyboard-response","109","341829","0.0-26.0-0.5","SS1627327252429","","null","","","null","","","","","","","","","","","<p><img src= images/blank.png width =""600"" height = ""600"" style=""position:fixed;top:50%; left:50%; transform: translate(-50%, -50%); border:5px solid black"">","","","","",""
"","stimuli-presentation","110","345669","0.0-26.0-1.5","SS1627327252429","","3323.1999999999534","trial","","40","500","3823.1999999999534","images/stimuli/complex_21_A_b.gif","images/stimuli/complex_17_A_a.gif","forced_short","550","","","","","","5","complex_dissimilar","images/stimuli/complex_17_A_a.gif","",""
"","html-keyboard-response","111","346501","0.0-26.0-0.6","SS1627327252429","","null","","","null","","","","","","","","","","","<p><img src= images/blank.png width =""600"" height = ""600"" style=""position:fixed;top:50%; left:50%; transform: translate(-50%, -50%); border:5px solid black"">","","","","",""
"","stimuli-presentation","112","348333","0.0-26.0-1.6","SS1627327252429","","1315","trial","","40","500","1815","images/stimuli/complex_21_A_b.gif","images/stimuli/complex_17_A_a.gif","forced_short","550","","","","","","5","complex_dissimilar","images/stimuli/complex_17_A_a.gif","",""
"","survey-multi-choice","113","351152","0.0-27.0","SS1627327252429","","2810.9000000000233","memory_test","","","","","","","","","{""Q0"":""Yes""}","[0]","images/stimuli/complex_17_A_a.gif","5","","","","","",""
"","survey-multi-choice","114","357862","0.0-28.0","SS1627327252429","","6691.29999999993","memory_test","","","","","","","","","{""Q0"":""No""}","[0]","images/stimuli/complex_02_A_a.gif","5","","","","","",""
"","html-keyboard-response","115","358704","0.0-29.0-0.0","SS1627327252429","","null","","","null","","","","","","","","","","","<p><img src= images/blank.png width =""600"" height = ""600"" style=""position:fixed;top:50%; left:50%; transform: translate(-50%, -50%); border:5px solid black"">","","","","",""
"","stimuli-presentation","116","361324","0.0-29.0-1.0","SS1627327252429","","1741.7999999999302","trial","","40","500","2241.79999999993","images/stimuli/complex_11_A_a.gif","images/stimuli/complex_09_A_a.gif","forced_short","860","","","","","","6","complex_dissimilar","images/stimuli/complex_09_A_a.gif","",""
"","html-keyboard-response","117","362530","0.0-29.0-0.1","SS1627327252429","","null","","","null","","","","","","","","","","","<p><img src= images/blank.png width =""600"" height = ""600"" style=""position:fixed;top:50%; left:50%; transform: translate(-50%, -50%); border:5px solid black"">","","","","",""
"","stimuli-presentation","118","365901","0.0-29.0-1.1","SS1627327252429","","2857.8000000000466","trial","","40","500","3357.8000000000466","images/stimuli/complex_11_A_a.gif","images/stimuli/complex_09_A_a.gif","forced_short","860","","","","","","6","complex_dissimilar","images/stimuli/complex_09_A_a.gif","",""
"","html-keyboard-response","119","366986","0.0-29.0-0.2","SS1627327252429","","null","","","null","","","","","","","","","","","<p><img src= images/blank.png width =""600"" height = ""600"" style=""position:fixed;top:50%; left:50%; transform: translate(-50%, -50%); border:5px solid black"">","","","","",""
"","stimuli-presentation","120","368241","0.0-29.0-1.2","SS1627327252429","","740.2000000000698","trial","","40","500","1240.2000000000698","images/stimuli/complex_11_A_a.gif","images/stimuli/complex_09_A_a.gif","forced_short","860","","","","","","6","complex_dissimilar","images/stimuli/complex_09_A_a.gif","",""
"","html-keyboard-response","121","369416","0.0-29.0-0.3","SS1627327252429","","null","","","null","","","","","","","","","","","<p><img src= images/blank.png width =""600"" height = ""600"" style=""position:fixed;top:50%; left:50%; transform: translate(-50%, -50%); border:5px solid black"">","","","","",""
"","stimuli-presentation","122","370901","0.0-29.0-1.3","SS1627327252429","","976.2000000000698","trial","","40","500","1476.2000000000698","images/stimuli/complex_11_A_a.gif","images/stimuli/complex_09_A_a.gif","forced_short","860","","","","","","6","complex_dissimilar","images/stimuli/complex_09_A_a.gif","",""
"","html-keyboard-response","123","372146","0.0-29.0-0.4","SS1627327252429","","null","","","null","","","","","","","","","","","<p><img src= images/blank.png width =""600"" height = ""600"" style=""position:fixed;top:50%; left:50%; transform: translate(-50%, -50%); border:5px solid black"">","","","","",""
"","stimuli-presentation","124","375040","0.0-29.0-1.4","SS1627327252429","","2385","trial","","40","500","2885","images/stimuli/complex_11_A_a.gif","images/stimuli/complex_09_A_a.gif","forced_short","860","","","","","","6","complex_dissimilar","images/stimuli/complex_09_A_a.gif","",""
"","html-keyboard-response","125","376244","0.0-29.0-0.5","SS1627327252429","","null","","","null","","","","","","","","","","","<p><img src= images/blank.png width =""600"" height = ""600"" style=""position:fixed;top:50%; left:50%; transform: translate(-50%, -50%); border:5px solid black"">","","","","",""
"","stimuli-presentation","126","378868","0.0-29.0-1.5","SS1627327252429","","2112.6999999999534","trial","","40","500","2612.6999999999534","images/stimuli/complex_11_A_a.gif","images/stimuli/complex_09_A_a.gif","forced_short","860","","","","","","6","complex_dissimilar","images/stimuli/complex_09_A_a.gif","",""
"","html-keyboard-response","127","379843","0.0-29.0-0.6","SS1627327252429","","null","","","null","","","","","","","","","","","<p><img src= images/blank.png width =""600"" height = ""600"" style=""position:fixed;top:50%; left:50%; transform: translate(-50%, -50%); border:5px solid black"">","","","","",""
"","stimuli-presentation","128","381574","0.0-29.0-1.6","SS1627327252429","","1221","trial","","40","500","1721","images/stimuli/complex_11_A_a.gif","images/stimuli/complex_09_A_a.gif","forced_short","860","","","","","","6","complex_dissimilar","images/stimuli/complex_09_A_a.gif","",""
"","html-keyboard-response","129","382830","0.0-29.0-0.7","SS1627327252429","","null","","","null","","","","","","","","","","","<p><img src= images/blank.png width =""600"" height = ""600"" style=""position:fixed;top:50%; left:50%; transform: translate(-50%, -50%); border:5px solid black"">","","","","",""
"","stimuli-presentation","130","388951","0.0-29.0-1.7","SS1627327252429","","5608.199999999953","trial","","40","500","6108.199999999953","images/stimuli/complex_11_A_a.gif","images/stimuli/complex_09_A_a.gif","forced_short","860","","","","","","6","complex_dissimilar","images/stimuli/complex_11_A_a.gif","",""
"","survey-multi-choice","131","392216","0.0-30.0","SS1627327252429","","3255.70000000007","memory_test","","","","","","","","","{""Q0"":""Yes""}","[0]","images/stimuli/complex_09_A_a.gif","6","","","","","",""
"","survey-multi-choice","132","396748","0.0-31.0","SS1627327252429","","4509.800000000047","memory_test","","","","","","","","","{""Q0"":""No""}","[0]","images/stimuli/complex_07_A_b.gif","6","","","","","",""
"","html-keyboard-response","133","398016","0.0-32.0-0.0","SS1627327252429","","null","","","null","","","","","","","","","","","<p><img src= images/blank.png width =""600"" height = ""600"" style=""position:fixed;top:50%; left:50%; transform: translate(-50%, -50%); border:5px solid black"">","","","","",""
"","stimuli-presentation","134","400497","0.0-32.0-1.0","SS1627327252429","","2148.100000000093","trial","","40","500","2648.100000000093","images/stimuli/complex_06_A_a.gif","images/stimuli/complex_01_A_b.gif","forced_short","310","","","","","","7","complex_dissimilar","images/stimuli/complex_01_A_b.gif","",""
"","html-keyboard-response","135","401454","0.0-32.0-0.1","SS1627327252429","","null","","","null","","","","","","","","","","","<p><img src= images/blank.png width =""600"" height = ""600"" style=""position:fixed;top:50%; left:50%; transform: translate(-50%, -50%); border:5px solid black"">","","","","",""
"","stimuli-presentation","136","405010","0.0-32.0-1.1","SS1627327252429","","3033.4000000000233","trial","","40","500","3533.4000000000233","images/stimuli/complex_06_A_a.gif","images/stimuli/complex_01_A_b.gif","forced_short","310","","","","","","7","complex_dissimilar","images/stimuli/complex_01_A_b.gif","",""
"","html-keyboard-response","137","406236","0.0-32.0-0.2","SS1627327252429","","null","","","null","","","","","","","","","","","<p><img src= images/blank.png width =""600"" height = ""600"" style=""position:fixed;top:50%; left:50%; transform: translate(-50%, -50%); border:5px solid black"">","","","","",""
"","stimuli-presentation","138","408968","0.0-32.0-1.2","SS1627327252429","","2217.4000000000233","trial","","40","500","2717.4000000000233","images/stimuli/complex_06_A_a.gif","images/stimuli/complex_01_A_b.gif","forced_short","310","","","","","","7","complex_dissimilar","images/stimuli/complex_01_A_b.gif","",""
"","html-keyboard-response","139","410081","0.0-32.0-0.3","SS1627327252429","","null","","","null","","","","","","","","","","","<p><img src= images/blank.png width =""600"" height = ""600"" style=""position:fixed;top:50%; left:50%; transform: translate(-50%, -50%); border:5px solid black"">","","","","",""
"","stimuli-presentation","140","411919","0.0-32.0-1.3","SS1627327252429","","1325.5","trial","","40","500","1825.5","images/stimuli/complex_06_A_a.gif","images/stimuli/complex_01_A_b.gif","forced_short","310","","","","","","7","complex_dissimilar","images/stimuli/complex_01_A_b.gif","",""
"","html-keyboard-response","141","413099","0.0-32.0-0.4","SS1627327252429","","null","","","null","","","","","","","","","","","<p><img src= images/blank.png width =""600"" height = ""600"" style=""position:fixed;top:50%; left:50%; transform: translate(-50%, -50%); border:5px solid black"">","","","","",""
"","stimuli-presentation","142","419946","0.0-32.0-1.4","SS1627327252429","","6330.800000000047","trial","","40","500","6830.800000000047","images/stimuli/complex_06_A_a.gif","images/stimuli/complex_01_A_b.gif","forced_short","310","","","","","","7","complex_dissimilar","images/stimuli/complex_06_A_a.gif","",""
"","html-keyboard-response","143","421011","0.0-32.0-0.5","SS1627327252429","","null","","","null","","","","","","","","","","","<p><img src= images/blank.png width =""600"" height = ""600"" style=""position:fixed;top:50%; left:50%; transform: translate(-50%, -50%); border:5px solid black"">","","","","",""
"","stimuli-presentation","144","423297","0.0-32.0-1.5","SS1627327252429","","1770.7000000000698","trial","","40","500","2270.70000000007","images/stimuli/complex_06_A_a.gif","images/stimuli/complex_01_A_b.gif","forced_short","310","","","","","","7","complex_dissimilar","images/stimuli/complex_01_A_b.gif","",""
"","html-keyboard-response","145","424439","0.0-32.0-0.6","SS1627327252429","","null","","","null","","","","","","","","","","","<p><img src= images/blank.png width =""600"" height = ""600"" style=""position:fixed;top:50%; left:50%; transform: translate(-50%, -50%); border:5px solid black"">","","","","",""
"","stimuli-presentation","146","425110","0.0-32.0-1.6","SS1627327252429","","155.80000000004657","trial","","40","500","655.8000000000466","images/stimuli/complex_06_A_a.gif","images/stimuli/complex_01_A_b.gif","forced_short","310","","","","","","7","complex_dissimilar","images/stimuli/complex_01_A_b.gif","",""
"","survey-multi-choice","147","427582","0.0-33.0","SS1627327252429","","2463.4000000000233","memory_test","","","","","","","","","{""Q0"":""Yes""}","[0]","images/stimuli/complex_01_A_b.gif","7","","","","","",""
"","survey-multi-choice","148","435230","0.0-34.0","SS1627327252429","","7638.29999999993","memory_test","","","","","","","","","{""Q0"":""No""}","[0]","images/stimuli/complex_04_A_b.gif","7","","","","","",""
"","instructions","149","440119","0.0-35.0","SS1627327252429","[{""page_index"":0,""viewing_time"":4878.699999999953}]","4879.199999999953","instructions","","","","","","","","","","","","","","","","","",""
"","survey-likert","150","459392","0.0-36.0","SS1627327252429","","19267","similarity_question","","","","","","","","","{""Q0"":2}","[0]","","","","","","","images/stimuli/complex_12_A_a.gif","images/stimuli/complex_15_A_b.gif"
"","survey-likert","151","480912","0.0-37.0","SS1627327252429","","21505.199999999953","similarity_question","","","","","","","","","{""Q0"":1}","[0]","","","","","","","images/stimuli/complex_21_A_b.gif","images/stimuli/complex_17_A_a.gif"
"","survey-likert","152","490959","0.0-38.0","SS1627327252429","","10023.800000000047","similarity_question","","","","","","","","","{""Q0"":0}","[0]","","","","","","","images/stimuli/complex_11_A_a.gif","images/stimuli/complex_09_A_a.gif"
"","survey-likert","153","499048","0.0-39.0","SS1627327252429","","8062.099999999977","similarity_question","","","","","","","","","{""Q0"":5}","[0]","","","","","","","images/stimuli/complex_24_A_b.gif","images/stimuli/complex_08_A_a.gif"
"","survey-likert","154","506214","0.0-40.0","SS1627327252429","","7149.599999999977","similarity_question","","","","","","","","","{""Q0"":1}","[0]","","","","","","","images/stimuli/complex_01_A_b.gif","images/stimuli/complex_06_A_a.gif"
"","survey-likert","155","517228","0.0-41.0","SS1627327252429","","11002.399999999907","similarity_question","","","","","","","","","{""Q0"":0}","[0]","","","","","","","images/stimuli/complex_16_A_a.gif","images/stimuli/complex_23_A_a.gif"
"","survey-likert","156","524168","0.0-42.0","SS1627327252429","","6926.099999999977","similarity_question","","","","","","","","","{""Q0"":1}","[0]","","","","","","","images/stimuli/complex_05_A_a.gif","images/stimuli/complex_22_A_b.gif"
"","survey-likert","157","531606","0.0-43.0","SS1627327252429","","7418.29999999993","similarity_question","","","","","","","","","{""Q0"":6}","[0]","","","","","","","images/stimuli/complex_20_A_a.gif","images/stimuli/complex_10_A_b.gif"
"","instructions","158","536424","0.0-44.0","SS1627327252429","[{""page_index"":0,""viewing_time"":4795}]","4795.800000000047","instructions","","","","","","","","","","","","","","","","","",""
"","survey-likert","159","545374","0.0-45.0","SS1627327252429","","8939.300000000047","","","","","","","","","","{""Q0"":4}","[0]","","","images/stimuli/complex_09_A_a.gif","","","","",""
"","survey-likert","160","552046","0.0-46.0","SS1627327252429","","6651.900000000023","","","","","","","","","","{""Q0"":6}","[0]","","","images/stimuli/complex_23_A_a.gif","","","","",""
"","survey-likert","161","561491","0.0-47.0","SS1627327252429","","9423.900000000023","","","","","","","","","","{""Q0"":4}","[0]","","","images/stimuli/complex_22_A_b.gif","","","","",""
"","survey-likert","162","568455","0.0-48.0","SS1627327252429","","6942.900000000023","","","","","","","","","","{""Q0"":2}","[0]","","","images/stimuli/complex_24_A_b.gif","","","","",""
"","survey-likert","163","575146","0.0-49.0","SS1627327252429","","6669.900000000023","","","","","","","","","","{""Q0"":4}","[0]","","","images/stimuli/complex_20_A_a.gif","","","","",""
"","survey-likert","164","581054","0.0-50.0","SS1627327252429","","5886.29999999993","","","","","","","","","","{""Q0"":6}","[0]","","","images/stimuli/complex_15_A_b.gif","","","","",""
"","survey-likert","165","586517","0.0-51.0","SS1627327252429","","5441.199999999953","","","","","","","","","","{""Q0"":4}","[0]","","","images/stimuli/complex_01_A_b.gif","","","","",""
"","survey-likert","166","591231","0.0-52.0","SS1627327252429","","4692.699999999953","","","","","","","","","","{""Q0"":6}","[0]","","","images/stimuli/complex_17_A_a.gif","","","","",""
"true","fullscreen","167","592253","0.0-53.0","SS1627327252429","","","","","","","","","","","","","","","","","","","","",""
"","instructions","168","594965","0.0-54.0","SS1627327252429","[{""page_index"":0,""viewing_time"":2705}]","2705.5999999999767","instructions","","","","","","","","","","","","","","","","","",""
"","demog-age","169","597676","0.0-55.0","SS1627327252429","","2698.5","","","","","","","","","","{""age"":""23""}","","","","","","","","",""
"","demog-ethnic-US","170","603163","0.0-56.0","SS1627327252429","","5455.70000000007","","","","","","","","","","{""ethnicity"":[""Hispanic or Latino""]}","[0]","","","","","","","",""
"","demog-gender-and-education","171","614571","0.0-57.0","SS1627327252429","","11388.300000000047","","","","","","","","","","{""gender"":""Female"",""education"":""Bachelor's Degree""}","[0,1]","","","","","","","",""
"","survey-text","172","640601","0.0-58.0","SS1627327252429","","26022.100000000093","feedback","","","","","","","","","{""Q0"":""none of those things but it was interesting""}","","","","","","","","",""
"","instructions","173","642624","0.0-59.0","SS1627327252429","[{""page_index"":0,""viewing_time"":2012.3000000000466}]","2013.2000000000698","instructions","","","","","","","","","","","","","","","","","",""
