"success","trial_type","trial_index","time_elapsed","internal_node_id","subject","view_history","rt","stimulus_type","trial_stimulus","key_press","minimum_viewing_duration","trial_looking_time","block_deviant","block_background","exposure_type","forced_exposure_time","responses","question_order","memory_question_stimuli","memory_block_index","stimulus","block_number","block_type","stimulus_displayed","stimulus_left","stimulus_right"
"true","fullscreen","0","3659","0.0-0.0","SS1627326659646","","","","","","","","","","","","","","","","","","","","",""
"","instructions","1","13108","0.0-1.0","SS1627326659646","[{""page_index"":0,""viewing_time"":9444.600000023842}]","9446.200000047684","","","","","","","","","","","","","","","","","","",""
"","instructions","2","22670","0.0-2.0","SS1627326659646","[{""page_index"":0,""viewing_time"":4128.199999928474},{""page_index"":1,""viewing_time"":3432}]","7560.5","instructions","","","","","","","","","","","","","","","","","",""
"","stimuli-presentation","3","35022","0.0-3.0","SS1627326659646","","11847.700000047684","","","40","500","12347.700000047684","null","null","self_paced","0","","","","","","","","","",""
"","instructions","4","36988","0.0-4.0","SS1627326659646","[{""page_index"":0,""viewing_time"":1964.8999999761581}]","1965.1999999284744","instructions","","","","","","","","","","","","","","","","","",""
"","stimuli-presentation","5","39197","0.0-5.0","SS1627326659646","","1703.5","","","40","500","2203.5","null","null","forced_short","500","","","","","","","","","",""
"","stimuli-presentation","6","41664","0.0-6.0","SS1627326659646","","1963.5","","","40","500","2463.5","null","null","forced_short","500","","","","","","","","","",""
"","instructions","7","49244","0.0-7.0","SS1627326659646","[{""page_index"":0,""viewing_time"":7577.899999976158}]","7578.300000071526","instructions","","","","","","","","","","","","","","","","","",""
"","survey-multi-choice","8","55912","0.0-8.0","SS1627326659646","","6663.400000095367","memory_test_practice","","","","","","","","","{""Q0"":""Yes""}","[0]","images/practice/instructions_example_spore2.gif","0","","","","","",""
"","survey-multi-choice","9","60403","0.0-9.0","SS1627326659646","","4487.100000023842","memory_test_practice","","","","","","","","","{""Q0"":""No""}","[0]","images/practice/instructions_example_spore0.gif","0","","","","","",""
"","instructions","10","81426","0.0-10.0","SS1627326659646","[{""page_index"":0,""viewing_time"":11334.899999976158},{""page_index"":1,""viewing_time"":9685}]","21020.300000071526","instructions","","","","","","","","","","","","","","","","","",""
"","html-keyboard-response","11","82586","0.0-11.0-0.0","SS1627326659646","","null","","","null","","","","","","","","","","","<p><img src= images/blank.png width =""600"" height = ""600"" style=""position:fixed;top:50%; left:50%; transform: translate(-50%, -50%); border:5px solid black"">","","","","",""
"","stimuli-presentation","12","98571","0.0-11.0-1.0","SS1627326659646","","15206.300000071526","trial","","40","500","15706.300000071526","images/stimuli/complex_14_A_a.gif","images/stimuli/complex_16_A_b.gif","forced_short","770","","","","","","0","complex_dissimilar","images/stimuli/complex_16_A_b.gif","",""
"","html-keyboard-response","13","99381","0.0-11.0-0.1","SS1627326659646","","null","","","null","","","","","","","","","","","<p><img src= images/blank.png width =""600"" height = ""600"" style=""position:fixed;top:50%; left:50%; transform: translate(-50%, -50%); border:5px solid black"">","","","","",""
"","stimuli-presentation","14","112871","0.0-11.0-1.1","SS1627326659646","","12984.799999952316","trial","","40","500","13484.799999952316","images/stimuli/complex_14_A_a.gif","images/stimuli/complex_16_A_b.gif","forced_short","770","","","","","","0","complex_dissimilar","images/stimuli/complex_16_A_b.gif","",""
"","html-keyboard-response","15","114148","0.0-11.0-0.2","SS1627326659646","","null","","","null","","","","","","","","","","","<p><img src= images/blank.png width =""600"" height = ""600"" style=""position:fixed;top:50%; left:50%; transform: translate(-50%, -50%); border:5px solid black"">","","","","",""
"","stimuli-presentation","16","115069","0.0-11.0-1.2","SS1627326659646","","413.90000009536743","trial","","40","500","913.9000000953674","images/stimuli/complex_14_A_a.gif","images/stimuli/complex_16_A_b.gif","forced_short","770","","","","","","0","complex_dissimilar","images/stimuli/complex_16_A_b.gif","",""
"","html-keyboard-response","17","116255","0.0-11.0-0.3","SS1627326659646","","null","","","null","","","","","","","","","","","<p><img src= images/blank.png width =""600"" height = ""600"" style=""position:fixed;top:50%; left:50%; transform: translate(-50%, -50%); border:5px solid black"">","","","","",""
"","stimuli-presentation","18","119130","0.0-11.0-1.3","SS1627326659646","","2370.7999999523163","trial","","40","500","2870.7999999523163","images/stimuli/complex_14_A_a.gif","images/stimuli/complex_16_A_b.gif","forced_short","770","","","","","","0","complex_dissimilar","images/stimuli/complex_16_A_b.gif","",""
"","html-keyboard-response","19","120052","0.0-11.0-0.4","SS1627326659646","","null","","","null","","","","","","","","","","","<p><img src= images/blank.png width =""600"" height = ""600"" style=""position:fixed;top:50%; left:50%; transform: translate(-50%, -50%); border:5px solid black"">","","","","",""
"","stimuli-presentation","20","121091","0.0-11.0-1.4","SS1627326659646","","531.3000000715256","trial","","40","500","1031.3000000715256","images/stimuli/complex_14_A_a.gif","images/stimuli/complex_16_A_b.gif","forced_short","770","","","","","","0","complex_dissimilar","images/stimuli/complex_16_A_b.gif","",""
"","html-keyboard-response","21","122095","0.0-11.0-0.5","SS1627326659646","","null","","","null","","","","","","","","","","","<p><img src= images/blank.png width =""600"" height = ""600"" style=""position:fixed;top:50%; left:50%; transform: translate(-50%, -50%); border:5px solid black"">","","","","",""
"","stimuli-presentation","22","124004","0.0-11.0-1.5","SS1627326659646","","1401.8999999761581","trial","","40","500","1901.8999999761581","images/stimuli/complex_14_A_a.gif","images/stimuli/complex_16_A_b.gif","forced_short","770","","","","","","0","complex_dissimilar","images/stimuli/complex_16_A_b.gif","",""
"","html-keyboard-response","23","125252","0.0-11.0-0.6","SS1627326659646","","null","","","null","","","","","","","","","","","<p><img src= images/blank.png width =""600"" height = ""600"" style=""position:fixed;top:50%; left:50%; transform: translate(-50%, -50%); border:5px solid black"">","","","","",""
"","stimuli-presentation","24","133212","0.0-11.0-1.6","SS1627326659646","","7453.100000023842","trial","","40","500","7953.100000023842","images/stimuli/complex_14_A_a.gif","images/stimuli/complex_16_A_b.gif","forced_short","770","","","","","","0","complex_dissimilar","images/stimuli/complex_16_A_b.gif","",""
"","html-keyboard-response","25","134415","0.0-11.0-0.7","SS1627326659646","","null","","","null","","","","","","","","","","","<p><img src= images/blank.png width =""600"" height = ""600"" style=""position:fixed;top:50%; left:50%; transform: translate(-50%, -50%); border:5px solid black"">","","","","",""
"","stimuli-presentation","26","145379","0.0-11.0-1.7","SS1627326659646","","10457.599999904633","trial","","40","500","10957.599999904633","images/stimuli/complex_14_A_a.gif","images/stimuli/complex_16_A_b.gif","forced_short","770","","","","","","0","complex_dissimilar","images/stimuli/complex_16_A_b.gif","",""
"","survey-multi-choice","27","148356","0.0-12.0","SS1627326659646","","2973.100000023842","memory_test","","","","","","","","","{""Q0"":""Yes""}","[0]","images/stimuli/complex_16_A_b.gif","0","","","","","",""
"","survey-multi-choice","28","151942","0.0-13.0","SS1627326659646","","3581.8000000715256","memory_test","","","","","","","","","{""Q0"":""No""}","[0]","images/stimuli/complex_04_A_b.gif","0","","","","","",""
"","html-keyboard-response","29","152954","0.0-14.0-0.0","SS1627326659646","","null","","","null","","","","","","","","","","","<p><img src= images/blank.png width =""600"" height = ""600"" style=""position:fixed;top:50%; left:50%; transform: translate(-50%, -50%); border:5px solid black"">","","","","",""
"","stimuli-presentation","30","154361","0.0-14.0-1.0","SS1627326659646","","927","trial","","40","500","1427","images/stimuli/complex_15_A_b.gif","images/stimuli/complex_11_A_b.gif","forced_short","470","","","","","","1","complex_dissimilar","images/stimuli/complex_11_A_b.gif","",""
"","html-keyboard-response","31","155492","0.0-14.0-0.1","SS1627326659646","","null","","","null","","","","","","","","","","","<p><img src= images/blank.png width =""600"" height = ""600"" style=""position:fixed;top:50%; left:50%; transform: translate(-50%, -50%); border:5px solid black"">","","","","",""
"","stimuli-presentation","32","160025","0.0-14.0-1.1","SS1627326659646","","4026.5","trial","","40","500","4526.5","images/stimuli/complex_15_A_b.gif","images/stimuli/complex_11_A_b.gif","forced_short","470","","","","","","1","complex_dissimilar","images/stimuli/complex_11_A_b.gif","",""
"","html-keyboard-response","33","161252","0.0-14.0-0.2","SS1627326659646","","null","","","null","","","","","","","","","","","<p><img src= images/blank.png width =""600"" height = ""600"" style=""position:fixed;top:50%; left:50%; transform: translate(-50%, -50%); border:5px solid black"">","","","","",""
"","stimuli-presentation","34","161848","0.0-14.0-1.2","SS1627326659646","","89","trial","","40","500","589","images/stimuli/complex_15_A_b.gif","images/stimuli/complex_11_A_b.gif","forced_short","470","","","","","","1","complex_dissimilar","images/stimuli/complex_11_A_b.gif","",""
"","html-keyboard-response","35","162709","0.0-14.0-0.3","SS1627326659646","","null","","","null","","","","","","","","","","","<p><img src= images/blank.png width =""600"" height = ""600"" style=""position:fixed;top:50%; left:50%; transform: translate(-50%, -50%); border:5px solid black"">","","","","",""
"","stimuli-presentation","36","163268","0.0-14.0-1.3","SS1627326659646","","53.39999997615814","trial","","40","500","553.3999999761581","images/stimuli/complex_15_A_b.gif","images/stimuli/complex_11_A_b.gif","forced_short","470","","","","","","1","complex_dissimilar","images/stimuli/complex_11_A_b.gif","",""
"","html-keyboard-response","37","164473","0.0-14.0-0.4","SS1627326659646","","null","","","null","","","","","","","","","","","<p><img src= images/blank.png width =""600"" height = ""600"" style=""position:fixed;top:50%; left:50%; transform: translate(-50%, -50%); border:5px solid black"">","","","","",""
"","stimuli-presentation","38","166670","0.0-14.0-1.4","SS1627326659646","","1691.3000000715256","trial","","40","500","2191.3000000715256","images/stimuli/complex_15_A_b.gif","images/stimuli/complex_11_A_b.gif","forced_short","470","","","","","","1","complex_dissimilar","images/stimuli/complex_11_A_b.gif","",""
"","html-keyboard-response","39","167785","0.0-14.0-0.5","SS1627326659646","","null","","","null","","","","","","","","","","","<p><img src= images/blank.png width =""600"" height = ""600"" style=""position:fixed;top:50%; left:50%; transform: translate(-50%, -50%); border:5px solid black"">","","","","",""
"","stimuli-presentation","40","168483","0.0-14.0-1.5","SS1627326659646","","192.29999995231628","trial","","40","500","692.2999999523163","images/stimuli/complex_15_A_b.gif","images/stimuli/complex_11_A_b.gif","forced_short","470","","","","","","1","complex_dissimilar","images/stimuli/complex_11_A_b.gif","",""
"","html-keyboard-response","41","169636","0.0-14.0-0.6","SS1627326659646","","null","","","null","","","","","","","","","","","<p><img src= images/blank.png width =""600"" height = ""600"" style=""position:fixed;top:50%; left:50%; transform: translate(-50%, -50%); border:5px solid black"">","","","","",""
"","stimuli-presentation","42","171083","0.0-14.0-1.6","SS1627326659646","","940.6000000238419","trial","","40","500","1440.6000000238419","images/stimuli/complex_15_A_b.gif","images/stimuli/complex_11_A_b.gif","forced_short","470","","","","","","1","complex_dissimilar","images/stimuli/complex_11_A_b.gif","",""
"","html-keyboard-response","43","171977","0.0-14.0-0.7","SS1627326659646","","null","","","null","","","","","","","","","","","<p><img src= images/blank.png width =""600"" height = ""600"" style=""position:fixed;top:50%; left:50%; transform: translate(-50%, -50%); border:5px solid black"">","","","","",""
"","stimuli-presentation","44","175087","0.0-14.0-1.7","SS1627326659646","","2603.2999999523163","trial","","40","500","3103.2999999523163","images/stimuli/complex_15_A_b.gif","images/stimuli/complex_11_A_b.gif","forced_short","470","","","","","","1","complex_dissimilar","images/stimuli/complex_11_A_b.gif","",""
"","survey-multi-choice","45","177455","0.0-15.0","SS1627326659646","","2364.600000023842","memory_test","","","","","","","","","{""Q0"":""Yes""}","[0]","images/stimuli/complex_11_A_b.gif","1","","","","","",""
"","survey-multi-choice","46","179381","0.0-16.0","SS1627326659646","","1922.1000000238419","memory_test","","","","","","","","","{""Q0"":""No""}","[0]","images/stimuli/complex_22_A_a.gif","1","","","","","",""
"","html-keyboard-response","47","180233","0.0-17.0-0.0","SS1627326659646","","null","","","null","","","","","","","","","","","<p><img src= images/blank.png width =""600"" height = ""600"" style=""position:fixed;top:50%; left:50%; transform: translate(-50%, -50%); border:5px solid black"">","","","","",""
"","stimuli-presentation","48","181198","0.0-17.0-1.0","SS1627326659646","","557.6999999284744","trial","","40","500","1057.6999999284744","images/stimuli/complex_10_A_b.gif","images/stimuli/complex_24_A_b.gif","forced_short","400","","","","","","2","complex_dissimilar","images/stimuli/complex_24_A_b.gif","",""
"","html-keyboard-response","49","182303","0.0-17.0-0.1","SS1627326659646","","null","","","null","","","","","","","","","","","<p><img src= images/blank.png width =""600"" height = ""600"" style=""position:fixed;top:50%; left:50%; transform: translate(-50%, -50%); border:5px solid black"">","","","","",""
"","stimuli-presentation","50","185037","0.0-17.0-1.1","SS1627326659646","","2227.5","trial","","40","500","2727.5","images/stimuli/complex_10_A_b.gif","images/stimuli/complex_24_A_b.gif","forced_short","400","","","","","","2","complex_dissimilar","images/stimuli/complex_24_A_b.gif","",""
"","html-keyboard-response","51","185912","0.0-17.0-0.2","SS1627326659646","","null","","","null","","","","","","","","","","","<p><img src= images/blank.png width =""600"" height = ""600"" style=""position:fixed;top:50%; left:50%; transform: translate(-50%, -50%); border:5px solid black"">","","","","",""
"","stimuli-presentation","52","186587","0.0-17.0-1.2","SS1627326659646","","167.40000009536743","trial","","40","500","667.4000000953674","images/stimuli/complex_10_A_b.gif","images/stimuli/complex_24_A_b.gif","forced_short","400","","","","","","2","complex_dissimilar","images/stimuli/complex_24_A_b.gif","",""
"","html-keyboard-response","53","187545","0.0-17.0-0.3","SS1627326659646","","null","","","null","","","","","","","","","","","<p><img src= images/blank.png width =""600"" height = ""600"" style=""position:fixed;top:50%; left:50%; transform: translate(-50%, -50%); border:5px solid black"">","","","","",""
"","stimuli-presentation","54","194531","0.0-17.0-1.3","SS1627326659646","","6478.699999928474","trial","","40","500","6978.699999928474","images/stimuli/complex_10_A_b.gif","images/stimuli/complex_24_A_b.gif","forced_short","400","","","","","","2","complex_dissimilar","images/stimuli/complex_24_A_b.gif","",""
"","html-keyboard-response","55","195711","0.0-17.0-0.4","SS1627326659646","","null","","","null","","","","","","","","","","","<p><img src= images/blank.png width =""600"" height = ""600"" style=""position:fixed;top:50%; left:50%; transform: translate(-50%, -50%); border:5px solid black"">","","","","",""
"","stimuli-presentation","56","196812","0.0-17.0-1.4","SS1627326659646","","595","trial","","40","500","1095","images/stimuli/complex_10_A_b.gif","images/stimuli/complex_24_A_b.gif","forced_short","400","","","","","","2","complex_dissimilar","images/stimuli/complex_24_A_b.gif","",""
"","html-keyboard-response","57","197636","0.0-17.0-0.5","SS1627326659646","","null","","","null","","","","","","","","","","","<p><img src= images/blank.png width =""600"" height = ""600"" style=""position:fixed;top:50%; left:50%; transform: translate(-50%, -50%); border:5px solid black"">","","","","",""
"","stimuli-presentation","58","198237","0.0-17.0-1.5","SS1627326659646","","94.19999992847443","trial","","40","500","594.1999999284744","images/stimuli/complex_10_A_b.gif","images/stimuli/complex_24_A_b.gif","forced_short","400","","","","","","2","complex_dissimilar","images/stimuli/complex_24_A_b.gif","",""
"","html-keyboard-response","59","199305","0.0-17.0-0.6","SS1627326659646","","null","","","null","","","","","","","","","","","<p><img src= images/blank.png width =""600"" height = ""600"" style=""position:fixed;top:50%; left:50%; transform: translate(-50%, -50%); border:5px solid black"">","","","","",""
"","stimuli-presentation","60","199814","0.0-17.0-1.6","SS1627326659646","","2.9000000953674316","trial","","40","500","502.90000009536743","images/stimuli/complex_10_A_b.gif","images/stimuli/complex_24_A_b.gif","forced_short","400","","","","","","2","complex_dissimilar","images/stimuli/complex_10_A_b.gif","",""
"","survey-multi-choice","61","202530","0.0-18.0","SS1627326659646","","2713.100000023842","memory_test","","","","","","","","","{""Q0"":""No""}","[0]","images/stimuli/complex_10_A_b.gif","2","","","","","",""
"","survey-multi-choice","62","204642","0.0-19.0","SS1627326659646","","2107.399999976158","memory_test","","","","","","","","","{""Q0"":""No""}","[0]","images/stimuli/complex_23_A_a.gif","2","","","","","",""
"","html-keyboard-response","63","205508","0.0-20.0-0.0","SS1627326659646","","null","","","null","","","","","","","","","","","<p><img src= images/blank.png width =""600"" height = ""600"" style=""position:fixed;top:50%; left:50%; transform: translate(-50%, -50%); border:5px solid black"">","","","","",""
"","stimuli-presentation","64","205693","0.0-20.0-1.0","SS1627326659646","","28.299999952316284","trial","","40","500","528.2999999523163","images/stimuli/complex_12_A_b.gif","images/stimuli/complex_05_A_a.gif","forced_short","150","","","","","","3","complex_dissimilar","images/stimuli/complex_05_A_a.gif","",""
"","html-keyboard-response","65","206804","0.0-20.0-0.1","SS1627326659646","","null","","","null","","","","","","","","","","","<p><img src= images/blank.png width =""600"" height = ""600"" style=""position:fixed;top:50%; left:50%; transform: translate(-50%, -50%); border:5px solid black"">","","","","",""
"","stimuli-presentation","66","209906","0.0-20.0-1.1","SS1627326659646","","2595.4000000953674","trial","","40","500","3095.4000000953674","images/stimuli/complex_12_A_b.gif","images/stimuli/complex_05_A_a.gif","forced_short","150","","","","","","3","complex_dissimilar","images/stimuli/complex_05_A_a.gif","",""
"","html-keyboard-response","67","211007","0.0-20.0-0.2","SS1627326659646","","null","","","null","","","","","","","","","","","<p><img src= images/blank.png width =""600"" height = ""600"" style=""position:fixed;top:50%; left:50%; transform: translate(-50%, -50%); border:5px solid black"">","","","","",""
"","stimuli-presentation","68","212484","0.0-20.0-1.2","SS1627326659646","","970.7999999523163","trial","","40","500","1470.7999999523163","images/stimuli/complex_12_A_b.gif","images/stimuli/complex_05_A_a.gif","forced_short","150","","","","","","3","complex_dissimilar","images/stimuli/complex_05_A_a.gif","",""
"","html-keyboard-response","69","213407","0.0-20.0-0.3","SS1627326659646","","null","","","null","","","","","","","","","","","<p><img src= images/blank.png width =""600"" height = ""600"" style=""position:fixed;top:50%; left:50%; transform: translate(-50%, -50%); border:5px solid black"">","","","","",""
"","stimuli-presentation","70","219971","0.0-20.0-1.3","SS1627326659646","","6058.100000023842","trial","","40","500","6558.100000023842","images/stimuli/complex_12_A_b.gif","images/stimuli/complex_05_A_a.gif","forced_short","150","","","","","","3","complex_dissimilar","images/stimuli/complex_12_A_b.gif","",""
"","html-keyboard-response","71","221119","0.0-20.0-0.4","SS1627326659646","","null","","","null","","","","","","","","","","","<p><img src= images/blank.png width =""600"" height = ""600"" style=""position:fixed;top:50%; left:50%; transform: translate(-50%, -50%); border:5px solid black"">","","","","",""
"","stimuli-presentation","72","222610","0.0-20.0-1.4","SS1627326659646","","986.5","trial","","40","500","1486.5","images/stimuli/complex_12_A_b.gif","images/stimuli/complex_05_A_a.gif","forced_short","150","","","","","","3","complex_dissimilar","images/stimuli/complex_05_A_a.gif","",""
"","html-keyboard-response","73","223684","0.0-20.0-0.5","SS1627326659646","","null","","","null","","","","","","","","","","","<p><img src= images/blank.png width =""600"" height = ""600"" style=""position:fixed;top:50%; left:50%; transform: translate(-50%, -50%); border:5px solid black"">","","","","",""
"","stimuli-presentation","74","224321","0.0-20.0-1.5","SS1627326659646","","130.5","trial","","40","500","630.5","images/stimuli/complex_12_A_b.gif","images/stimuli/complex_05_A_a.gif","forced_short","150","","","","","","3","complex_dissimilar","images/stimuli/complex_05_A_a.gif","",""
"","html-keyboard-response","75","225387","0.0-20.0-0.6","SS1627326659646","","null","","","null","","","","","","","","","","","<p><img src= images/blank.png width =""600"" height = ""600"" style=""position:fixed;top:50%; left:50%; transform: translate(-50%, -50%); border:5px solid black"">","","","","",""
"","stimuli-presentation","76","226011","0.0-20.0-1.6","SS1627326659646","","118.79999995231628","trial","","40","500","618.7999999523163","images/stimuli/complex_12_A_b.gif","images/stimuli/complex_05_A_a.gif","forced_short","150","","","","","","3","complex_dissimilar","images/stimuli/complex_05_A_a.gif","",""
"","html-keyboard-response","77","226953","0.0-20.0-0.7","SS1627326659646","","null","","","null","","","","","","","","","","","<p><img src= images/blank.png width =""600"" height = ""600"" style=""position:fixed;top:50%; left:50%; transform: translate(-50%, -50%); border:5px solid black"">","","","","",""
"","stimuli-presentation","78","227568","0.0-20.0-1.7","SS1627326659646","","107.69999992847443","trial","","40","500","607.6999999284744","images/stimuli/complex_12_A_b.gif","images/stimuli/complex_05_A_a.gif","forced_short","150","","","","","","3","complex_dissimilar","images/stimuli/complex_05_A_a.gif","",""
"","survey-multi-choice","79","229706","0.0-21.0","SS1627326659646","","2134.100000023842","memory_test","","","","","","","","","{""Q0"":""No""}","[0]","images/stimuli/complex_20_A_b.gif","3","","","","","",""
"","survey-multi-choice","80","232612","0.0-22.0","SS1627326659646","","2900.9000000953674","memory_test","","","","","","","","","{""Q0"":""No""}","[0]","images/stimuli/complex_12_A_b.gif","3","","","","","",""
"","html-keyboard-response","81","233753","0.0-23.0-0.0","SS1627326659646","","null","","","null","","","","","","","","","","","<p><img src= images/blank.png width =""600"" height = ""600"" style=""position:fixed;top:50%; left:50%; transform: translate(-50%, -50%); border:5px solid black"">","","","","",""
"","stimuli-presentation","82","234654","0.0-23.0-1.0","SS1627326659646","","814.8999999761581","trial","","40","500","1314.8999999761581","images/stimuli/complex_09_A_b.gif","images/stimuli/complex_13_A_b.gif","forced_short","80","","","","","","4","complex_dissimilar","images/stimuli/complex_13_A_b.gif","",""
"","html-keyboard-response","83","235871","0.0-23.0-0.1","SS1627326659646","","null","","","null","","","","","","","","","","","<p><img src= images/blank.png width =""600"" height = ""600"" style=""position:fixed;top:50%; left:50%; transform: translate(-50%, -50%); border:5px solid black"">","","","","",""
"","stimuli-presentation","84","237600","0.0-23.0-1.1","SS1627326659646","","1223.1000000238419","trial","","40","500","1723.1000000238419","images/stimuli/complex_09_A_b.gif","images/stimuli/complex_13_A_b.gif","forced_short","80","","","","","","4","complex_dissimilar","images/stimuli/complex_13_A_b.gif","",""
"","html-keyboard-response","85","238681","0.0-23.0-0.2","SS1627326659646","","null","","","null","","","","","","","","","","","<p><img src= images/blank.png width =""600"" height = ""600"" style=""position:fixed;top:50%; left:50%; transform: translate(-50%, -50%); border:5px solid black"">","","","","",""
"","stimuli-presentation","86","239439","0.0-23.0-1.2","SS1627326659646","","250.80000007152557","trial","","40","500","750.8000000715256","images/stimuli/complex_09_A_b.gif","images/stimuli/complex_13_A_b.gif","forced_short","80","","","","","","4","complex_dissimilar","images/stimuli/complex_13_A_b.gif","",""
"","html-keyboard-response","87","240292","0.0-23.0-0.3","SS1627326659646","","null","","","null","","","","","","","","","","","<p><img src= images/blank.png width =""600"" height = ""600"" style=""position:fixed;top:50%; left:50%; transform: translate(-50%, -50%); border:5px solid black"">","","","","",""
"","stimuli-presentation","88","241601","0.0-23.0-1.3","SS1627326659646","","802.3999999761581","trial","","40","500","1302.3999999761581","images/stimuli/complex_09_A_b.gif","images/stimuli/complex_13_A_b.gif","forced_short","80","","","","","","4","complex_dissimilar","images/stimuli/complex_09_A_b.gif","",""
"","html-keyboard-response","89","242458","0.0-23.0-0.4","SS1627326659646","","null","","","null","","","","","","","","","","","<p><img src= images/blank.png width =""600"" height = ""600"" style=""position:fixed;top:50%; left:50%; transform: translate(-50%, -50%); border:5px solid black"">","","","","",""
"","stimuli-presentation","90","243117","0.0-23.0-1.4","SS1627326659646","","153.69999992847443","trial","","40","500","653.6999999284744","images/stimuli/complex_09_A_b.gif","images/stimuli/complex_13_A_b.gif","forced_short","80","","","","","","4","complex_dissimilar","images/stimuli/complex_13_A_b.gif","",""
"","html-keyboard-response","91","243940","0.0-23.0-0.5","SS1627326659646","","null","","","null","","","","","","","","","","","<p><img src= images/blank.png width =""600"" height = ""600"" style=""position:fixed;top:50%; left:50%; transform: translate(-50%, -50%); border:5px solid black"">","","","","",""
"","stimuli-presentation","92","244530","0.0-23.0-1.5","SS1627326659646","","84.29999995231628","trial","","40","500","584.2999999523163","images/stimuli/complex_09_A_b.gif","images/stimuli/complex_13_A_b.gif","forced_short","80","","","","","","4","complex_dissimilar","images/stimuli/complex_09_A_b.gif","",""
"","survey-multi-choice","93","246713","0.0-24.0","SS1627326659646","","2178.3000000715256","memory_test","","","","","","","","","{""Q0"":""No""}","[0]","images/stimuli/complex_07_A_a.gif","4","","","","","",""
"","survey-multi-choice","94","248971","0.0-25.0","SS1627326659646","","2252.5","memory_test","","","","","","","","","{""Q0"":""Yes""}","[0]","images/stimuli/complex_09_A_b.gif","4","","","","","",""
"","html-keyboard-response","95","249903","0.0-26.0-0.0","SS1627326659646","","null","","","null","","","","","","","","","","","<p><img src= images/blank.png width =""600"" height = ""600"" style=""position:fixed;top:50%; left:50%; transform: translate(-50%, -50%); border:5px solid black"">","","","","",""
"","stimuli-presentation","96","250263","0.0-26.0-1.0","SS1627326659646","","50.89999997615814","trial","","40","500","550.8999999761581","images/stimuli/complex_18_A_a.gif","images/stimuli/complex_08_A_b.gif","forced_short","300","","","","","","5","complex_dissimilar","images/stimuli/complex_08_A_b.gif","",""
"","html-keyboard-response","97","251220","0.0-26.0-0.1","SS1627326659646","","null","","","null","","","","","","","","","","","<p><img src= images/blank.png width =""600"" height = ""600"" style=""position:fixed;top:50%; left:50%; transform: translate(-50%, -50%); border:5px solid black"">","","","","",""
"","stimuli-presentation","98","251922","0.0-26.0-1.1","SS1627326659646","","194.89999997615814","trial","","40","500","694.8999999761581","images/stimuli/complex_18_A_a.gif","images/stimuli/complex_08_A_b.gif","forced_short","300","","","","","","5","complex_dissimilar","images/stimuli/complex_08_A_b.gif","",""
"","html-keyboard-response","99","253224","0.0-26.0-0.2","SS1627326659646","","null","","","null","","","","","","","","","","","<p><img src= images/blank.png width =""600"" height = ""600"" style=""position:fixed;top:50%; left:50%; transform: translate(-50%, -50%); border:5px solid black"">","","","","",""
"","stimuli-presentation","100","253827","0.0-26.0-1.2","SS1627326659646","","96.69999992847443","trial","","40","500","596.6999999284744","images/stimuli/complex_18_A_a.gif","images/stimuli/complex_08_A_b.gif","forced_short","300","","","","","","5","complex_dissimilar","images/stimuli/complex_18_A_a.gif","",""
"","html-keyboard-response","101","254852","0.0-26.0-0.3","SS1627326659646","","null","","","null","","","","","","","","","","","<p><img src= images/blank.png width =""600"" height = ""600"" style=""position:fixed;top:50%; left:50%; transform: translate(-50%, -50%); border:5px solid black"">","","","","",""
"","stimuli-presentation","102","255993","0.0-26.0-1.3","SS1627326659646","","635.2999999523163","trial","","40","500","1135.2999999523163","images/stimuli/complex_18_A_a.gif","images/stimuli/complex_08_A_b.gif","forced_short","300","","","","","","5","complex_dissimilar","images/stimuli/complex_08_A_b.gif","",""
"","html-keyboard-response","103","256966","0.0-26.0-0.4","SS1627326659646","","null","","","null","","","","","","","","","","","<p><img src= images/blank.png width =""600"" height = ""600"" style=""position:fixed;top:50%; left:50%; transform: translate(-50%, -50%); border:5px solid black"">","","","","",""
"","stimuli-presentation","104","257656","0.0-26.0-1.4","SS1627326659646","","184.69999992847443","trial","","40","500","684.6999999284744","images/stimuli/complex_18_A_a.gif","images/stimuli/complex_08_A_b.gif","forced_short","300","","","","","","5","complex_dissimilar","images/stimuli/complex_08_A_b.gif","",""
"","html-keyboard-response","105","258846","0.0-26.0-0.5","SS1627326659646","","null","","","null","","","","","","","","","","","<p><img src= images/blank.png width =""600"" height = ""600"" style=""position:fixed;top:50%; left:50%; transform: translate(-50%, -50%); border:5px solid black"">","","","","",""
"","stimuli-presentation","106","259516","0.0-26.0-1.5","SS1627326659646","","162.29999995231628","trial","","40","500","662.2999999523163","images/stimuli/complex_18_A_a.gif","images/stimuli/complex_08_A_b.gif","forced_short","300","","","","","","5","complex_dissimilar","images/stimuli/complex_08_A_b.gif","",""
"","html-keyboard-response","107","260489","0.0-26.0-0.6","SS1627326659646","","null","","","null","","","","","","","","","","","<p><img src= images/blank.png width =""600"" height = ""600"" style=""position:fixed;top:50%; left:50%; transform: translate(-50%, -50%); border:5px solid black"">","","","","",""
"","stimuli-presentation","108","261243","0.0-26.0-1.6","SS1627326659646","","247.70000004768372","trial","","40","500","747.7000000476837","images/stimuli/complex_18_A_a.gif","images/stimuli/complex_08_A_b.gif","forced_short","300","","","","","","5","complex_dissimilar","images/stimuli/complex_08_A_b.gif","",""
"","html-keyboard-response","109","262206","0.0-26.0-0.7","SS1627326659646","","null","","","null","","","","","","","","","","","<p><img src= images/blank.png width =""600"" height = ""600"" style=""position:fixed;top:50%; left:50%; transform: translate(-50%, -50%); border:5px solid black"">","","","","",""
"","stimuli-presentation","110","262922","0.0-26.0-1.7","SS1627326659646","","208.39999997615814","trial","","40","500","708.3999999761581","images/stimuli/complex_18_A_a.gif","images/stimuli/complex_08_A_b.gif","forced_short","300","","","","","","5","complex_dissimilar","images/stimuli/complex_08_A_b.gif","",""
"","survey-multi-choice","111","265317","0.0-27.0","SS1627326659646","","2389.100000023842","memory_test","","","","","","","","","{""Q0"":""No""}","[0]","images/stimuli/complex_17_A_a.gif","5","","","","","",""
"","survey-multi-choice","112","267252","0.0-28.0","SS1627326659646","","1926.8000000715256","memory_test","","","","","","","","","{""Q0"":""Yes""}","[0]","images/stimuli/complex_08_A_b.gif","5","","","","","",""
"","html-keyboard-response","113","268089","0.0-29.0-0.0","SS1627326659646","","null","","","null","","","","","","","","","","","<p><img src= images/blank.png width =""600"" height = ""600"" style=""position:fixed;top:50%; left:50%; transform: translate(-50%, -50%); border:5px solid black"">","","","","",""
"","stimuli-presentation","114","269763","0.0-29.0-1.0","SS1627326659646","","1037.6000000238419","trial","","40","500","1537.6000000238419","images/stimuli/complex_03_A_b.gif","images/stimuli/complex_21_A_a.gif","forced_short","630","","","","","","6","complex_dissimilar","images/stimuli/complex_21_A_a.gif","",""
"","html-keyboard-response","115","271017","0.0-29.0-0.1","SS1627326659646","","null","","","null","","","","","","","","","","","<p><img src= images/blank.png width =""600"" height = ""600"" style=""position:fixed;top:50%; left:50%; transform: translate(-50%, -50%); border:5px solid black"">","","","","",""
"","stimuli-presentation","116","273348","0.0-29.0-1.1","SS1627326659646","","1824.7000000476837","trial","","40","500","2324.7000000476837","images/stimuli/complex_03_A_b.gif","images/stimuli/complex_21_A_a.gif","forced_short","630","","","","","","6","complex_dissimilar","images/stimuli/complex_21_A_a.gif","",""
"","html-keyboard-response","117","274206","0.0-29.0-0.2","SS1627326659646","","null","","","null","","","","","","","","","","","<p><img src= images/blank.png width =""600"" height = ""600"" style=""position:fixed;top:50%; left:50%; transform: translate(-50%, -50%); border:5px solid black"">","","","","",""
"","stimuli-presentation","118","274802","0.0-29.0-1.2","SS1627326659646","","89.20000004768372","trial","","40","500","589.2000000476837","images/stimuli/complex_03_A_b.gif","images/stimuli/complex_21_A_a.gif","forced_short","630","","","","","","6","complex_dissimilar","images/stimuli/complex_21_A_a.gif","",""
"","html-keyboard-response","119","275705","0.0-29.0-0.3","SS1627326659646","","null","","","null","","","","","","","","","","","<p><img src= images/blank.png width =""600"" height = ""600"" style=""position:fixed;top:50%; left:50%; transform: translate(-50%, -50%); border:5px solid black"">","","","","",""
"","stimuli-presentation","120","276324","0.0-29.0-1.3","SS1627326659646","","112.39999997615814","trial","","40","500","612.3999999761581","images/stimuli/complex_03_A_b.gif","images/stimuli/complex_21_A_a.gif","forced_short","630","","","","","","6","complex_dissimilar","images/stimuli/complex_21_A_a.gif","",""
"","html-keyboard-response","121","277156","0.0-29.0-0.4","SS1627326659646","","null","","","null","","","","","","","","","","","<p><img src= images/blank.png width =""600"" height = ""600"" style=""position:fixed;top:50%; left:50%; transform: translate(-50%, -50%); border:5px solid black"">","","","","",""
"","stimuli-presentation","122","277791","0.0-29.0-1.4","SS1627326659646","","129.39999997615814","trial","","40","500","629.3999999761581","images/stimuli/complex_03_A_b.gif","images/stimuli/complex_21_A_a.gif","forced_short","630","","","","","","6","complex_dissimilar","images/stimuli/complex_21_A_a.gif","",""
"","html-keyboard-response","123","279014","0.0-29.0-0.5","SS1627326659646","","null","","","null","","","","","","","","","","","<p><img src= images/blank.png width =""600"" height = ""600"" style=""position:fixed;top:50%; left:50%; transform: translate(-50%, -50%); border:5px solid black"">","","","","",""
"","stimuli-presentation","124","279642","0.0-29.0-1.5","SS1627326659646","","120.60000002384186","trial","","40","500","620.6000000238419","images/stimuli/complex_03_A_b.gif","images/stimuli/complex_21_A_a.gif","forced_short","630","","","","","","6","complex_dissimilar","images/stimuli/complex_21_A_a.gif","",""
"","survey-multi-choice","125","281909","0.0-30.0","SS1627326659646","","2261.899999976158","memory_test","","","","","","","","","{""Q0"":""Yes""}","[0]","images/stimuli/complex_21_A_a.gif","6","","","","","",""
"","survey-multi-choice","126","283277","0.0-31.0","SS1627326659646","","1361.1999999284744","memory_test","","","","","","","","","{""Q0"":""No""}","[0]","images/stimuli/complex_02_A_a.gif","6","","","","","",""
"","html-keyboard-response","127","284574","0.0-32.0-0.0","SS1627326659646","","null","","","null","","","","","","","","","","","<p><img src= images/blank.png width =""600"" height = ""600"" style=""position:fixed;top:50%; left:50%; transform: translate(-50%, -50%); border:5px solid black"">","","","","",""
"","stimuli-presentation","128","285280","0.0-32.0-1.0","SS1627326659646","","524.6000000238419","trial","","40","500","1024.6000000238419","images/stimuli/complex_06_A_a.gif","images/stimuli/complex_01_A_a.gif","forced_short","170","","","","","","7","complex_dissimilar","images/stimuli/complex_01_A_a.gif","",""
"","html-keyboard-response","129","286361","0.0-32.0-0.1","SS1627326659646","","null","","","null","","","","","","","","","","","<p><img src= images/blank.png width =""600"" height = ""600"" style=""position:fixed;top:50%; left:50%; transform: translate(-50%, -50%); border:5px solid black"">","","","","",""
"","stimuli-presentation","130","287577","0.0-32.0-1.1","SS1627326659646","","709.2999999523163","trial","","40","500","1209.2999999523163","images/stimuli/complex_06_A_a.gif","images/stimuli/complex_01_A_a.gif","forced_short","170","","","","","","7","complex_dissimilar","images/stimuli/complex_01_A_a.gif","",""
"","html-keyboard-response","131","288688","0.0-32.0-0.2","SS1627326659646","","null","","","null","","","","","","","","","","","<p><img src= images/blank.png width =""600"" height = ""600"" style=""position:fixed;top:50%; left:50%; transform: translate(-50%, -50%); border:5px solid black"">","","","","",""
"","stimuli-presentation","132","289303","0.0-32.0-1.2","SS1627326659646","","104.5","trial","","40","500","604.5","images/stimuli/complex_06_A_a.gif","images/stimuli/complex_01_A_a.gif","forced_short","170","","","","","","7","complex_dissimilar","images/stimuli/complex_01_A_a.gif","",""
"","html-keyboard-response","133","290444","0.0-32.0-0.3","SS1627326659646","","null","","","null","","","","","","","","","","","<p><img src= images/blank.png width =""600"" height = ""600"" style=""position:fixed;top:50%; left:50%; transform: translate(-50%, -50%); border:5px solid black"">","","","","",""
"","stimuli-presentation","134","291160","0.0-32.0-1.3","SS1627326659646","","210.30000007152557","trial","","40","500","710.3000000715256","images/stimuli/complex_06_A_a.gif","images/stimuli/complex_01_A_a.gif","forced_short","170","","","","","","7","complex_dissimilar","images/stimuli/complex_01_A_a.gif","",""
"","html-keyboard-response","135","292073","0.0-32.0-0.4","SS1627326659646","","null","","","null","","","","","","","","","","","<p><img src= images/blank.png width =""600"" height = ""600"" style=""position:fixed;top:50%; left:50%; transform: translate(-50%, -50%); border:5px solid black"">","","","","",""
"","stimuli-presentation","136","292739","0.0-32.0-1.4","SS1627326659646","","159.29999995231628","trial","","40","500","659.2999999523163","images/stimuli/complex_06_A_a.gif","images/stimuli/complex_01_A_a.gif","forced_short","170","","","","","","7","complex_dissimilar","images/stimuli/complex_01_A_a.gif","",""
"","html-keyboard-response","137","293934","0.0-32.0-0.5","SS1627326659646","","null","","","null","","","","","","","","","","","<p><img src= images/blank.png width =""600"" height = ""600"" style=""position:fixed;top:50%; left:50%; transform: translate(-50%, -50%); border:5px solid black"">","","","","",""
"","stimuli-presentation","138","294601","0.0-32.0-1.5","SS1627326659646","","159.69999992847443","trial","","40","500","659.6999999284744","images/stimuli/complex_06_A_a.gif","images/stimuli/complex_01_A_a.gif","forced_short","170","","","","","","7","complex_dissimilar","images/stimuli/complex_06_A_a.gif","",""
"","html-keyboard-response","139","295641","0.0-32.0-0.6","SS1627326659646","","null","","","null","","","","","","","","","","","<p><img src= images/blank.png width =""600"" height = ""600"" style=""position:fixed;top:50%; left:50%; transform: translate(-50%, -50%); border:5px solid black"">","","","","",""
"","stimuli-presentation","140","296153","0.0-32.0-1.6","SS1627326659646","","4.299999952316284","trial","","40","500","504.2999999523163","images/stimuli/complex_06_A_a.gif","images/stimuli/complex_01_A_a.gif","forced_short","170","","","","","","7","complex_dissimilar","images/stimuli/complex_01_A_a.gif","",""
"","html-keyboard-response","141","297353","0.0-32.0-0.7","SS1627326659646","","null","","","null","","","","","","","","","","","<p><img src= images/blank.png width =""600"" height = ""600"" style=""position:fixed;top:50%; left:50%; transform: translate(-50%, -50%); border:5px solid black"">","","","","",""
"","stimuli-presentation","142","297932","0.0-32.0-1.7","SS1627326659646","","68.70000004768372","trial","","40","500","568.7000000476837","images/stimuli/complex_06_A_a.gif","images/stimuli/complex_01_A_a.gif","forced_short","170","","","","","","7","complex_dissimilar","images/stimuli/complex_01_A_a.gif","",""
"","survey-multi-choice","143","299889","0.0-33.0","SS1627326659646","","1951.3999999761581","memory_test","","","","","","","","","{""Q0"":""No""}","[0]","images/stimuli/complex_06_A_a.gif","7","","","","","",""
"","survey-multi-choice","144","301694","0.0-34.0","SS1627326659646","","1798.8999999761581","memory_test","","","","","","","","","{""Q0"":""No""}","[0]","images/stimuli/complex_19_A_a.gif","7","","","","","",""
"","instructions","145","305603","0.0-35.0","SS1627326659646","[{""page_index"":0,""viewing_time"":3903.100000023842}]","3903.600000023842","instructions","","","","","","","","","","","","","","","","","",""
"","survey-likert","146","314630","0.0-36.0","SS1627326659646","","9019.299999952316","similarity_question","","","","","","","","","{""Q0"":4}","[0]","","","","","","","images/stimuli/complex_13_A_b.gif","images/stimuli/complex_09_A_b.gif"
"","survey-likert","147","321018","0.0-37.0","SS1627326659646","","6380.899999976158","similarity_question","","","","","","","","","{""Q0"":1}","[0]","","","","","","","images/stimuli/complex_18_A_a.gif","images/stimuli/complex_08_A_b.gif"
"","survey-likert","148","331975","0.0-38.0","SS1627326659646","","10950.100000023842","similarity_question","","","","","","","","","{""Q0"":0}","[0]","","","","","","","images/stimuli/complex_12_A_b.gif","images/stimuli/complex_05_A_a.gif"
"","survey-likert","149","344481","0.0-39.0","SS1627326659646","","12499.900000095367","similarity_question","","","","","","","","","{""Q0"":4}","[0]","","","","","","","images/stimuli/complex_21_A_a.gif","images/stimuli/complex_03_A_b.gif"
"","survey-likert","150","350719","0.0-40.0","SS1627326659646","","6230.799999952316","similarity_question","","","","","","","","","{""Q0"":2}","[0]","","","","","","","images/stimuli/complex_06_A_a.gif","images/stimuli/complex_01_A_a.gif"
"","survey-likert","151","355076","0.0-41.0","SS1627326659646","","4350.200000047684","similarity_question","","","","","","","","","{""Q0"":0}","[0]","","","","","","","images/stimuli/complex_11_A_b.gif","images/stimuli/complex_15_A_b.gif"
"","survey-likert","152","362208","0.0-42.0","SS1627326659646","","7126.699999928474","similarity_question","","","","","","","","","{""Q0"":5}","[0]","","","","","","","images/stimuli/complex_24_A_b.gif","images/stimuli/complex_10_A_b.gif"
"","survey-likert","153","365969","0.0-43.0","SS1627326659646","","3754.2000000476837","similarity_question","","","","","","","","","{""Q0"":1}","[0]","","","","","","","images/stimuli/complex_16_A_b.gif","images/stimuli/complex_14_A_a.gif"
"","instructions","154","368987","0.0-44.0","SS1627326659646","[{""page_index"":0,""viewing_time"":3012.100000023842}]","3013.100000023842","instructions","","","","","","","","","","","","","","","","","",""
"","survey-likert","155","411193","0.0-45.0","SS1627326659646","","42199.39999997616","","","","","","","","","","{""Q0"":3}","[0]","","","images/stimuli/complex_01_A_a.gif","","","","",""
"","survey-likert","156","418955","0.0-46.0","SS1627326659646","","7754.399999976158","","","","","","","","","","{""Q0"":5}","[0]","","","images/stimuli/complex_18_A_a.gif","","","","",""
"","survey-likert","157","423721","0.0-47.0","SS1627326659646","","4758.399999976158","","","","","","","","","","{""Q0"":5}","[0]","","","images/stimuli/complex_10_A_b.gif","","","","",""
"","survey-likert","158","426148","0.0-48.0","SS1627326659646","","2420.600000023842","","","","","","","","","","{""Q0"":5}","[0]","","","images/stimuli/complex_15_A_b.gif","","","","",""
"","survey-likert","159","428512","0.0-49.0","SS1627326659646","","2354.899999976158","","","","","","","","","","{""Q0"":5}","[0]","","","images/stimuli/complex_13_A_b.gif","","","","",""
"","survey-likert","160","438959","0.0-50.0","SS1627326659646","","10440.799999952316","","","","","","","","","","{""Q0"":3}","[0]","","","images/stimuli/complex_21_A_a.gif","","","","",""
"","survey-likert","161","442584","0.0-51.0","SS1627326659646","","3618.6999999284744","","","","","","","","","","{""Q0"":5}","[0]","","","images/stimuli/complex_14_A_a.gif","","","","",""
"","survey-likert","162","446380","0.0-52.0","SS1627326659646","","3789","","","","","","","","","","{""Q0"":5}","[0]","","","images/stimuli/complex_12_A_b.gif","","","","",""
"true","fullscreen","163","447389","0.0-53.0","SS1627326659646","","","","","","","","","","","","","","","","","","","","",""
"","instructions","164","449262","0.0-54.0","SS1627326659646","[{""page_index"":0,""viewing_time"":1868.3000000715256}]","1868.7000000476837","instructions","","","","","","","","","","","","","","","","","",""
"","demog-age","165","452303","0.0-55.0","SS1627326659646","","3033.3000000715256","","","","","","","","","","{""age"":""19""}","","","","","","","","",""
"","demog-ethnic-US","166","456928","0.0-56.0","SS1627326659646","","4614.399999976158","","","","","","","","","","{""ethnicity"":[""White""]}","[0]","","","","","","","",""
"","demog-gender-and-education","167","475043","0.0-57.0","SS1627326659646","","18107.599999904633","","","","","","","","","","{""gender"":""Female"",""education"":""High school diploma""}","[0,1]","","","","","","","",""
"","survey-text","168","493711","0.0-58.0","SS1627326659646","","18660.600000023842","feedback","","","","","","","","","{""Q0"":""no, went very well for me.""}","","","","","","","","",""
"","instructions","169","495573","0.0-59.0","SS1627326659646","[{""page_index"":0,""viewing_time"":1855.9000000953674}]","1856.7000000476837","instructions","","","","","","","","","","","","","","","","","",""
