"success","trial_type","trial_index","time_elapsed","internal_node_id","subject","view_history","rt","stimulus_type","trial_stimulus","key_press","minimum_viewing_duration","trial_looking_time","block_deviant","block_background","exposure_type","forced_exposure_time","responses","question_order","memory_question_stimuli","memory_block_index","stimulus","block_number","block_type","stimulus_displayed","stimulus_left","stimulus_right"
"true","fullscreen","0","3977","0.0-0.0","SS1627326519454","","","","","","","","","","","","","","","","","","","","",""
"","instructions","1","22244","0.0-1.0","SS1627326519454","[{""page_index"":0,""viewing_time"":18263}]","18264","","","","","","","","","","","","","","","","","","",""
"","instructions","2","34228","0.0-2.0","SS1627326519454","[{""page_index"":0,""viewing_time"":7066},{""page_index"":1,""viewing_time"":2914}]","9981","instructions","","","","","","","","","","","","","","","","","",""
"","stimuli-presentation","3","39535","0.0-3.0","SS1627326519454","","4801","","","40","500","5301","null","null","self_paced","0","","","","","","","","","",""
"","instructions","4","45932","0.0-4.0","SS1627326519454","[{""page_index"":0,""viewing_time"":6396}]","6396","instructions","","","","","","","","","","","","","","","","","",""
"","stimuli-presentation","5","48537","0.0-5.0","SS1627326519454","","2100","","","40","500","2600","null","null","forced_short","500","","","","","","","","","",""
"","stimuli-presentation","6","50502","0.0-6.0","SS1627326519454","","1459.0000000000073","","","40","500","1959.0000000000073","null","null","forced_short","500","","","","","","","","","",""
"","instructions","7","56438","0.0-7.0","SS1627326519454","[{""page_index"":0,""viewing_time"":5933.999999999993}]","5934.999999999993","instructions","","","","","","","","","","","","","","","","","",""
"","survey-multi-choice","8","60924","0.0-8.0","SS1627326519454","","4480.999999999993","memory_test_practice","","","","","","","","","{""Q0"":""Yes""}","[0]","images/practice/instructions_example_spore2.gif","0","","","","","",""
"","survey-multi-choice","9","65357","0.0-9.0","SS1627326519454","","4430","memory_test_practice","","","","","","","","","{""Q0"":""No""}","[0]","images/practice/instructions_example_spore0.gif","0","","","","","",""
"","instructions","10","79084","0.0-10.0","SS1627326519454","[{""page_index"":0,""viewing_time"":12707},{""page_index"":1,""viewing_time"":1017}]","13724","instructions","","","","","","","","","","","","","","","","","",""
"","html-keyboard-response","11","79928","0.0-11.0-0.0","SS1627326519454","","null","","","null","","","","","","","","","","","<p><img src= images/blank.png width =""600"" height = ""600"" style=""position:fixed;top:50%; left:50%; transform: translate(-50%, -50%); border:5px solid black"">","","","","",""
"","stimuli-presentation","12","81492","0.0-11.0-1.0","SS1627326519454","","1208","trial","","40","500","1708","images/stimuli/complex_02_A_b.gif","images/stimuli/complex_14_A_b.gif","forced_short","350","","","","","","0","complex_dissimilar","images/stimuli/complex_14_A_b.gif","",""
"","html-keyboard-response","13","82776","0.0-11.0-0.1","SS1627326519454","","null","","","null","","","","","","","","","","","<p><img src= images/blank.png width =""600"" height = ""600"" style=""position:fixed;top:50%; left:50%; transform: translate(-50%, -50%); border:5px solid black"">","","","","",""
"","stimuli-presentation","14","89195","0.0-11.0-1.1","SS1627326519454","","5914","trial","","40","500","6414","images/stimuli/complex_02_A_b.gif","images/stimuli/complex_14_A_b.gif","forced_short","350","","","","","","0","complex_dissimilar","images/stimuli/complex_14_A_b.gif","",""
"","html-keyboard-response","15","90318","0.0-11.0-0.2","SS1627326519454","","null","","","null","","","","","","","","","","","<p><img src= images/blank.png width =""600"" height = ""600"" style=""position:fixed;top:50%; left:50%; transform: translate(-50%, -50%); border:5px solid black"">","","","","",""
"","stimuli-presentation","16","96573","0.0-11.0-1.2","SS1627326519454","","5750","trial","","40","500","6250","images/stimuli/complex_02_A_b.gif","images/stimuli/complex_14_A_b.gif","forced_short","350","","","","","","0","complex_dissimilar","images/stimuli/complex_14_A_b.gif","",""
"","html-keyboard-response","17","97664","0.0-11.0-0.3","SS1627326519454","","null","","","null","","","","","","","","","","","<p><img src= images/blank.png width =""600"" height = ""600"" style=""position:fixed;top:50%; left:50%; transform: translate(-50%, -50%); border:5px solid black"">","","","","",""
"","stimuli-presentation","18","105110","0.0-11.0-1.3","SS1627326519454","","6939","trial","","40","500","7439","images/stimuli/complex_02_A_b.gif","images/stimuli/complex_14_A_b.gif","forced_short","350","","","","","","0","complex_dissimilar","images/stimuli/complex_14_A_b.gif","",""
"","html-keyboard-response","19","106352","0.0-11.0-0.4","SS1627326519454","","null","","","null","","","","","","","","","","","<p><img src= images/blank.png width =""600"" height = ""600"" style=""position:fixed;top:50%; left:50%; transform: translate(-50%, -50%); border:5px solid black"">","","","","",""
"","stimuli-presentation","20","106935","0.0-11.0-1.4","SS1627326519454","","77","trial","","40","500","577","images/stimuli/complex_02_A_b.gif","images/stimuli/complex_14_A_b.gif","forced_short","350","","","","","","0","complex_dissimilar","images/stimuli/complex_14_A_b.gif","",""
"","html-keyboard-response","21","107918","0.0-11.0-0.5","SS1627326519454","","null","","","null","","","","","","","","","","","<p><img src= images/blank.png width =""600"" height = ""600"" style=""position:fixed;top:50%; left:50%; transform: translate(-50%, -50%); border:5px solid black"">","","","","",""
"","stimuli-presentation","22","111613","0.0-11.0-1.5","SS1627326519454","","3190","trial","","40","500","3690","images/stimuli/complex_02_A_b.gif","images/stimuli/complex_14_A_b.gif","forced_short","350","","","","","","0","complex_dissimilar","images/stimuli/complex_14_A_b.gif","",""
"","survey-multi-choice","23","114612","0.0-12.0","SS1627326519454","","2994","memory_test","","","","","","","","","{""Q0"":""No""}","[0]","images/stimuli/complex_12_A_a.gif","0","","","","","",""
"","survey-multi-choice","24","116816","0.0-13.0","SS1627326519454","","2200.9999999999854","memory_test","","","","","","","","","{""Q0"":""Yes""}","[0]","images/stimuli/complex_14_A_b.gif","0","","","","","",""
"","html-keyboard-response","25","117692","0.0-14.0-0.0","SS1627326519454","","null","","","null","","","","","","","","","","","<p><img src= images/blank.png width =""600"" height = ""600"" style=""position:fixed;top:50%; left:50%; transform: translate(-50%, -50%); border:5px solid black"">","","","","",""
"","stimuli-presentation","26","118812","0.0-14.0-1.0","SS1627326519454","","833","trial","","40","500","1333","images/stimuli/complex_16_A_b.gif","images/stimuli/complex_11_A_b.gif","forced_short","280","","","","","","1","complex_dissimilar","images/stimuli/complex_11_A_b.gif","",""
"","html-keyboard-response","27","119676","0.0-14.0-0.1","SS1627326519454","","null","","","null","","","","","","","","","","","<p><img src= images/blank.png width =""600"" height = ""600"" style=""position:fixed;top:50%; left:50%; transform: translate(-50%, -50%); border:5px solid black"">","","","","",""
"","stimuli-presentation","28","122412","0.0-14.0-1.1","SS1627326519454","","2230","trial","","40","500","2730","images/stimuli/complex_16_A_b.gif","images/stimuli/complex_11_A_b.gif","forced_short","280","","","","","","1","complex_dissimilar","images/stimuli/complex_11_A_b.gif","",""
"","html-keyboard-response","29","123509","0.0-14.0-0.2","SS1627326519454","","null","","","null","","","","","","","","","","","<p><img src= images/blank.png width =""600"" height = ""600"" style=""position:fixed;top:50%; left:50%; transform: translate(-50%, -50%); border:5px solid black"">","","","","",""
"","stimuli-presentation","30","125771","0.0-14.0-1.2","SS1627326519454","","1756.0000000000146","trial","","40","500","2256.0000000000146","images/stimuli/complex_16_A_b.gif","images/stimuli/complex_11_A_b.gif","forced_short","280","","","","","","1","complex_dissimilar","images/stimuli/complex_11_A_b.gif","",""
"","html-keyboard-response","31","126704","0.0-14.0-0.3","SS1627326519454","","null","","","null","","","","","","","","","","","<p><img src= images/blank.png width =""600"" height = ""600"" style=""position:fixed;top:50%; left:50%; transform: translate(-50%, -50%); border:5px solid black"">","","","","",""
"","stimuli-presentation","32","130169","0.0-14.0-1.3","SS1627326519454","","2960.000000000029","trial","","40","500","3460.000000000029","images/stimuli/complex_16_A_b.gif","images/stimuli/complex_11_A_b.gif","forced_short","280","","","","","","1","complex_dissimilar","images/stimuli/complex_16_A_b.gif","",""
"","html-keyboard-response","33","131406","0.0-14.0-0.4","SS1627326519454","","null","","","null","","","","","","","","","","","<p><img src= images/blank.png width =""600"" height = ""600"" style=""position:fixed;top:50%; left:50%; transform: translate(-50%, -50%); border:5px solid black"">","","","","",""
"","stimuli-presentation","34","137181","0.0-14.0-1.4","SS1627326519454","","5268","trial","","40","500","5768","images/stimuli/complex_16_A_b.gif","images/stimuli/complex_11_A_b.gif","forced_short","280","","","","","","1","complex_dissimilar","images/stimuli/complex_11_A_b.gif","",""
"","html-keyboard-response","35","138177","0.0-14.0-0.5","SS1627326519454","","null","","","null","","","","","","","","","","","<p><img src= images/blank.png width =""600"" height = ""600"" style=""position:fixed;top:50%; left:50%; transform: translate(-50%, -50%); border:5px solid black"">","","","","",""
"","stimuli-presentation","36","139324","0.0-14.0-1.5","SS1627326519454","","642.0000000000291","trial","","40","500","1142.000000000029","images/stimuli/complex_16_A_b.gif","images/stimuli/complex_11_A_b.gif","forced_short","280","","","","","","1","complex_dissimilar","images/stimuli/complex_16_A_b.gif","",""
"","html-keyboard-response","37","140607","0.0-14.0-0.6","SS1627326519454","","null","","","null","","","","","","","","","","","<p><img src= images/blank.png width =""600"" height = ""600"" style=""position:fixed;top:50%; left:50%; transform: translate(-50%, -50%); border:5px solid black"">","","","","",""
"","stimuli-presentation","38","141751","0.0-14.0-1.6","SS1627326519454","","638","trial","","40","500","1138","images/stimuli/complex_16_A_b.gif","images/stimuli/complex_11_A_b.gif","forced_short","280","","","","","","1","complex_dissimilar","images/stimuli/complex_11_A_b.gif","",""
"","html-keyboard-response","39","142877","0.0-14.0-0.7","SS1627326519454","","null","","","null","","","","","","","","","","","<p><img src= images/blank.png width =""600"" height = ""600"" style=""position:fixed;top:50%; left:50%; transform: translate(-50%, -50%); border:5px solid black"">","","","","",""
"","stimuli-presentation","40","143871","0.0-14.0-1.7","SS1627326519454","","489","trial","","40","500","989","images/stimuli/complex_16_A_b.gif","images/stimuli/complex_11_A_b.gif","forced_short","280","","","","","","1","complex_dissimilar","images/stimuli/complex_11_A_b.gif","",""
"","survey-multi-choice","41","146560","0.0-15.0","SS1627326519454","","2686","memory_test","","","","","","","","","{""Q0"":""No""}","[0]","images/stimuli/complex_08_A_b.gif","1","","","","","",""
"","survey-multi-choice","42","149318","0.0-16.0","SS1627326519454","","2755.000000000029","memory_test","","","","","","","","","{""Q0"":""Yes""}","[0]","images/stimuli/complex_11_A_b.gif","1","","","","","",""
"","html-keyboard-response","43","150272","0.0-17.0-0.0","SS1627326519454","","null","","","null","","","","","","","","","","","<p><img src= images/blank.png width =""600"" height = ""600"" style=""position:fixed;top:50%; left:50%; transform: translate(-50%, -50%); border:5px solid black"">","","","","",""
"","stimuli-presentation","44","151167","0.0-17.0-1.0","SS1627326519454","","619","trial","","40","500","1119","images/stimuli/complex_01_A_a.gif","images/stimuli/complex_22_A_b.gif","forced_short","270","","","","","","2","complex_dissimilar","images/stimuli/complex_22_A_b.gif","",""
"","html-keyboard-response","45","152422","0.0-17.0-0.1","SS1627326519454","","null","","","null","","","","","","","","","","","<p><img src= images/blank.png width =""600"" height = ""600"" style=""position:fixed;top:50%; left:50%; transform: translate(-50%, -50%); border:5px solid black"">","","","","",""
"","stimuli-presentation","46","153713","0.0-17.0-1.1","SS1627326519454","","786","trial","","40","500","1286","images/stimuli/complex_01_A_a.gif","images/stimuli/complex_22_A_b.gif","forced_short","270","","","","","","2","complex_dissimilar","images/stimuli/complex_22_A_b.gif","",""
"","html-keyboard-response","47","154777","0.0-17.0-0.2","SS1627326519454","","null","","","null","","","","","","","","","","","<p><img src= images/blank.png width =""600"" height = ""600"" style=""position:fixed;top:50%; left:50%; transform: translate(-50%, -50%); border:5px solid black"">","","","","",""
"","stimuli-presentation","48","156226","0.0-17.0-1.2","SS1627326519454","","943","trial","","40","500","1443","images/stimuli/complex_01_A_a.gif","images/stimuli/complex_22_A_b.gif","forced_short","270","","","","","","2","complex_dissimilar","images/stimuli/complex_22_A_b.gif","",""
"","html-keyboard-response","49","157109","0.0-17.0-0.3","SS1627326519454","","null","","","null","","","","","","","","","","","<p><img src= images/blank.png width =""600"" height = ""600"" style=""position:fixed;top:50%; left:50%; transform: translate(-50%, -50%); border:5px solid black"">","","","","",""
"","stimuli-presentation","50","158328","0.0-17.0-1.3","SS1627326519454","","712","trial","","40","500","1212","images/stimuli/complex_01_A_a.gif","images/stimuli/complex_22_A_b.gif","forced_short","270","","","","","","2","complex_dissimilar","images/stimuli/complex_22_A_b.gif","",""
"","html-keyboard-response","51","159171","0.0-17.0-0.4","SS1627326519454","","null","","","null","","","","","","","","","","","<p><img src= images/blank.png width =""600"" height = ""600"" style=""position:fixed;top:50%; left:50%; transform: translate(-50%, -50%); border:5px solid black"">","","","","",""
"","stimuli-presentation","52","161333","0.0-17.0-1.4","SS1627326519454","","1656","trial","","40","500","2156","images/stimuli/complex_01_A_a.gif","images/stimuli/complex_22_A_b.gif","forced_short","270","","","","","","2","complex_dissimilar","images/stimuli/complex_01_A_a.gif","",""
"","html-keyboard-response","53","162569","0.0-17.0-0.5","SS1627326519454","","null","","","null","","","","","","","","","","","<p><img src= images/blank.png width =""600"" height = ""600"" style=""position:fixed;top:50%; left:50%; transform: translate(-50%, -50%); border:5px solid black"">","","","","",""
"","stimuli-presentation","54","163163","0.0-17.0-1.5","SS1627326519454","","88.0000000000291","trial","","40","500","588.0000000000291","images/stimuli/complex_01_A_a.gif","images/stimuli/complex_22_A_b.gif","forced_short","270","","","","","","2","complex_dissimilar","images/stimuli/complex_22_A_b.gif","",""
"","html-keyboard-response","55","163997","0.0-17.0-0.6","SS1627326519454","","null","","","null","","","","","","","","","","","<p><img src= images/blank.png width =""600"" height = ""600"" style=""position:fixed;top:50%; left:50%; transform: translate(-50%, -50%); border:5px solid black"">","","","","",""
"","stimuli-presentation","56","165221","0.0-17.0-1.6","SS1627326519454","","717","trial","","40","500","1217","images/stimuli/complex_01_A_a.gif","images/stimuli/complex_22_A_b.gif","forced_short","270","","","","","","2","complex_dissimilar","images/stimuli/complex_01_A_a.gif","",""
"","html-keyboard-response","57","166256","0.0-17.0-0.7","SS1627326519454","","null","","","null","","","","","","","","","","","<p><img src= images/blank.png width =""600"" height = ""600"" style=""position:fixed;top:50%; left:50%; transform: translate(-50%, -50%); border:5px solid black"">","","","","",""
"","stimuli-presentation","58","167039","0.0-17.0-1.7","SS1627326519454","","277","trial","","40","500","777","images/stimuli/complex_01_A_a.gif","images/stimuli/complex_22_A_b.gif","forced_short","270","","","","","","2","complex_dissimilar","images/stimuli/complex_22_A_b.gif","",""
"","survey-multi-choice","59","169883","0.0-18.0","SS1627326519454","","2841","memory_test","","","","","","","","","{""Q0"":""No""}","[0]","images/stimuli/complex_21_A_b.gif","2","","","","","",""
"","survey-multi-choice","60","173223","0.0-19.0","SS1627326519454","","3336.000000000029","memory_test","","","","","","","","","{""Q0"":""Yes""}","[0]","images/stimuli/complex_22_A_b.gif","2","","","","","",""
"","html-keyboard-response","61","174261","0.0-20.0-0.0","SS1627326519454","","null","","","null","","","","","","","","","","","<p><img src= images/blank.png width =""600"" height = ""600"" style=""position:fixed;top:50%; left:50%; transform: translate(-50%, -50%); border:5px solid black"">","","","","",""
"","stimuli-presentation","62","175281","0.0-20.0-1.0","SS1627326519454","","373","trial","","40","500","873","images/stimuli/complex_06_A_a.gif","images/stimuli/complex_15_A_b.gif","forced_short","640","","","","","","3","complex_dissimilar","images/stimuli/complex_15_A_b.gif","",""
"","html-keyboard-response","63","176228","0.0-20.0-0.1","SS1627326519454","","null","","","null","","","","","","","","","","","<p><img src= images/blank.png width =""600"" height = ""600"" style=""position:fixed;top:50%; left:50%; transform: translate(-50%, -50%); border:5px solid black"">","","","","",""
"","stimuli-presentation","64","177532","0.0-20.0-1.1","SS1627326519454","","798.0000000000291","trial","","40","500","1298.000000000029","images/stimuli/complex_06_A_a.gif","images/stimuli/complex_15_A_b.gif","forced_short","640","","","","","","3","complex_dissimilar","images/stimuli/complex_06_A_a.gif","",""
"","html-keyboard-response","65","178480","0.0-20.0-0.2","SS1627326519454","","null","","","null","","","","","","","","","","","<p><img src= images/blank.png width =""600"" height = ""600"" style=""position:fixed;top:50%; left:50%; transform: translate(-50%, -50%); border:5px solid black"">","","","","",""
"","stimuli-presentation","66","179371","0.0-20.0-1.2","SS1627326519454","","383","trial","","40","500","883","images/stimuli/complex_06_A_a.gif","images/stimuli/complex_15_A_b.gif","forced_short","640","","","","","","3","complex_dissimilar","images/stimuli/complex_15_A_b.gif","",""
"","html-keyboard-response","67","180539","0.0-20.0-0.3","SS1627326519454","","null","","","null","","","","","","","","","","","<p><img src= images/blank.png width =""600"" height = ""600"" style=""position:fixed;top:50%; left:50%; transform: translate(-50%, -50%); border:5px solid black"">","","","","",""
"","stimuli-presentation","68","181169","0.0-20.0-1.3","SS1627326519454","","124.0000000000291","trial","","40","500","624.0000000000291","images/stimuli/complex_06_A_a.gif","images/stimuli/complex_15_A_b.gif","forced_short","640","","","","","","3","complex_dissimilar","images/stimuli/complex_15_A_b.gif","",""
"","html-keyboard-response","69","182250","0.0-20.0-0.4","SS1627326519454","","null","","","null","","","","","","","","","","","<p><img src= images/blank.png width =""600"" height = ""600"" style=""position:fixed;top:50%; left:50%; transform: translate(-50%, -50%); border:5px solid black"">","","","","",""
"","stimuli-presentation","70","183248","0.0-20.0-1.4","SS1627326519454","","491","trial","","40","500","991","images/stimuli/complex_06_A_a.gif","images/stimuli/complex_15_A_b.gif","forced_short","640","","","","","","3","complex_dissimilar","images/stimuli/complex_15_A_b.gif","",""
"","html-keyboard-response","71","184363","0.0-20.0-0.5","SS1627326519454","","null","","","null","","","","","","","","","","","<p><img src= images/blank.png width =""600"" height = ""600"" style=""position:fixed;top:50%; left:50%; transform: translate(-50%, -50%); border:5px solid black"">","","","","",""
"","stimuli-presentation","72","185541","0.0-20.0-1.5","SS1627326519454","","670","trial","","40","500","1170","images/stimuli/complex_06_A_a.gif","images/stimuli/complex_15_A_b.gif","forced_short","640","","","","","","3","complex_dissimilar","images/stimuli/complex_15_A_b.gif","",""
"","html-keyboard-response","73","186754","0.0-20.0-0.6","SS1627326519454","","null","","","null","","","","","","","","","","","<p><img src= images/blank.png width =""600"" height = ""600"" style=""position:fixed;top:50%; left:50%; transform: translate(-50%, -50%); border:5px solid black"">","","","","",""
"","stimuli-presentation","74","188115","0.0-20.0-1.6","SS1627326519454","","855.0000000000291","trial","","40","500","1355.000000000029","images/stimuli/complex_06_A_a.gif","images/stimuli/complex_15_A_b.gif","forced_short","640","","","","","","3","complex_dissimilar","images/stimuli/complex_15_A_b.gif","",""
"","html-keyboard-response","75","189126","0.0-20.0-0.7","SS1627326519454","","null","","","null","","","","","","","","","","","<p><img src= images/blank.png width =""600"" height = ""600"" style=""position:fixed;top:50%; left:50%; transform: translate(-50%, -50%); border:5px solid black"">","","","","",""
"","stimuli-presentation","76","190574","0.0-20.0-1.7","SS1627326519454","","941.0000000000291","trial","","40","500","1441.000000000029","images/stimuli/complex_06_A_a.gif","images/stimuli/complex_15_A_b.gif","forced_short","640","","","","","","3","complex_dissimilar","images/stimuli/complex_06_A_a.gif","",""
"","survey-multi-choice","77","192865","0.0-21.0","SS1627326519454","","2286","memory_test","","","","","","","","","{""Q0"":""Yes""}","[0]","images/stimuli/complex_06_A_a.gif","3","","","","","",""
"","survey-multi-choice","78","194697","0.0-22.0","SS1627326519454","","1828","memory_test","","","","","","","","","{""Q0"":""No""}","[0]","images/stimuli/complex_20_A_a.gif","3","","","","","",""
"","html-keyboard-response","79","195995","0.0-23.0-0.0","SS1627326519454","","null","","","null","","","","","","","","","","","<p><img src= images/blank.png width =""600"" height = ""600"" style=""position:fixed;top:50%; left:50%; transform: translate(-50%, -50%); border:5px solid black"">","","","","",""
"","stimuli-presentation","80","196218","0.0-23.0-1.0","SS1627326519454","","116","trial","","40","500","616","images/stimuli/complex_10_A_b.gif","images/stimuli/complex_19_A_b.gif","forced_short","100","","","","","","4","complex_dissimilar","images/stimuli/complex_19_A_b.gif","",""
"","html-keyboard-response","81","197505","0.0-23.0-0.1","SS1627326519454","","null","","","null","","","","","","","","","","","<p><img src= images/blank.png width =""600"" height = ""600"" style=""position:fixed;top:50%; left:50%; transform: translate(-50%, -50%); border:5px solid black"">","","","","",""
"","stimuli-presentation","82","198519","0.0-23.0-1.1","SS1627326519454","","508","trial","","40","500","1008","images/stimuli/complex_10_A_b.gif","images/stimuli/complex_19_A_b.gif","forced_short","100","","","","","","4","complex_dissimilar","images/stimuli/complex_19_A_b.gif","",""
"","html-keyboard-response","83","199563","0.0-23.0-0.2","SS1627326519454","","null","","","null","","","","","","","","","","","<p><img src= images/blank.png width =""600"" height = ""600"" style=""position:fixed;top:50%; left:50%; transform: translate(-50%, -50%); border:5px solid black"">","","","","",""
"","stimuli-presentation","84","200355","0.0-23.0-1.2","SS1627326519454","","284","trial","","40","500","784","images/stimuli/complex_10_A_b.gif","images/stimuli/complex_19_A_b.gif","forced_short","100","","","","","","4","complex_dissimilar","images/stimuli/complex_19_A_b.gif","",""
"","html-keyboard-response","85","201291","0.0-23.0-0.3","SS1627326519454","","null","","","null","","","","","","","","","","","<p><img src= images/blank.png width =""600"" height = ""600"" style=""position:fixed;top:50%; left:50%; transform: translate(-50%, -50%); border:5px solid black"">","","","","",""
"","stimuli-presentation","86","201842","0.0-23.0-1.3","SS1627326519454","","44.000000000029104","trial","","40","500","544.0000000000291","images/stimuli/complex_10_A_b.gif","images/stimuli/complex_19_A_b.gif","forced_short","100","","","","","","4","complex_dissimilar","images/stimuli/complex_19_A_b.gif","",""
"","html-keyboard-response","87","202780","0.0-23.0-0.4","SS1627326519454","","null","","","null","","","","","","","","","","","<p><img src= images/blank.png width =""600"" height = ""600"" style=""position:fixed;top:50%; left:50%; transform: translate(-50%, -50%); border:5px solid black"">","","","","",""
"","stimuli-presentation","88","203359","0.0-23.0-1.4","SS1627326519454","","70.9999999999709","trial","","40","500","570.9999999999709","images/stimuli/complex_10_A_b.gif","images/stimuli/complex_19_A_b.gif","forced_short","100","","","","","","4","complex_dissimilar","images/stimuli/complex_19_A_b.gif","",""
"","html-keyboard-response","89","204274","0.0-23.0-0.5","SS1627326519454","","null","","","null","","","","","","","","","","","<p><img src= images/blank.png width =""600"" height = ""600"" style=""position:fixed;top:50%; left:50%; transform: translate(-50%, -50%); border:5px solid black"">","","","","",""
"","stimuli-presentation","90","204832","0.0-23.0-1.5","SS1627326519454","","51","trial","","40","500","551","images/stimuli/complex_10_A_b.gif","images/stimuli/complex_19_A_b.gif","forced_short","100","","","","","","4","complex_dissimilar","images/stimuli/complex_19_A_b.gif","",""
"","html-keyboard-response","91","205798","0.0-23.0-0.6","SS1627326519454","","null","","","null","","","","","","","","","","","<p><img src= images/blank.png width =""600"" height = ""600"" style=""position:fixed;top:50%; left:50%; transform: translate(-50%, -50%); border:5px solid black"">","","","","",""
"","stimuli-presentation","92","207976","0.0-23.0-1.6","SS1627326519454","","1670.999999999971","trial","","40","500","2170.999999999971","images/stimuli/complex_10_A_b.gif","images/stimuli/complex_19_A_b.gif","forced_short","100","","","","","","4","complex_dissimilar","images/stimuli/complex_19_A_b.gif","",""
"","survey-multi-choice","93","210700","0.0-24.0","SS1627326519454","","2718","memory_test","","","","","","","","","{""Q0"":""No""}","[0]","images/stimuli/complex_17_A_a.gif","4","","","","","",""
"","survey-multi-choice","94","213479","0.0-25.0","SS1627326519454","","2774","memory_test","","","","","","","","","{""Q0"":""Yes""}","[0]","images/stimuli/complex_19_A_b.gif","4","","","","","",""
"","html-keyboard-response","95","214766","0.0-26.0-0.0","SS1627326519454","","null","","","null","","","","","","","","","","","<p><img src= images/blank.png width =""600"" height = ""600"" style=""position:fixed;top:50%; left:50%; transform: translate(-50%, -50%); border:5px solid black"">","","","","",""
"","stimuli-presentation","96","215734","0.0-26.0-1.0","SS1627326519454","","278.9999999999709","trial","","40","500","778.9999999999709","images/stimuli/complex_05_A_b.gif","images/stimuli/complex_18_A_b.gif","forced_short","680","","","","","","5","complex_dissimilar","images/stimuli/complex_18_A_b.gif","",""
"","html-keyboard-response","97","216626","0.0-26.0-0.1","SS1627326519454","","null","","","null","","","","","","","","","","","<p><img src= images/blank.png width =""600"" height = ""600"" style=""position:fixed;top:50%; left:50%; transform: translate(-50%, -50%); border:5px solid black"">","","","","",""
"","stimuli-presentation","98","218491","0.0-26.0-1.1","SS1627326519454","","1359","trial","","40","500","1859","images/stimuli/complex_05_A_b.gif","images/stimuli/complex_18_A_b.gif","forced_short","680","","","","","","5","complex_dissimilar","images/stimuli/complex_18_A_b.gif","",""
"","html-keyboard-response","99","219403","0.0-26.0-0.2","SS1627326519454","","null","","","null","","","","","","","","","","","<p><img src= images/blank.png width =""600"" height = ""600"" style=""position:fixed;top:50%; left:50%; transform: translate(-50%, -50%); border:5px solid black"">","","","","",""
"","stimuli-presentation","100","220066","0.0-26.0-1.2","SS1627326519454","","156","trial","","40","500","656","images/stimuli/complex_05_A_b.gif","images/stimuli/complex_18_A_b.gif","forced_short","680","","","","","","5","complex_dissimilar","images/stimuli/complex_18_A_b.gif","",""
"","html-keyboard-response","101","221063","0.0-26.0-0.3","SS1627326519454","","null","","","null","","","","","","","","","","","<p><img src= images/blank.png width =""600"" height = ""600"" style=""position:fixed;top:50%; left:50%; transform: translate(-50%, -50%); border:5px solid black"">","","","","",""
"","stimuli-presentation","102","221715","0.0-26.0-1.3","SS1627326519454","","144","trial","","40","500","644","images/stimuli/complex_05_A_b.gif","images/stimuli/complex_18_A_b.gif","forced_short","680","","","","","","5","complex_dissimilar","images/stimuli/complex_18_A_b.gif","",""
"","html-keyboard-response","103","222712","0.0-26.0-0.4","SS1627326519454","","null","","","null","","","","","","","","","","","<p><img src= images/blank.png width =""600"" height = ""600"" style=""position:fixed;top:50%; left:50%; transform: translate(-50%, -50%); border:5px solid black"">","","","","",""
"","stimuli-presentation","104","223679","0.0-26.0-1.4","SS1627326519454","","459","trial","","40","500","959","images/stimuli/complex_05_A_b.gif","images/stimuli/complex_18_A_b.gif","forced_short","680","","","","","","5","complex_dissimilar","images/stimuli/complex_18_A_b.gif","",""
"","html-keyboard-response","105","224495","0.0-26.0-0.5","SS1627326519454","","null","","","null","","","","","","","","","","","<p><img src= images/blank.png width =""600"" height = ""600"" style=""position:fixed;top:50%; left:50%; transform: translate(-50%, -50%); border:5px solid black"">","","","","",""
"","stimuli-presentation","106","225359","0.0-26.0-1.5","SS1627326519454","","355.0000000000291","trial","","40","500","855.0000000000291","images/stimuli/complex_05_A_b.gif","images/stimuli/complex_18_A_b.gif","forced_short","680","","","","","","5","complex_dissimilar","images/stimuli/complex_18_A_b.gif","",""
"","html-keyboard-response","107","226266","0.0-26.0-0.6","SS1627326519454","","null","","","null","","","","","","","","","","","<p><img src= images/blank.png width =""600"" height = ""600"" style=""position:fixed;top:50%; left:50%; transform: translate(-50%, -50%); border:5px solid black"">","","","","",""
"","stimuli-presentation","108","227799","0.0-26.0-1.6","SS1627326519454","","1020","trial","","40","500","1520","images/stimuli/complex_05_A_b.gif","images/stimuli/complex_18_A_b.gif","forced_short","680","","","","","","5","complex_dissimilar","images/stimuli/complex_05_A_b.gif","",""
"","html-keyboard-response","109","229101","0.0-26.0-0.7","SS1627326519454","","null","","","null","","","","","","","","","","","<p><img src= images/blank.png width =""600"" height = ""600"" style=""position:fixed;top:50%; left:50%; transform: translate(-50%, -50%); border:5px solid black"">","","","","",""
"","stimuli-presentation","110","230481","0.0-26.0-1.7","SS1627326519454","","872","trial","","40","500","1372","images/stimuli/complex_05_A_b.gif","images/stimuli/complex_18_A_b.gif","forced_short","680","","","","","","5","complex_dissimilar","images/stimuli/complex_05_A_b.gif","",""
"","survey-multi-choice","111","233685","0.0-27.0","SS1627326519454","","3199","memory_test","","","","","","","","","{""Q0"":""Yes""}","[0]","images/stimuli/complex_18_A_b.gif","5","","","","","",""
"","survey-multi-choice","112","235317","0.0-28.0","SS1627326519454","","1626","memory_test","","","","","","","","","{""Q0"":""No""}","[0]","images/stimuli/complex_03_A_b.gif","5","","","","","",""
"","html-keyboard-response","113","236123","0.0-29.0-0.0","SS1627326519454","","null","","","null","","","","","","","","","","","<p><img src= images/blank.png width =""600"" height = ""600"" style=""position:fixed;top:50%; left:50%; transform: translate(-50%, -50%); border:5px solid black"">","","","","",""
"","stimuli-presentation","114","237859","0.0-29.0-1.0","SS1627326519454","","837","trial","","40","500","1337","images/stimuli/complex_07_A_a.gif","images/stimuli/complex_04_A_a.gif","forced_short","890","","","","","","6","complex_dissimilar","images/stimuli/complex_04_A_a.gif","",""
"","html-keyboard-response","115","238758","0.0-29.0-0.1","SS1627326519454","","null","","","null","","","","","","","","","","","<p><img src= images/blank.png width =""600"" height = ""600"" style=""position:fixed;top:50%; left:50%; transform: translate(-50%, -50%); border:5px solid black"">","","","","",""
"","stimuli-presentation","116","240532","0.0-29.0-1.1","SS1627326519454","","1265.000000000029","trial","","40","500","1765.000000000029","images/stimuli/complex_07_A_a.gif","images/stimuli/complex_04_A_a.gif","forced_short","890","","","","","","6","complex_dissimilar","images/stimuli/complex_04_A_a.gif","",""
"","html-keyboard-response","117","241704","0.0-29.0-0.2","SS1627326519454","","null","","","null","","","","","","","","","","","<p><img src= images/blank.png width =""600"" height = ""600"" style=""position:fixed;top:50%; left:50%; transform: translate(-50%, -50%); border:5px solid black"">","","","","",""
"","stimuli-presentation","118","243953","0.0-29.0-1.2","SS1627326519454","","1738","trial","","40","500","2238","images/stimuli/complex_07_A_a.gif","images/stimuli/complex_04_A_a.gif","forced_short","890","","","","","","6","complex_dissimilar","images/stimuli/complex_07_A_a.gif","",""
"","html-keyboard-response","119","245229","0.0-29.0-0.3","SS1627326519454","","null","","","null","","","","","","","","","","","<p><img src= images/blank.png width =""600"" height = ""600"" style=""position:fixed;top:50%; left:50%; transform: translate(-50%, -50%); border:5px solid black"">","","","","",""
"","stimuli-presentation","120","246904","0.0-29.0-1.3","SS1627326519454","","1167","trial","","40","500","1667","images/stimuli/complex_07_A_a.gif","images/stimuli/complex_04_A_a.gif","forced_short","890","","","","","","6","complex_dissimilar","images/stimuli/complex_04_A_a.gif","",""
"","html-keyboard-response","121","247768","0.0-29.0-0.4","SS1627326519454","","null","","","null","","","","","","","","","","","<p><img src= images/blank.png width =""600"" height = ""600"" style=""position:fixed;top:50%; left:50%; transform: translate(-50%, -50%); border:5px solid black"">","","","","",""
"","stimuli-presentation","122","248873","0.0-29.0-1.4","SS1627326519454","","596.9999999999709","trial","","40","500","1096.999999999971","images/stimuli/complex_07_A_a.gif","images/stimuli/complex_04_A_a.gif","forced_short","890","","","","","","6","complex_dissimilar","images/stimuli/complex_04_A_a.gif","",""
"","html-keyboard-response","123","249923","0.0-29.0-0.5","SS1627326519454","","null","","","null","","","","","","","","","","","<p><img src= images/blank.png width =""600"" height = ""600"" style=""position:fixed;top:50%; left:50%; transform: translate(-50%, -50%); border:5px solid black"">","","","","",""
"","stimuli-presentation","124","250804","0.0-29.0-1.5","SS1627326519454","","370","trial","","40","500","870","images/stimuli/complex_07_A_a.gif","images/stimuli/complex_04_A_a.gif","forced_short","890","","","","","","6","complex_dissimilar","images/stimuli/complex_07_A_a.gif","",""
"","html-keyboard-response","125","251664","0.0-29.0-0.6","SS1627326519454","","null","","","null","","","","","","","","","","","<p><img src= images/blank.png width =""600"" height = ""600"" style=""position:fixed;top:50%; left:50%; transform: translate(-50%, -50%); border:5px solid black"">","","","","",""
"","stimuli-presentation","126","252178","0.0-29.0-1.6","SS1627326519454","","6","trial","","40","500","506","images/stimuli/complex_07_A_a.gif","images/stimuli/complex_04_A_a.gif","forced_short","890","","","","","","6","complex_dissimilar","images/stimuli/complex_04_A_a.gif","",""
"","html-keyboard-response","127","253157","0.0-29.0-0.7","SS1627326519454","","null","","","null","","","","","","","","","","","<p><img src= images/blank.png width =""600"" height = ""600"" style=""position:fixed;top:50%; left:50%; transform: translate(-50%, -50%); border:5px solid black"">","","","","",""
"","stimuli-presentation","128","253676","0.0-29.0-1.7","SS1627326519454","","10.000000000058208","trial","","40","500","510.0000000000582","images/stimuli/complex_07_A_a.gif","images/stimuli/complex_04_A_a.gif","forced_short","890","","","","","","6","complex_dissimilar","images/stimuli/complex_04_A_a.gif","",""
"","survey-multi-choice","129","256675","0.0-30.0","SS1627326519454","","2993","memory_test","","","","","","","","","{""Q0"":""Yes""}","[0]","images/stimuli/complex_04_A_a.gif","6","","","","","",""
"","survey-multi-choice","130","258759","0.0-31.0","SS1627326519454","","2080","memory_test","","","","","","","","","{""Q0"":""No""}","[0]","images/stimuli/complex_24_A_b.gif","6","","","","","",""
"","html-keyboard-response","131","259718","0.0-32.0-0.0","SS1627326519454","","null","","","null","","","","","","","","","","","<p><img src= images/blank.png width =""600"" height = ""600"" style=""position:fixed;top:50%; left:50%; transform: translate(-50%, -50%); border:5px solid black"">","","","","",""
"","stimuli-presentation","132","260857","0.0-32.0-1.0","SS1627326519454","","941","trial","","40","500","1441","images/stimuli/complex_23_A_a.gif","images/stimuli/complex_13_A_a.gif","forced_short","190","","","","","","7","complex_dissimilar","images/stimuli/complex_13_A_a.gif","",""
"","html-keyboard-response","133","261996","0.0-32.0-0.1","SS1627326519454","","null","","","null","","","","","","","","","","","<p><img src= images/blank.png width =""600"" height = ""600"" style=""position:fixed;top:50%; left:50%; transform: translate(-50%, -50%); border:5px solid black"">","","","","",""
"","stimuli-presentation","134","264376","0.0-32.0-1.1","SS1627326519454","","1870","trial","","40","500","2370","images/stimuli/complex_23_A_a.gif","images/stimuli/complex_13_A_a.gif","forced_short","190","","","","","","7","complex_dissimilar","images/stimuli/complex_23_A_a.gif","",""
"","html-keyboard-response","135","265241","0.0-32.0-0.2","SS1627326519454","","null","","","null","","","","","","","","","","","<p><img src= images/blank.png width =""600"" height = ""600"" style=""position:fixed;top:50%; left:50%; transform: translate(-50%, -50%); border:5px solid black"">","","","","",""
"","stimuli-presentation","136","267046","0.0-32.0-1.2","SS1627326519454","","1296.0000000000582","trial","","40","500","1796.0000000000582","images/stimuli/complex_23_A_a.gif","images/stimuli/complex_13_A_a.gif","forced_short","190","","","","","","7","complex_dissimilar","images/stimuli/complex_13_A_a.gif","",""
"","html-keyboard-response","137","268322","0.0-32.0-0.3","SS1627326519454","","null","","","null","","","","","","","","","","","<p><img src= images/blank.png width =""600"" height = ""600"" style=""position:fixed;top:50%; left:50%; transform: translate(-50%, -50%); border:5px solid black"">","","","","",""
"","stimuli-presentation","138","269808","0.0-32.0-1.3","SS1627326519454","","975.0000000000582","trial","","40","500","1475.0000000000582","images/stimuli/complex_23_A_a.gif","images/stimuli/complex_13_A_a.gif","forced_short","190","","","","","","7","complex_dissimilar","images/stimuli/complex_13_A_a.gif","",""
"","html-keyboard-response","139","270907","0.0-32.0-0.4","SS1627326519454","","null","","","null","","","","","","","","","","","<p><img src= images/blank.png width =""600"" height = ""600"" style=""position:fixed;top:50%; left:50%; transform: translate(-50%, -50%); border:5px solid black"">","","","","",""
"","stimuli-presentation","140","271503","0.0-32.0-1.4","SS1627326519454","","86.99999999994179","trial","","40","500","586.9999999999418","images/stimuli/complex_23_A_a.gif","images/stimuli/complex_13_A_a.gif","forced_short","190","","","","","","7","complex_dissimilar","images/stimuli/complex_13_A_a.gif","",""
"","html-keyboard-response","141","272351","0.0-32.0-0.5","SS1627326519454","","null","","","null","","","","","","","","","","","<p><img src= images/blank.png width =""600"" height = ""600"" style=""position:fixed;top:50%; left:50%; transform: translate(-50%, -50%); border:5px solid black"">","","","","",""
"","stimuli-presentation","142","273897","0.0-32.0-1.5","SS1627326519454","","1038","trial","","40","500","1538","images/stimuli/complex_23_A_a.gif","images/stimuli/complex_13_A_a.gif","forced_short","190","","","","","","7","complex_dissimilar","images/stimuli/complex_13_A_a.gif","",""
"","survey-multi-choice","143","277095","0.0-33.0","SS1627326519454","","3191.999999999942","memory_test","","","","","","","","","{""Q0"":""No""}","[0]","images/stimuli/complex_09_A_b.gif","7","","","","","",""
"","survey-multi-choice","144","279244","0.0-34.0","SS1627326519454","","2144","memory_test","","","","","","","","","{""Q0"":""Yes""}","[0]","images/stimuli/complex_13_A_a.gif","7","","","","","",""
"","instructions","145","282199","0.0-35.0","SS1627326519454","[{""page_index"":0,""viewing_time"":2949}]","2950","instructions","","","","","","","","","","","","","","","","","",""
"","survey-likert","146","292954","0.0-36.0","SS1627326519454","","10750","similarity_question","","","","","","","","","{""Q0"":4}","[0]","","","","","","","images/stimuli/complex_02_A_b.gif","images/stimuli/complex_14_A_b.gif"
"","survey-likert","147","302230","0.0-37.0","SS1627326519454","","9271.000000000058","similarity_question","","","","","","","","","{""Q0"":1}","[0]","","","","","","","images/stimuli/complex_01_A_a.gif","images/stimuli/complex_22_A_b.gif"
"","survey-likert","148","305973","0.0-38.0","SS1627326519454","","3738","similarity_question","","","","","","","","","{""Q0"":0}","[0]","","","","","","","images/stimuli/complex_15_A_b.gif","images/stimuli/complex_06_A_a.gif"
"","survey-likert","149","310821","0.0-39.0","SS1627326519454","","4843","similarity_question","","","","","","","","","{""Q0"":2}","[0]","","","","","","","images/stimuli/complex_10_A_b.gif","images/stimuli/complex_19_A_b.gif"
"","survey-likert","150","314917","0.0-40.0","SS1627326519454","","4091","similarity_question","","","","","","","","","{""Q0"":0}","[0]","","","","","","","images/stimuli/complex_04_A_a.gif","images/stimuli/complex_07_A_a.gif"
"","survey-likert","151","318141","0.0-41.0","SS1627326519454","","3219.000000000058","similarity_question","","","","","","","","","{""Q0"":0}","[0]","","","","","","","images/stimuli/complex_13_A_a.gif","images/stimuli/complex_23_A_a.gif"
"","survey-likert","152","321571","0.0-42.0","SS1627326519454","","3425","similarity_question","","","","","","","","","{""Q0"":0}","[0]","","","","","","","images/stimuli/complex_18_A_b.gif","images/stimuli/complex_05_A_b.gif"
"","survey-likert","153","325267","0.0-43.0","SS1627326519454","","3691","similarity_question","","","","","","","","","{""Q0"":2}","[0]","","","","","","","images/stimuli/complex_11_A_b.gif","images/stimuli/complex_16_A_b.gif"
"","instructions","154","328177","0.0-44.0","SS1627326519454","[{""page_index"":0,""viewing_time"":2905}]","2906.000000000058","instructions","","","","","","","","","","","","","","","","","",""
"","survey-likert","155","330992","0.0-45.0","SS1627326519454","","2809.000000000058","","","","","","","","","","{""Q0"":4}","[0]","","","images/stimuli/complex_16_A_b.gif","","","","",""
"","survey-likert","156","334073","0.0-46.0","SS1627326519454","","3075","","","","","","","","","","{""Q0"":1}","[0]","","","images/stimuli/complex_10_A_b.gif","","","","",""
"","survey-likert","157","337856","0.0-47.0","SS1627326519454","","3778","","","","","","","","","","{""Q0"":6}","[0]","","","images/stimuli/complex_07_A_a.gif","","","","",""
"","survey-likert","158","340858","0.0-48.0","SS1627326519454","","2997","","","","","","","","","","{""Q0"":4}","[0]","","","images/stimuli/complex_06_A_a.gif","","","","",""
"","survey-likert","159","344989","0.0-49.0","SS1627326519454","","4127","","","","","","","","","","{""Q0"":3}","[0]","","","images/stimuli/complex_02_A_b.gif","","","","",""
"","survey-likert","160","347856","0.0-50.0","SS1627326519454","","2862","","","","","","","","","","{""Q0"":2}","[0]","","","images/stimuli/complex_13_A_a.gif","","","","",""
"","survey-likert","161","350982","0.0-51.0","SS1627326519454","","3120","","","","","","","","","","{""Q0"":1}","[0]","","","images/stimuli/complex_05_A_b.gif","","","","",""
"","survey-likert","162","353471","0.0-52.0","SS1627326519454","","2483","","","","","","","","","","{""Q0"":4}","[0]","","","images/stimuli/complex_01_A_a.gif","","","","",""
"true","fullscreen","163","354477","0.0-53.0","SS1627326519454","","","","","","","","","","","","","","","","","","","","",""
"","instructions","164","356740","0.0-54.0","SS1627326519454","[{""page_index"":0,""viewing_time"":2255}]","2256","instructions","","","","","","","","","","","","","","","","","",""
"","demog-age","165","358987","0.0-55.0","SS1627326519454","","2232.999999999942","","","","","","","","","","{""age"":""18""}","","","","","","","","",""
"","demog-ethnic-US","166","362549","0.0-56.0","SS1627326519454","","3555","","","","","","","","","","{""ethnicity"":[""White""]}","[0]","","","","","","","",""
"","demog-gender-and-education","167","369518","0.0-57.0","SS1627326519454","","6963","","","","","","","","","","{""gender"":""Non-binary"",""education"":""High school diploma""}","[0,1]","","","","","","","",""
"","survey-text","168","375525","0.0-58.0","SS1627326519454","","5996","feedback","","","","","","","","","{""Q0"":""Nope :)""}","","","","","","","","",""
"","instructions","169","377079","0.0-59.0","SS1627326519454","[{""page_index"":0,""viewing_time"":1549}]","1550","instructions","","","","","","","","","","","","","","","","","",""
