"success","trial_type","trial_index","time_elapsed","internal_node_id","subject","view_history","rt","stimulus_type","trial_stimulus","key_press","minimum_viewing_duration","trial_looking_time","block_deviant","block_background","exposure_type","forced_exposure_time","responses","question_order","memory_question_stimuli","memory_block_index","stimulus","block_number","block_type","stimulus_displayed","stimulus_left","stimulus_right"
"true","fullscreen","0","3495","0.0-0.0","SS1627326781685","","","","","","","","","","","","","","","","","","","","",""
"","instructions","1","11911","0.0-1.0","SS1627326781685","[{""page_index"":0,""viewing_time"":8412.200000047684}]","8413.200000047684","","","","","","","","","","","","","","","","","","",""
"","instructions","2","24269","0.0-2.0","SS1627326781685","[{""page_index"":0,""viewing_time"":7359.199999928474},{""page_index"":1,""viewing_time"":2987.100000023842}]","10346.600000023842","instructions","","","","","","","","","","","","","","","","","",""
"","stimuli-presentation","3","31744","0.0-3.0","SS1627326781685","","6968.899999976158","","","40","500","7468.899999976158","null","null","self_paced","0","","","","","","","","","",""
"","instructions","4","39987","0.0-4.0","SS1627326781685","[{""page_index"":0,""viewing_time"":8241.200000047684}]","8241.399999976158","instructions","","","","","","","","","","","","","","","","","",""
"","stimuli-presentation","5","42320","0.0-5.0","SS1627326781685","","1811.7000000476837","","","40","500","2311.7000000476837","null","null","forced_short","500","","","","","","","","","",""
"","stimuli-presentation","6","45087","0.0-6.0","SS1627326781685","","2261.899999976158","","","40","500","2761.899999976158","null","null","forced_short","500","","","","","","","","","",""
"","instructions","7","49933","0.0-7.0","SS1627326781685","[{""page_index"":0,""viewing_time"":4843.600000023842}]","4843.899999976158","instructions","","","","","","","","","","","","","","","","","",""
"","survey-multi-choice","8","53191","0.0-8.0","SS1627326781685","","3251.2999999523163","memory_test_practice","","","","","","","","","{""Q0"":""Yes""}","[0]","images/practice/instructions_example_spore2.gif","0","","","","","",""
"","survey-multi-choice","9","55693","0.0-9.0","SS1627326781685","","2495.8000000715256","memory_test_practice","","","","","","","","","{""Q0"":""No""}","[0]","images/practice/instructions_example_spore0.gif","0","","","","","",""
"","instructions","10","61913","0.0-10.0","SS1627326781685","[{""page_index"":0,""viewing_time"":5407.600000023842},{""page_index"":1,""viewing_time"":809.7000000476837}]","6217.5","instructions","","","","","","","","","","","","","","","","","",""
"","html-keyboard-response","11","62883","0.0-11.0-0.0","SS1627326781685","","null","","","null","","","","","","","","","","","<p><img src= images/blank.png width =""600"" height = ""600"" style=""position:fixed;top:50%; left:50%; transform: translate(-50%, -50%); border:5px solid black"">","","","","",""
"","stimuli-presentation","12","68925","0.0-11.0-1.0","SS1627326781685","","5673.5","trial","","40","500","6173.5","images/stimuli/complex_10_A_a.gif","images/stimuli/complex_14_A_a.gif","forced_short","350","","","","","","0","complex_dissimilar","images/stimuli/complex_14_A_a.gif","",""
"","html-keyboard-response","13","69934","0.0-11.0-0.1","SS1627326781685","","null","","","null","","","","","","","","","","","<p><img src= images/blank.png width =""600"" height = ""600"" style=""position:fixed;top:50%; left:50%; transform: translate(-50%, -50%); border:5px solid black"">","","","","",""
"","stimuli-presentation","14","76884","0.0-11.0-1.1","SS1627326781685","","6439.200000047684","trial","","40","500","6939.200000047684","images/stimuli/complex_10_A_a.gif","images/stimuli/complex_14_A_a.gif","forced_short","350","","","","","","0","complex_dissimilar","images/stimuli/complex_14_A_a.gif","",""
"","html-keyboard-response","15","78087","0.0-11.0-0.2","SS1627326781685","","null","","","null","","","","","","","","","","","<p><img src= images/blank.png width =""600"" height = ""600"" style=""position:fixed;top:50%; left:50%; transform: translate(-50%, -50%); border:5px solid black"">","","","","",""
"","stimuli-presentation","16","84469","0.0-11.0-1.2","SS1627326781685","","5873.799999952316","trial","","40","500","6373.799999952316","images/stimuli/complex_10_A_a.gif","images/stimuli/complex_14_A_a.gif","forced_short","350","","","","","","0","complex_dissimilar","images/stimuli/complex_14_A_a.gif","",""
"","html-keyboard-response","17","85435","0.0-11.0-0.3","SS1627326781685","","null","","","null","","","","","","","","","","","<p><img src= images/blank.png width =""600"" height = ""600"" style=""position:fixed;top:50%; left:50%; transform: translate(-50%, -50%); border:5px solid black"">","","","","",""
"","stimuli-presentation","18","89920","0.0-11.0-1.3","SS1627326781685","","3970","trial","","40","500","4470","images/stimuli/complex_10_A_a.gif","images/stimuli/complex_14_A_a.gif","forced_short","350","","","","","","0","complex_dissimilar","images/stimuli/complex_14_A_a.gif","",""
"","html-keyboard-response","19","90819","0.0-11.0-0.4","SS1627326781685","","null","","","null","","","","","","","","","","","<p><img src= images/blank.png width =""600"" height = ""600"" style=""position:fixed;top:50%; left:50%; transform: translate(-50%, -50%); border:5px solid black"">","","","","",""
"","stimuli-presentation","20","97308","0.0-11.0-1.4","SS1627326781685","","5971.800000071526","trial","","40","500","6471.800000071526","images/stimuli/complex_10_A_a.gif","images/stimuli/complex_14_A_a.gif","forced_short","350","","","","","","0","complex_dissimilar","images/stimuli/complex_14_A_a.gif","",""
"","html-keyboard-response","21","98526","0.0-11.0-0.5","SS1627326781685","","null","","","null","","","","","","","","","","","<p><img src= images/blank.png width =""600"" height = ""600"" style=""position:fixed;top:50%; left:50%; transform: translate(-50%, -50%); border:5px solid black"">","","","","",""
"","stimuli-presentation","22","102184","0.0-11.0-1.5","SS1627326781685","","3149.600000023842","trial","","40","500","3649.600000023842","images/stimuli/complex_10_A_a.gif","images/stimuli/complex_14_A_a.gif","forced_short","350","","","","","","0","complex_dissimilar","images/stimuli/complex_14_A_a.gif","",""
"","survey-multi-choice","23","104357","0.0-12.0","SS1627326781685","","2169.2000000476837","memory_test","","","","","","","","","{""Q0"":""No""}","[0]","images/stimuli/complex_15_A_a.gif","0","","","","","",""
"","survey-multi-choice","24","106577","0.0-13.0","SS1627326781685","","2215","memory_test","","","","","","","","","{""Q0"":""Yes""}","[0]","images/stimuli/complex_14_A_a.gif","0","","","","","",""
"","html-keyboard-response","25","107798","0.0-14.0-0.0","SS1627326781685","","null","","","null","","","","","","","","","","","<p><img src= images/blank.png width =""600"" height = ""600"" style=""position:fixed;top:50%; left:50%; transform: translate(-50%, -50%); border:5px solid black"">","","","","",""
"","stimuli-presentation","26","111200","0.0-14.0-1.0","SS1627326781685","","2840","trial","","40","500","3340","images/stimuli/complex_08_A_a.gif","images/stimuli/complex_01_A_b.gif","forced_short","550","","","","","","1","complex_dissimilar","images/stimuli/complex_01_A_b.gif","",""
"","html-keyboard-response","27","112392","0.0-14.0-0.1","SS1627326781685","","null","","","null","","","","","","","","","","","<p><img src= images/blank.png width =""600"" height = ""600"" style=""position:fixed;top:50%; left:50%; transform: translate(-50%, -50%); border:5px solid black"">","","","","",""
"","stimuli-presentation","28","115982","0.0-14.0-1.1","SS1627326781685","","3080.899999976158","trial","","40","500","3580.899999976158","images/stimuli/complex_08_A_a.gif","images/stimuli/complex_01_A_b.gif","forced_short","550","","","","","","1","complex_dissimilar","images/stimuli/complex_01_A_b.gif","",""
"","html-keyboard-response","29","116869","0.0-14.0-0.2","SS1627326781685","","null","","","null","","","","","","","","","","","<p><img src= images/blank.png width =""600"" height = ""600"" style=""position:fixed;top:50%; left:50%; transform: translate(-50%, -50%); border:5px solid black"">","","","","",""
"","stimuli-presentation","30","121636","0.0-14.0-1.2","SS1627326781685","","4251.5","trial","","40","500","4751.5","images/stimuli/complex_08_A_a.gif","images/stimuli/complex_01_A_b.gif","forced_short","550","","","","","","1","complex_dissimilar","images/stimuli/complex_01_A_b.gif","",""
"","html-keyboard-response","31","122631","0.0-14.0-0.3","SS1627326781685","","null","","","null","","","","","","","","","","","<p><img src= images/blank.png width =""600"" height = ""600"" style=""position:fixed;top:50%; left:50%; transform: translate(-50%, -50%); border:5px solid black"">","","","","",""
"","stimuli-presentation","32","126241","0.0-14.0-1.3","SS1627326781685","","3103.7000000476837","trial","","40","500","3603.7000000476837","images/stimuli/complex_08_A_a.gif","images/stimuli/complex_01_A_b.gif","forced_short","550","","","","","","1","complex_dissimilar","images/stimuli/complex_01_A_b.gif","",""
"","html-keyboard-response","33","127349","0.0-14.0-0.4","SS1627326781685","","null","","","null","","","","","","","","","","","<p><img src= images/blank.png width =""600"" height = ""600"" style=""position:fixed;top:50%; left:50%; transform: translate(-50%, -50%); border:5px solid black"">","","","","",""
"","stimuli-presentation","34","128395","0.0-14.0-1.4","SS1627326781685","","536.2000000476837","trial","","40","500","1036.2000000476837","images/stimuli/complex_08_A_a.gif","images/stimuli/complex_01_A_b.gif","forced_short","550","","","","","","1","complex_dissimilar","images/stimuli/complex_01_A_b.gif","",""
"","html-keyboard-response","35","129416","0.0-14.0-0.5","SS1627326781685","","null","","","null","","","","","","","","","","","<p><img src= images/blank.png width =""600"" height = ""600"" style=""position:fixed;top:50%; left:50%; transform: translate(-50%, -50%); border:5px solid black"">","","","","",""
"","stimuli-presentation","36","131023","0.0-14.0-1.5","SS1627326781685","","1085.1000000238419","trial","","40","500","1585.1000000238419","images/stimuli/complex_08_A_a.gif","images/stimuli/complex_01_A_b.gif","forced_short","550","","","","","","1","complex_dissimilar","images/stimuli/complex_01_A_b.gif","",""
"","html-keyboard-response","37","131964","0.0-14.0-0.6","SS1627326781685","","null","","","null","","","","","","","","","","","<p><img src= images/blank.png width =""600"" height = ""600"" style=""position:fixed;top:50%; left:50%; transform: translate(-50%, -50%); border:5px solid black"">","","","","",""
"","stimuli-presentation","38","135013","0.0-14.0-1.6","SS1627326781685","","2532","trial","","40","500","3032","images/stimuli/complex_08_A_a.gif","images/stimuli/complex_01_A_b.gif","forced_short","550","","","","","","1","complex_dissimilar","images/stimuli/complex_08_A_a.gif","",""
"","html-keyboard-response","39","136263","0.0-14.0-0.7","SS1627326781685","","null","","","null","","","","","","","","","","","<p><img src= images/blank.png width =""600"" height = ""600"" style=""position:fixed;top:50%; left:50%; transform: translate(-50%, -50%); border:5px solid black"">","","","","",""
"","stimuli-presentation","40","140773","0.0-14.0-1.7","SS1627326781685","","4002.899999976158","trial","","40","500","4502.899999976158","images/stimuli/complex_08_A_a.gif","images/stimuli/complex_01_A_b.gif","forced_short","550","","","","","","1","complex_dissimilar","images/stimuli/complex_01_A_b.gif","",""
"","survey-multi-choice","41","142897","0.0-15.0","SS1627326781685","","2119.3000000715256","memory_test","","","","","","","","","{""Q0"":""Yes""}","[0]","images/stimuli/complex_08_A_a.gif","1","","","","","",""
"","survey-multi-choice","42","145033","0.0-16.0","SS1627326781685","","2129.5","memory_test","","","","","","","","","{""Q0"":""No""}","[0]","images/stimuli/complex_06_A_a.gif","1","","","","","",""
"","html-keyboard-response","43","146329","0.0-17.0-0.0","SS1627326781685","","null","","","null","","","","","","","","","","","<p><img src= images/blank.png width =""600"" height = ""600"" style=""position:fixed;top:50%; left:50%; transform: translate(-50%, -50%); border:5px solid black"">","","","","",""
"","stimuli-presentation","44","148459","0.0-17.0-1.0","SS1627326781685","","1489.6999999284744","trial","","40","500","1989.6999999284744","images/stimuli/complex_23_A_a.gif","images/stimuli/complex_13_A_b.gif","forced_short","630","","","","","","2","complex_dissimilar","images/stimuli/complex_13_A_b.gif","",""
"","html-keyboard-response","45","149520","0.0-17.0-0.1","SS1627326781685","","null","","","null","","","","","","","","","","","<p><img src= images/blank.png width =""600"" height = ""600"" style=""position:fixed;top:50%; left:50%; transform: translate(-50%, -50%); border:5px solid black"">","","","","",""
"","stimuli-presentation","46","152932","0.0-17.0-1.1","SS1627326781685","","2898.899999976158","trial","","40","500","3398.899999976158","images/stimuli/complex_23_A_a.gif","images/stimuli/complex_13_A_b.gif","forced_short","630","","","","","","2","complex_dissimilar","images/stimuli/complex_13_A_b.gif","",""
"","html-keyboard-response","47","153825","0.0-17.0-0.2","SS1627326781685","","null","","","null","","","","","","","","","","","<p><img src= images/blank.png width =""600"" height = ""600"" style=""position:fixed;top:50%; left:50%; transform: translate(-50%, -50%); border:5px solid black"">","","","","",""
"","stimuli-presentation","48","156784","0.0-17.0-1.2","SS1627326781685","","2442.6999999284744","trial","","40","500","2942.6999999284744","images/stimuli/complex_23_A_a.gif","images/stimuli/complex_13_A_b.gif","forced_short","630","","","","","","2","complex_dissimilar","images/stimuli/complex_13_A_b.gif","",""
"","html-keyboard-response","49","157994","0.0-17.0-0.3","SS1627326781685","","null","","","null","","","","","","","","","","","<p><img src= images/blank.png width =""600"" height = ""600"" style=""position:fixed;top:50%; left:50%; transform: translate(-50%, -50%); border:5px solid black"">","","","","",""
"","stimuli-presentation","50","161144","0.0-17.0-1.3","SS1627326781685","","2640.899999976158","trial","","40","500","3140.899999976158","images/stimuli/complex_23_A_a.gif","images/stimuli/complex_13_A_b.gif","forced_short","630","","","","","","2","complex_dissimilar","images/stimuli/complex_13_A_b.gif","",""
"","html-keyboard-response","51","162071","0.0-17.0-0.4","SS1627326781685","","null","","","null","","","","","","","","","","","<p><img src= images/blank.png width =""600"" height = ""600"" style=""position:fixed;top:50%; left:50%; transform: translate(-50%, -50%); border:5px solid black"">","","","","",""
"","stimuli-presentation","52","164118","0.0-17.0-1.4","SS1627326781685","","1535.2999999523163","trial","","40","500","2035.2999999523163","images/stimuli/complex_23_A_a.gif","images/stimuli/complex_13_A_b.gif","forced_short","630","","","","","","2","complex_dissimilar","images/stimuli/complex_13_A_b.gif","",""
"","html-keyboard-response","53","165397","0.0-17.0-0.5","SS1627326781685","","null","","","null","","","","","","","","","","","<p><img src= images/blank.png width =""600"" height = ""600"" style=""position:fixed;top:50%; left:50%; transform: translate(-50%, -50%); border:5px solid black"">","","","","",""
"","stimuli-presentation","54","167713","0.0-17.0-1.5","SS1627326781685","","1807.5","trial","","40","500","2307.5","images/stimuli/complex_23_A_a.gif","images/stimuli/complex_13_A_b.gif","forced_short","630","","","","","","2","complex_dissimilar","images/stimuli/complex_13_A_b.gif","",""
"","html-keyboard-response","55","168620","0.0-17.0-0.6","SS1627326781685","","null","","","null","","","","","","","","","","","<p><img src= images/blank.png width =""600"" height = ""600"" style=""position:fixed;top:50%; left:50%; transform: translate(-50%, -50%); border:5px solid black"">","","","","",""
"","stimuli-presentation","56","169668","0.0-17.0-1.6","SS1627326781685","","540.3999999761581","trial","","40","500","1040.3999999761581","images/stimuli/complex_23_A_a.gif","images/stimuli/complex_13_A_b.gif","forced_short","630","","","","","","2","complex_dissimilar","images/stimuli/complex_13_A_b.gif","",""
"","html-keyboard-response","57","170970","0.0-17.0-0.7","SS1627326781685","","null","","","null","","","","","","","","","","","<p><img src= images/blank.png width =""600"" height = ""600"" style=""position:fixed;top:50%; left:50%; transform: translate(-50%, -50%); border:5px solid black"">","","","","",""
"","stimuli-presentation","58","172328","0.0-17.0-1.7","SS1627326781685","","847.8999999761581","trial","","40","500","1347.8999999761581","images/stimuli/complex_23_A_a.gif","images/stimuli/complex_13_A_b.gif","forced_short","630","","","","","","2","complex_dissimilar","images/stimuli/complex_13_A_b.gif","",""
"","survey-multi-choice","59","174519","0.0-18.0","SS1627326781685","","2186.2000000476837","memory_test","","","","","","","","","{""Q0"":""No""}","[0]","images/stimuli/complex_17_A_a.gif","2","","","","","",""
"","survey-multi-choice","60","176156","0.0-19.0","SS1627326781685","","1629.3999999761581","memory_test","","","","","","","","","{""Q0"":""Yes""}","[0]","images/stimuli/complex_13_A_b.gif","2","","","","","",""
"","html-keyboard-response","61","176987","0.0-20.0-0.0","SS1627326781685","","null","","","null","","","","","","","","","","","<p><img src= images/blank.png width =""600"" height = ""600"" style=""position:fixed;top:50%; left:50%; transform: translate(-50%, -50%); border:5px solid black"">","","","","",""
"","stimuli-presentation","62","178857","0.0-20.0-1.0","SS1627326781685","","1077.3000000715256","trial","","40","500","1577.3000000715256","images/stimuli/complex_02_A_b.gif","images/stimuli/complex_16_A_b.gif","forced_short","780","","","","","","3","complex_dissimilar","images/stimuli/complex_16_A_b.gif","",""
"","html-keyboard-response","63","179713","0.0-20.0-0.1","SS1627326781685","","null","","","null","","","","","","","","","","","<p><img src= images/blank.png width =""600"" height = ""600"" style=""position:fixed;top:50%; left:50%; transform: translate(-50%, -50%); border:5px solid black"">","","","","",""
"","stimuli-presentation","64","180491","0.0-20.0-1.1","SS1627326781685","","269.89999997615814","trial","","40","500","769.8999999761581","images/stimuli/complex_02_A_b.gif","images/stimuli/complex_16_A_b.gif","forced_short","780","","","","","","3","complex_dissimilar","images/stimuli/complex_16_A_b.gif","",""
"","html-keyboard-response","65","181422","0.0-20.0-0.2","SS1627326781685","","null","","","null","","","","","","","","","","","<p><img src= images/blank.png width =""600"" height = ""600"" style=""position:fixed;top:50%; left:50%; transform: translate(-50%, -50%); border:5px solid black"">","","","","",""
"","stimuli-presentation","66","183129","0.0-20.0-1.2","SS1627326781685","","1194.5","trial","","40","500","1694.5","images/stimuli/complex_02_A_b.gif","images/stimuli/complex_16_A_b.gif","forced_short","780","","","","","","3","complex_dissimilar","images/stimuli/complex_02_A_b.gif","",""
"","html-keyboard-response","67","184067","0.0-20.0-0.3","SS1627326781685","","null","","","null","","","","","","","","","","","<p><img src= images/blank.png width =""600"" height = ""600"" style=""position:fixed;top:50%; left:50%; transform: translate(-50%, -50%); border:5px solid black"">","","","","",""
"","stimuli-presentation","68","185167","0.0-20.0-1.3","SS1627326781685","","585.3999999761581","trial","","40","500","1085.3999999761581","images/stimuli/complex_02_A_b.gif","images/stimuli/complex_16_A_b.gif","forced_short","780","","","","","","3","complex_dissimilar","images/stimuli/complex_02_A_b.gif","",""
"","html-keyboard-response","69","186475","0.0-20.0-0.4","SS1627326781685","","null","","","null","","","","","","","","","","","<p><img src= images/blank.png width =""600"" height = ""600"" style=""position:fixed;top:50%; left:50%; transform: translate(-50%, -50%); border:5px solid black"">","","","","",""
"","stimuli-presentation","70","188110","0.0-20.0-1.4","SS1627326781685","","1121.4000000953674","trial","","40","500","1621.4000000953674","images/stimuli/complex_02_A_b.gif","images/stimuli/complex_16_A_b.gif","forced_short","780","","","","","","3","complex_dissimilar","images/stimuli/complex_16_A_b.gif","",""
"","html-keyboard-response","71","189199","0.0-20.0-0.5","SS1627326781685","","null","","","null","","","","","","","","","","","<p><img src= images/blank.png width =""600"" height = ""600"" style=""position:fixed;top:50%; left:50%; transform: translate(-50%, -50%); border:5px solid black"">","","","","",""
"","stimuli-presentation","72","189958","0.0-20.0-1.5","SS1627326781685","","242.60000002384186","trial","","40","500","742.6000000238419","images/stimuli/complex_02_A_b.gif","images/stimuli/complex_16_A_b.gif","forced_short","780","","","","","","3","complex_dissimilar","images/stimuli/complex_16_A_b.gif","",""
"","survey-multi-choice","73","191919","0.0-21.0","SS1627326781685","","1955.3999999761581","memory_test","","","","","","","","","{""Q0"":""No""}","[0]","images/stimuli/complex_05_A_a.gif","3","","","","","",""
"","survey-multi-choice","74","193293","0.0-22.0","SS1627326781685","","1367.7000000476837","memory_test","","","","","","","","","{""Q0"":""Yes""}","[0]","images/stimuli/complex_16_A_b.gif","3","","","","","",""
"","html-keyboard-response","75","194539","0.0-23.0-0.0","SS1627326781685","","null","","","null","","","","","","","","","","","<p><img src= images/blank.png width =""600"" height = ""600"" style=""position:fixed;top:50%; left:50%; transform: translate(-50%, -50%); border:5px solid black"">","","","","",""
"","stimuli-presentation","76","196616","0.0-23.0-1.0","SS1627326781685","","1198.7999999523163","trial","","40","500","1698.7999999523163","images/stimuli/complex_04_A_b.gif","images/stimuli/complex_21_A_b.gif","forced_short","870","","","","","","4","complex_dissimilar","images/stimuli/complex_21_A_b.gif","",""
"","html-keyboard-response","77","197586","0.0-23.0-0.1","SS1627326781685","","null","","","null","","","","","","","","","","","<p><img src= images/blank.png width =""600"" height = ""600"" style=""position:fixed;top:50%; left:50%; transform: translate(-50%, -50%); border:5px solid black"">","","","","",""
"","stimuli-presentation","78","198982","0.0-23.0-1.1","SS1627326781685","","881.6000000238419","trial","","40","500","1381.6000000238419","images/stimuli/complex_04_A_b.gif","images/stimuli/complex_21_A_b.gif","forced_short","870","","","","","","4","complex_dissimilar","images/stimuli/complex_21_A_b.gif","",""
"","html-keyboard-response","79","200236","0.0-23.0-0.2","SS1627326781685","","null","","","null","","","","","","","","","","","<p><img src= images/blank.png width =""600"" height = ""600"" style=""position:fixed;top:50%; left:50%; transform: translate(-50%, -50%); border:5px solid black"">","","","","",""
"","stimuli-presentation","80","201762","0.0-23.0-1.2","SS1627326781685","","1017.2000000476837","trial","","40","500","1517.2000000476837","images/stimuli/complex_04_A_b.gif","images/stimuli/complex_21_A_b.gif","forced_short","870","","","","","","4","complex_dissimilar","images/stimuli/complex_21_A_b.gif","",""
"","html-keyboard-response","81","202774","0.0-23.0-0.3","SS1627326781685","","null","","","null","","","","","","","","","","","<p><img src= images/blank.png width =""600"" height = ""600"" style=""position:fixed;top:50%; left:50%; transform: translate(-50%, -50%); border:5px solid black"">","","","","",""
"","stimuli-presentation","82","203776","0.0-23.0-1.3","SS1627326781685","","492.3000000715256","trial","","40","500","992.3000000715256","images/stimuli/complex_04_A_b.gif","images/stimuli/complex_21_A_b.gif","forced_short","870","","","","","","4","complex_dissimilar","images/stimuli/complex_21_A_b.gif","",""
"","html-keyboard-response","83","205059","0.0-23.0-0.4","SS1627326781685","","null","","","null","","","","","","","","","","","<p><img src= images/blank.png width =""600"" height = ""600"" style=""position:fixed;top:50%; left:50%; transform: translate(-50%, -50%); border:5px solid black"">","","","","",""
"","stimuli-presentation","84","206603","0.0-23.0-1.4","SS1627326781685","","1036.5","trial","","40","500","1536.5","images/stimuli/complex_04_A_b.gif","images/stimuli/complex_21_A_b.gif","forced_short","870","","","","","","4","complex_dissimilar","images/stimuli/complex_21_A_b.gif","",""
"","html-keyboard-response","85","207526","0.0-23.0-0.5","SS1627326781685","","null","","","null","","","","","","","","","","","<p><img src= images/blank.png width =""600"" height = ""600"" style=""position:fixed;top:50%; left:50%; transform: translate(-50%, -50%); border:5px solid black"">","","","","",""
"","stimuli-presentation","86","208256","0.0-23.0-1.5","SS1627326781685","","224.39999997615814","trial","","40","500","724.3999999761581","images/stimuli/complex_04_A_b.gif","images/stimuli/complex_21_A_b.gif","forced_short","870","","","","","","4","complex_dissimilar","images/stimuli/complex_21_A_b.gif","",""
"","html-keyboard-response","87","209295","0.0-23.0-0.6","SS1627326781685","","null","","","null","","","","","","","","","","","<p><img src= images/blank.png width =""600"" height = ""600"" style=""position:fixed;top:50%; left:50%; transform: translate(-50%, -50%); border:5px solid black"">","","","","",""
"","stimuli-presentation","88","211029","0.0-23.0-1.6","SS1627326781685","","1225.8999999761581","trial","","40","500","1725.8999999761581","images/stimuli/complex_04_A_b.gif","images/stimuli/complex_21_A_b.gif","forced_short","870","","","","","","4","complex_dissimilar","images/stimuli/complex_21_A_b.gif","",""
"","html-keyboard-response","89","211976","0.0-23.0-0.7","SS1627326781685","","null","","","null","","","","","","","","","","","<p><img src= images/blank.png width =""600"" height = ""600"" style=""position:fixed;top:50%; left:50%; transform: translate(-50%, -50%); border:5px solid black"">","","","","",""
"","stimuli-presentation","90","212908","0.0-23.0-1.7","SS1627326781685","","420.60000002384186","trial","","40","500","920.6000000238419","images/stimuli/complex_04_A_b.gif","images/stimuli/complex_21_A_b.gif","forced_short","870","","","","","","4","complex_dissimilar","images/stimuli/complex_21_A_b.gif","",""
"","survey-multi-choice","91","214745","0.0-24.0","SS1627326781685","","1831.1000000238419","memory_test","","","","","","","","","{""Q0"":""Yes""}","[0]","images/stimuli/complex_21_A_b.gif","4","","","","","",""
"","survey-multi-choice","92","216415","0.0-25.0","SS1627326781685","","1665.1000000238419","memory_test","","","","","","","","","{""Q0"":""No""}","[0]","images/stimuli/complex_07_A_a.gif","4","","","","","",""
"","html-keyboard-response","93","217409","0.0-26.0-0.0","SS1627326781685","","null","","","null","","","","","","","","","","","<p><img src= images/blank.png width =""600"" height = ""600"" style=""position:fixed;top:50%; left:50%; transform: translate(-50%, -50%); border:5px solid black"">","","","","",""
"","stimuli-presentation","94","218467","0.0-26.0-1.0","SS1627326781685","","240.80000007152557","trial","","40","500","740.8000000715256","images/stimuli/complex_19_A_a.gif","images/stimuli/complex_24_A_b.gif","forced_short","810","","","","","","5","complex_dissimilar","images/stimuli/complex_24_A_b.gif","",""
"","html-keyboard-response","95","219358","0.0-26.0-0.1","SS1627326781685","","null","","","null","","","","","","","","","","","<p><img src= images/blank.png width =""600"" height = ""600"" style=""position:fixed;top:50%; left:50%; transform: translate(-50%, -50%); border:5px solid black"">","","","","",""
"","stimuli-presentation","96","220717","0.0-26.0-1.1","SS1627326781685","","851.8999999761581","trial","","40","500","1351.8999999761581","images/stimuli/complex_19_A_a.gif","images/stimuli/complex_24_A_b.gif","forced_short","810","","","","","","5","complex_dissimilar","images/stimuli/complex_24_A_b.gif","",""
"","html-keyboard-response","97","221966","0.0-26.0-0.2","SS1627326781685","","null","","","null","","","","","","","","","","","<p><img src= images/blank.png width =""600"" height = ""600"" style=""position:fixed;top:50%; left:50%; transform: translate(-50%, -50%); border:5px solid black"">","","","","",""
"","stimuli-presentation","98","222847","0.0-26.0-1.2","SS1627326781685","","370.7999999523163","trial","","40","500","870.7999999523163","images/stimuli/complex_19_A_a.gif","images/stimuli/complex_24_A_b.gif","forced_short","810","","","","","","5","complex_dissimilar","images/stimuli/complex_24_A_b.gif","",""
"","html-keyboard-response","99","224131","0.0-26.0-0.3","SS1627326781685","","null","","","null","","","","","","","","","","","<p><img src= images/blank.png width =""600"" height = ""600"" style=""position:fixed;top:50%; left:50%; transform: translate(-50%, -50%); border:5px solid black"">","","","","",""
"","stimuli-presentation","100","224746","0.0-26.0-1.3","SS1627326781685","","96.89999997615814","trial","","40","500","596.8999999761581","images/stimuli/complex_19_A_a.gif","images/stimuli/complex_24_A_b.gif","forced_short","810","","","","","","5","complex_dissimilar","images/stimuli/complex_24_A_b.gif","",""
"","html-keyboard-response","101","225596","0.0-26.0-0.4","SS1627326781685","","null","","","null","","","","","","","","","","","<p><img src= images/blank.png width =""600"" height = ""600"" style=""position:fixed;top:50%; left:50%; transform: translate(-50%, -50%); border:5px solid black"">","","","","",""
"","stimuli-presentation","102","229172","0.0-26.0-1.4","SS1627326781685","","3062.3000000715256","trial","","40","500","3562.3000000715256","images/stimuli/complex_19_A_a.gif","images/stimuli/complex_24_A_b.gif","forced_short","810","","","","","","5","complex_dissimilar","images/stimuli/complex_19_A_a.gif","",""
"","html-keyboard-response","103","230372","0.0-26.0-0.5","SS1627326781685","","null","","","null","","","","","","","","","","","<p><img src= images/blank.png width =""600"" height = ""600"" style=""position:fixed;top:50%; left:50%; transform: translate(-50%, -50%); border:5px solid black"">","","","","",""
"","stimuli-presentation","104","231370","0.0-26.0-1.5","SS1627326781685","","488.89999997615814","trial","","40","500","988.8999999761581","images/stimuli/complex_19_A_a.gif","images/stimuli/complex_24_A_b.gif","forced_short","810","","","","","","5","complex_dissimilar","images/stimuli/complex_24_A_b.gif","",""
"","html-keyboard-response","105","232203","0.0-26.0-0.6","SS1627326781685","","null","","","null","","","","","","","","","","","<p><img src= images/blank.png width =""600"" height = ""600"" style=""position:fixed;top:50%; left:50%; transform: translate(-50%, -50%); border:5px solid black"">","","","","",""
"","stimuli-presentation","106","233236","0.0-26.0-1.6","SS1627326781685","","516.2999999523163","trial","","40","500","1016.2999999523163","images/stimuli/complex_19_A_a.gif","images/stimuli/complex_24_A_b.gif","forced_short","810","","","","","","5","complex_dissimilar","images/stimuli/complex_24_A_b.gif","",""
"","html-keyboard-response","107","234185","0.0-26.0-0.7","SS1627326781685","","null","","","null","","","","","","","","","","","<p><img src= images/blank.png width =""600"" height = ""600"" style=""position:fixed;top:50%; left:50%; transform: translate(-50%, -50%); border:5px solid black"">","","","","",""
"","stimuli-presentation","108","235324","0.0-26.0-1.7","SS1627326781685","","617.1000000238419","trial","","40","500","1117.1000000238419","images/stimuli/complex_19_A_a.gif","images/stimuli/complex_24_A_b.gif","forced_short","810","","","","","","5","complex_dissimilar","images/stimuli/complex_19_A_a.gif","",""
"","survey-multi-choice","109","237253","0.0-27.0","SS1627326781685","","1921.8999999761581","memory_test","","","","","","","","","{""Q0"":""Yes""}","[0]","images/stimuli/complex_24_A_b.gif","5","","","","","",""
"","survey-multi-choice","110","238531","0.0-28.0","SS1627326781685","","1274.1000000238419","memory_test","","","","","","","","","{""Q0"":""No""}","[0]","images/stimuli/complex_03_A_a.gif","5","","","","","",""
"","html-keyboard-response","111","239440","0.0-29.0-0.0","SS1627326781685","","null","","","null","","","","","","","","","","","<p><img src= images/blank.png width =""600"" height = ""600"" style=""position:fixed;top:50%; left:50%; transform: translate(-50%, -50%); border:5px solid black"">","","","","",""
"","stimuli-presentation","112","240766","0.0-29.0-1.0","SS1627326781685","","574.6000000238419","trial","","40","500","1074.6000000238419","images/stimuli/complex_12_A_b.gif","images/stimuli/complex_22_A_a.gif","forced_short","740","","","","","","6","complex_dissimilar","images/stimuli/complex_22_A_a.gif","",""
"","html-keyboard-response","113","241619","0.0-29.0-0.1","SS1627326781685","","null","","","null","","","","","","","","","","","<p><img src= images/blank.png width =""600"" height = ""600"" style=""position:fixed;top:50%; left:50%; transform: translate(-50%, -50%); border:5px solid black"">","","","","",""
"","stimuli-presentation","114","242780","0.0-29.0-1.1","SS1627326781685","","650.3999999761581","trial","","40","500","1150.3999999761581","images/stimuli/complex_12_A_b.gif","images/stimuli/complex_22_A_a.gif","forced_short","740","","","","","","6","complex_dissimilar","images/stimuli/complex_22_A_a.gif","",""
"","html-keyboard-response","115","243661","0.0-29.0-0.2","SS1627326781685","","null","","","null","","","","","","","","","","","<p><img src= images/blank.png width =""600"" height = ""600"" style=""position:fixed;top:50%; left:50%; transform: translate(-50%, -50%); border:5px solid black"">","","","","",""
"","stimuli-presentation","116","244240","0.0-29.0-1.2","SS1627326781685","","66.60000002384186","trial","","40","500","566.6000000238419","images/stimuli/complex_12_A_b.gif","images/stimuli/complex_22_A_a.gif","forced_short","740","","","","","","6","complex_dissimilar","images/stimuli/complex_22_A_a.gif","",""
"","html-keyboard-response","117","245148","0.0-29.0-0.3","SS1627326781685","","null","","","null","","","","","","","","","","","<p><img src= images/blank.png width =""600"" height = ""600"" style=""position:fixed;top:50%; left:50%; transform: translate(-50%, -50%); border:5px solid black"">","","","","",""
"","stimuli-presentation","118","245729","0.0-29.0-1.3","SS1627326781685","","72.19999992847443","trial","","40","500","572.1999999284744","images/stimuli/complex_12_A_b.gif","images/stimuli/complex_22_A_a.gif","forced_short","740","","","","","","6","complex_dissimilar","images/stimuli/complex_22_A_a.gif","",""
"","html-keyboard-response","119","246692","0.0-29.0-0.4","SS1627326781685","","null","","","null","","","","","","","","","","","<p><img src= images/blank.png width =""600"" height = ""600"" style=""position:fixed;top:50%; left:50%; transform: translate(-50%, -50%); border:5px solid black"">","","","","",""
"","stimuli-presentation","120","248730","0.0-29.0-1.4","SS1627326781685","","1520.5","trial","","40","500","2020.5","images/stimuli/complex_12_A_b.gif","images/stimuli/complex_22_A_a.gif","forced_short","740","","","","","","6","complex_dissimilar","images/stimuli/complex_12_A_b.gif","",""
"","html-keyboard-response","121","250042","0.0-29.0-0.5","SS1627326781685","","null","","","null","","","","","","","","","","","<p><img src= images/blank.png width =""600"" height = ""600"" style=""position:fixed;top:50%; left:50%; transform: translate(-50%, -50%); border:5px solid black"">","","","","",""
"","stimuli-presentation","122","250622","0.0-29.0-1.5","SS1627326781685","","71","trial","","40","500","571","images/stimuli/complex_12_A_b.gif","images/stimuli/complex_22_A_a.gif","forced_short","740","","","","","","6","complex_dissimilar","images/stimuli/complex_22_A_a.gif","",""
"","html-keyboard-response","123","251654","0.0-29.0-0.6","SS1627326781685","","null","","","null","","","","","","","","","","","<p><img src= images/blank.png width =""600"" height = ""600"" style=""position:fixed;top:50%; left:50%; transform: translate(-50%, -50%); border:5px solid black"">","","","","",""
"","stimuli-presentation","124","252731","0.0-29.0-1.6","SS1627326781685","","561.7999999523163","trial","","40","500","1061.7999999523163","images/stimuli/complex_12_A_b.gif","images/stimuli/complex_22_A_a.gif","forced_short","740","","","","","","6","complex_dissimilar","images/stimuli/complex_22_A_a.gif","",""
"","html-keyboard-response","125","253981","0.0-29.0-0.7","SS1627326781685","","null","","","null","","","","","","","","","","","<p><img src= images/blank.png width =""600"" height = ""600"" style=""position:fixed;top:50%; left:50%; transform: translate(-50%, -50%); border:5px solid black"">","","","","",""
"","stimuli-presentation","126","254759","0.0-29.0-1.7","SS1627326781685","","267.6999999284744","trial","","40","500","767.6999999284744","images/stimuli/complex_12_A_b.gif","images/stimuli/complex_22_A_a.gif","forced_short","740","","","","","","6","complex_dissimilar","images/stimuli/complex_12_A_b.gif","",""
"","survey-multi-choice","127","256832","0.0-30.0","SS1627326781685","","2064.100000023842","memory_test","","","","","","","","","{""Q0"":""No""}","[0]","images/stimuli/complex_11_A_b.gif","6","","","","","",""
"","survey-multi-choice","128","258162","0.0-31.0","SS1627326781685","","1321.5","memory_test","","","","","","","","","{""Q0"":""Yes""}","[0]","images/stimuli/complex_22_A_a.gif","6","","","","","",""
"","html-keyboard-response","129","259210","0.0-32.0-0.0","SS1627326781685","","null","","","null","","","","","","","","","","","<p><img src= images/blank.png width =""600"" height = ""600"" style=""position:fixed;top:50%; left:50%; transform: translate(-50%, -50%); border:5px solid black"">","","","","",""
"","stimuli-presentation","130","260384","0.0-32.0-1.0","SS1627326781685","","509.5","trial","","40","500","1009.5","images/stimuli/complex_18_A_a.gif","images/stimuli/complex_20_A_a.gif","forced_short","650","","","","","","7","complex_dissimilar","images/stimuli/complex_20_A_a.gif","",""
"","html-keyboard-response","131","261378","0.0-32.0-0.1","SS1627326781685","","null","","","null","","","","","","","","","","","<p><img src= images/blank.png width =""600"" height = ""600"" style=""position:fixed;top:50%; left:50%; transform: translate(-50%, -50%); border:5px solid black"">","","","","",""
"","stimuli-presentation","132","262739","0.0-32.0-1.1","SS1627326781685","","854.0999999046326","trial","","40","500","1354.0999999046326","images/stimuli/complex_18_A_a.gif","images/stimuli/complex_20_A_a.gif","forced_short","650","","","","","","7","complex_dissimilar","images/stimuli/complex_20_A_a.gif","",""
"","html-keyboard-response","133","263645","0.0-32.0-0.2","SS1627326781685","","null","","","null","","","","","","","","","","","<p><img src= images/blank.png width =""600"" height = ""600"" style=""position:fixed;top:50%; left:50%; transform: translate(-50%, -50%); border:5px solid black"">","","","","",""
"","stimuli-presentation","134","264201","0.0-32.0-1.2","SS1627326781685","","44.09999990463257","trial","","40","500","544.0999999046326","images/stimuli/complex_18_A_a.gif","images/stimuli/complex_20_A_a.gif","forced_short","650","","","","","","7","complex_dissimilar","images/stimuli/complex_20_A_a.gif","",""
"","html-keyboard-response","135","265167","0.0-32.0-0.3","SS1627326781685","","null","","","null","","","","","","","","","","","<p><img src= images/blank.png width =""600"" height = ""600"" style=""position:fixed;top:50%; left:50%; transform: translate(-50%, -50%); border:5px solid black"">","","","","",""
"","stimuli-presentation","136","267091","0.0-32.0-1.3","SS1627326781685","","1411.7000000476837","trial","","40","500","1911.7000000476837","images/stimuli/complex_18_A_a.gif","images/stimuli/complex_20_A_a.gif","forced_short","650","","","","","","7","complex_dissimilar","images/stimuli/complex_18_A_a.gif","",""
"","html-keyboard-response","137","268379","0.0-32.0-0.4","SS1627326781685","","null","","","null","","","","","","","","","","","<p><img src= images/blank.png width =""600"" height = ""600"" style=""position:fixed;top:50%; left:50%; transform: translate(-50%, -50%); border:5px solid black"">","","","","",""
"","stimuli-presentation","138","269514","0.0-32.0-1.4","SS1627326781685","","621.1999999284744","trial","","40","500","1121.1999999284744","images/stimuli/complex_18_A_a.gif","images/stimuli/complex_20_A_a.gif","forced_short","650","","","","","","7","complex_dissimilar","images/stimuli/complex_20_A_a.gif","",""
"","html-keyboard-response","139","270670","0.0-32.0-0.5","SS1627326781685","","null","","","null","","","","","","","","","","","<p><img src= images/blank.png width =""600"" height = ""600"" style=""position:fixed;top:50%; left:50%; transform: translate(-50%, -50%); border:5px solid black"">","","","","",""
"","stimuli-presentation","140","272081","0.0-32.0-1.5","SS1627326781685","","901.6999999284744","trial","","40","500","1401.6999999284744","images/stimuli/complex_18_A_a.gif","images/stimuli/complex_20_A_a.gif","forced_short","650","","","","","","7","complex_dissimilar","images/stimuli/complex_18_A_a.gif","",""
"","html-keyboard-response","141","273238","0.0-32.0-0.6","SS1627326781685","","null","","","null","","","","","","","","","","","<p><img src= images/blank.png width =""600"" height = ""600"" style=""position:fixed;top:50%; left:50%; transform: translate(-50%, -50%); border:5px solid black"">","","","","",""
"","stimuli-presentation","142","275236","0.0-32.0-1.6","SS1627326781685","","1479.7999999523163","trial","","40","500","1979.7999999523163","images/stimuli/complex_18_A_a.gif","images/stimuli/complex_20_A_a.gif","forced_short","650","","","","","","7","complex_dissimilar","images/stimuli/complex_20_A_a.gif","",""
"","survey-multi-choice","143","277157","0.0-33.0","SS1627326781685","","1912.7000000476837","memory_test","","","","","","","","","{""Q0"":""No""}","[0]","images/stimuli/complex_09_A_b.gif","7","","","","","",""
"","survey-multi-choice","144","278595","0.0-34.0","SS1627326781685","","1426.3000000715256","memory_test","","","","","","","","","{""Q0"":""Yes""}","[0]","images/stimuli/complex_20_A_a.gif","7","","","","","",""
"","instructions","145","282257","0.0-35.0","SS1627326781685","[{""page_index"":0,""viewing_time"":3651.6999999284744}]","3652","instructions","","","","","","","","","","","","","","","","","",""
"","survey-likert","146","287062","0.0-36.0","SS1627326781685","","4794.899999976158","similarity_question","","","","","","","","","{""Q0"":1}","[0]","","","","","","","images/stimuli/complex_13_A_b.gif","images/stimuli/complex_23_A_a.gif"
"","survey-likert","147","291141","0.0-37.0","SS1627326781685","","4066.600000023842","similarity_question","","","","","","","","","{""Q0"":2}","[0]","","","","","","","images/stimuli/complex_19_A_a.gif","images/stimuli/complex_24_A_b.gif"
"","survey-likert","148","296483","0.0-38.0","SS1627326781685","","5328.199999928474","similarity_question","","","","","","","","","{""Q0"":4}","[0]","","","","","","","images/stimuli/complex_04_A_b.gif","images/stimuli/complex_21_A_b.gif"
"","survey-likert","149","299376","0.0-39.0","SS1627326781685","","2883.5","similarity_question","","","","","","","","","{""Q0"":1}","[0]","","","","","","","images/stimuli/complex_22_A_a.gif","images/stimuli/complex_12_A_b.gif"
"","survey-likert","150","304619","0.0-40.0","SS1627326781685","","5230.200000047684","similarity_question","","","","","","","","","{""Q0"":2}","[0]","","","","","","","images/stimuli/complex_14_A_a.gif","images/stimuli/complex_10_A_a.gif"
"","survey-likert","151","308349","0.0-41.0","SS1627326781685","","3717.600000023842","similarity_question","","","","","","","","","{""Q0"":5}","[0]","","","","","","","images/stimuli/complex_16_A_b.gif","images/stimuli/complex_02_A_b.gif"
"","survey-likert","152","312085","0.0-42.0","SS1627326781685","","3725.899999976158","similarity_question","","","","","","","","","{""Q0"":2}","[0]","","","","","","","images/stimuli/complex_08_A_a.gif","images/stimuli/complex_01_A_b.gif"
"","survey-likert","153","315324","0.0-43.0","SS1627326781685","","3227.3000000715256","similarity_question","","","","","","","","","{""Q0"":4}","[0]","","","","","","","images/stimuli/complex_18_A_a.gif","images/stimuli/complex_20_A_a.gif"
"","instructions","154","317212","0.0-44.0","SS1627326781685","[{""page_index"":0,""viewing_time"":1877.7000000476837}]","1878.5","instructions","","","","","","","","","","","","","","","","","",""
"","survey-likert","155","319786","0.0-45.0","SS1627326781685","","2564.2000000476837","","","","","","","","","","{""Q0"":2}","[0]","","","images/stimuli/complex_01_A_b.gif","","","","",""
"","survey-likert","156","322132","0.0-46.0","SS1627326781685","","2333.7000000476837","","","","","","","","","","{""Q0"":4}","[0]","","","images/stimuli/complex_20_A_a.gif","","","","",""
"","survey-likert","157","324717","0.0-47.0","SS1627326781685","","2573.899999976158","","","","","","","","","","{""Q0"":2}","[0]","","","images/stimuli/complex_22_A_a.gif","","","","",""
"","survey-likert","158","328635","0.0-48.0","SS1627326781685","","3907.2999999523163","","","","","","","","","","{""Q0"":4}","[0]","","","images/stimuli/complex_04_A_b.gif","","","","",""
"","survey-likert","159","331124","0.0-49.0","SS1627326781685","","2475.7999999523163","","","","","","","","","","{""Q0"":5}","[0]","","","images/stimuli/complex_14_A_a.gif","","","","",""
"","survey-likert","160","334746","0.0-50.0","SS1627326781685","","3609.399999976158","","","","","","","","","","{""Q0"":5}","[0]","","","images/stimuli/complex_19_A_a.gif","","","","",""
"","survey-likert","161","337385","0.0-51.0","SS1627326781685","","2628.5","","","","","","","","","","{""Q0"":1}","[0]","","","images/stimuli/complex_16_A_b.gif","","","","",""
"","survey-likert","162","340660","0.0-52.0","SS1627326781685","","3264.3000000715256","","","","","","","","","","{""Q0"":4}","[0]","","","images/stimuli/complex_13_A_b.gif","","","","",""
"true","fullscreen","163","341686","0.0-53.0","SS1627326781685","","","","","","","","","","","","","","","","","","","","",""
"","instructions","164","343853","0.0-54.0","SS1627326781685","[{""page_index"":0,""viewing_time"":2159.5999999046326}]","2159.899999976158","instructions","","","","","","","","","","","","","","","","","",""
"","demog-age","165","346588","0.0-55.0","SS1627326781685","","2728.399999976158","","","","","","","","","","{""age"":""21""}","","","","","","","","",""
"","demog-ethnic-US","166","350766","0.0-56.0","SS1627326781685","","4155.600000023842","","","","","","","","","","{""ethnicity"":[""White""]}","[0]","","","","","","","",""
"","demog-gender-and-education","167","355278","0.0-57.0","SS1627326781685","","4499.5","","","","","","","","","","{""gender"":""Female"",""education"":""Bachelor's Degree""}","[0,1]","","","","","","","",""
"","survey-text","168","360394","0.0-58.0","SS1627326781685","","5103.600000023842","feedback","","","","","","","","","{""Q0"":""No""}","","","","","","","","",""
"","instructions","169","361900","0.0-59.0","SS1627326781685","[{""page_index"":0,""viewing_time"":1496.5}]","1496.8999999761581","instructions","","","","","","","","","","","","","","","","","",""
