"success","trial_type","trial_index","time_elapsed","internal_node_id","subject","view_history","rt","stimulus_type","trial_stimulus","key_press","minimum_viewing_duration","trial_looking_time","block_deviant","block_background","exposure_type","forced_exposure_time","responses","question_order","memory_question_stimuli","memory_block_index","stimulus","block_number","block_type","stimulus_displayed","stimulus_left","stimulus_right"
"true","fullscreen","0","2329","0.0-0.0","SS1627326879965","","","","","","","","","","","","","","","","","","","","",""
"","instructions","1","3854","0.0-1.0","SS1627326879965","[{""page_index"":0,""viewing_time"":1523}]","1523","","","","","","","","","","","","","","","","","","",""
"","instructions","2","8383","0.0-2.0","SS1627326879965","[{""page_index"":0,""viewing_time"":1248.0000000000018},{""page_index"":1,""viewing_time"":1279.9999999999982}]","2528","instructions","","","","","","","","","","","","","","","","","",""
"","stimuli-presentation","3","13889","0.0-3.0","SS1627326879965","","5003","","","40","500","5503","null","null","self_paced","0","","","","","","","","","",""
"","instructions","4","23286","0.0-4.0","SS1627326879965","[{""page_index"":0,""viewing_time"":9396}]","9396","instructions","","","","","","","","","","","","","","","","","",""
"","stimuli-presentation","5","43986","0.0-5.0","SS1627326879965","","20198","","","40","500","20698","null","null","forced_short","500","","","","","","","","","",""
"","stimuli-presentation","6","46264","0.0-6.0","SS1627326879965","","1773","","","40","500","2273","null","null","forced_short","500","","","","","","","","","",""
"","instructions","7","52039","0.0-7.0","SS1627326879965","[{""page_index"":0,""viewing_time"":5773}]","5773","instructions","","","","","","","","","","","","","","","","","",""
"","survey-multi-choice","8","55392","0.0-8.0","SS1627326879965","","3350","memory_test_practice","","","","","","","","","{""Q0"":""Yes""}","[0]","images/practice/instructions_example_spore2.gif","0","","","","","",""
"","survey-multi-choice","9","60217","0.0-9.0","SS1627326879965","","4822.999999999993","memory_test_practice","","","","","","","","","{""Q0"":""No""}","[0]","images/practice/instructions_example_spore0.gif","0","","","","","",""
"","instructions","10","69707","0.0-10.0","SS1627326879965","[{""page_index"":0,""viewing_time"":8021.999999999993},{""page_index"":1,""viewing_time"":1467}]","9488.999999999993","instructions","","","","","","","","","","","","","","","","","",""
"","html-keyboard-response","11","70684","0.0-11.0-0.0","SS1627326879965","","null","","","null","","","","","","","","","","","<p><img src= images/blank.png width =""600"" height = ""600"" style=""position:fixed;top:50%; left:50%; transform: translate(-50%, -50%); border:5px solid black"">","","","","",""
"","stimuli-presentation","12","73349","0.0-11.0-1.0","SS1627326879965","","1783","trial","","40","500","2283","images/stimuli/complex_09_A_a.gif","images/stimuli/complex_05_A_b.gif","forced_short","880","","","","","","0","complex_dissimilar","images/stimuli/complex_05_A_b.gif","",""
"","html-keyboard-response","13","74153","0.0-11.0-0.1","SS1627326879965","","null","","","null","","","","","","","","","","","<p><img src= images/blank.png width =""600"" height = ""600"" style=""position:fixed;top:50%; left:50%; transform: translate(-50%, -50%); border:5px solid black"">","","","","",""
"","stimuli-presentation","14","92788","0.0-11.0-1.1","SS1627326879965","","18132","trial","","40","500","18632","images/stimuli/complex_09_A_a.gif","images/stimuli/complex_05_A_b.gif","forced_short","880","","","","","","0","complex_dissimilar","images/stimuli/complex_05_A_b.gif","",""
"","html-keyboard-response","15","94054","0.0-11.0-0.2","SS1627326879965","","null","","","null","","","","","","","","","","","<p><img src= images/blank.png width =""600"" height = ""600"" style=""position:fixed;top:50%; left:50%; transform: translate(-50%, -50%); border:5px solid black"">","","","","",""
"","stimuli-presentation","16","105745","0.0-11.0-1.2","SS1627326879965","","11186","trial","","40","500","11686","images/stimuli/complex_09_A_a.gif","images/stimuli/complex_05_A_b.gif","forced_short","880","","","","","","0","complex_dissimilar","images/stimuli/complex_05_A_b.gif","",""
"","html-keyboard-response","17","106914","0.0-11.0-0.3","SS1627326879965","","null","","","null","","","","","","","","","","","<p><img src= images/blank.png width =""600"" height = ""600"" style=""position:fixed;top:50%; left:50%; transform: translate(-50%, -50%); border:5px solid black"">","","","","",""
"","stimuli-presentation","18","122348","0.0-11.0-1.3","SS1627326879965","","14932","trial","","40","500","15432","images/stimuli/complex_09_A_a.gif","images/stimuli/complex_05_A_b.gif","forced_short","880","","","","","","0","complex_dissimilar","images/stimuli/complex_05_A_b.gif","",""
"","html-keyboard-response","19","123277","0.0-11.0-0.4","SS1627326879965","","null","","","null","","","","","","","","","","","<p><img src= images/blank.png width =""600"" height = ""600"" style=""position:fixed;top:50%; left:50%; transform: translate(-50%, -50%); border:5px solid black"">","","","","",""
"","stimuli-presentation","20","128220","0.0-11.0-1.4","SS1627326879965","","4439.999999999985","trial","","40","500","4939.999999999985","images/stimuli/complex_09_A_a.gif","images/stimuli/complex_05_A_b.gif","forced_short","880","","","","","","0","complex_dissimilar","images/stimuli/complex_05_A_b.gif","",""
"","html-keyboard-response","21","129511","0.0-11.0-0.5","SS1627326879965","","null","","","null","","","","","","","","","","","<p><img src= images/blank.png width =""600"" height = ""600"" style=""position:fixed;top:50%; left:50%; transform: translate(-50%, -50%); border:5px solid black"">","","","","",""
"","stimuli-presentation","22","135502","0.0-11.0-1.5","SS1627326879965","","5488","trial","","40","500","5988","images/stimuli/complex_09_A_a.gif","images/stimuli/complex_05_A_b.gif","forced_short","880","","","","","","0","complex_dissimilar","images/stimuli/complex_05_A_b.gif","",""
"","survey-multi-choice","23","138532","0.0-12.0","SS1627326879965","","3029","memory_test","","","","","","","","","{""Q0"":""No""}","[0]","images/stimuli/complex_08_A_b.gif","0","","","","","",""
"","survey-multi-choice","24","140507","0.0-13.0","SS1627326879965","","1974","memory_test","","","","","","","","","{""Q0"":""Yes""}","[0]","images/stimuli/complex_05_A_b.gif","0","","","","","",""
"","html-keyboard-response","25","141469","0.0-14.0-0.0","SS1627326879965","","null","","","null","","","","","","","","","","","<p><img src= images/blank.png width =""600"" height = ""600"" style=""position:fixed;top:50%; left:50%; transform: translate(-50%, -50%); border:5px solid black"">","","","","",""
"","stimuli-presentation","26","144557","0.0-14.0-1.0","SS1627326879965","","2405","trial","","40","500","2905","images/stimuli/complex_20_A_a.gif","images/stimuli/complex_11_A_b.gif","forced_short","680","","","","","","1","complex_dissimilar","images/stimuli/complex_11_A_b.gif","",""
"","html-keyboard-response","27","145396","0.0-14.0-0.1","SS1627326879965","","null","","","null","","","","","","","","","","","<p><img src= images/blank.png width =""600"" height = ""600"" style=""position:fixed;top:50%; left:50%; transform: translate(-50%, -50%); border:5px solid black"">","","","","",""
"","stimuli-presentation","28","151701","0.0-14.0-1.1","SS1627326879965","","5801","trial","","40","500","6301","images/stimuli/complex_20_A_a.gif","images/stimuli/complex_11_A_b.gif","forced_short","680","","","","","","1","complex_dissimilar","images/stimuli/complex_11_A_b.gif","",""
"","html-keyboard-response","29","152913","0.0-14.0-0.2","SS1627326879965","","null","","","null","","","","","","","","","","","<p><img src= images/blank.png width =""600"" height = ""600"" style=""position:fixed;top:50%; left:50%; transform: translate(-50%, -50%); border:5px solid black"">","","","","",""
"","stimuli-presentation","30","160345","0.0-14.0-1.2","SS1627326879965","","6929","trial","","40","500","7429","images/stimuli/complex_20_A_a.gif","images/stimuli/complex_11_A_b.gif","forced_short","680","","","","","","1","complex_dissimilar","images/stimuli/complex_11_A_b.gif","",""
"","html-keyboard-response","31","161296","0.0-14.0-0.3","SS1627326879965","","null","","","null","","","","","","","","","","","<p><img src= images/blank.png width =""600"" height = ""600"" style=""position:fixed;top:50%; left:50%; transform: translate(-50%, -50%); border:5px solid black"">","","","","",""
"","stimuli-presentation","32","164120","0.0-14.0-1.3","SS1627326879965","","2321.000000000029","trial","","40","500","2821.000000000029","images/stimuli/complex_20_A_a.gif","images/stimuli/complex_11_A_b.gif","forced_short","680","","","","","","1","complex_dissimilar","images/stimuli/complex_20_A_a.gif","",""
"","html-keyboard-response","33","165156","0.0-14.0-0.4","SS1627326879965","","null","","","null","","","","","","","","","","","<p><img src= images/blank.png width =""600"" height = ""600"" style=""position:fixed;top:50%; left:50%; transform: translate(-50%, -50%); border:5px solid black"">","","","","",""
"","stimuli-presentation","34","168602","0.0-14.0-1.4","SS1627326879965","","2943.000000000029","trial","","40","500","3443.000000000029","images/stimuli/complex_20_A_a.gif","images/stimuli/complex_11_A_b.gif","forced_short","680","","","","","","1","complex_dissimilar","images/stimuli/complex_11_A_b.gif","",""
"","html-keyboard-response","35","169648","0.0-14.0-0.5","SS1627326879965","","null","","","null","","","","","","","","","","","<p><img src= images/blank.png width =""600"" height = ""600"" style=""position:fixed;top:50%; left:50%; transform: translate(-50%, -50%); border:5px solid black"">","","","","",""
"","stimuli-presentation","36","172000","0.0-14.0-1.5","SS1627326879965","","1849","trial","","40","500","2349","images/stimuli/complex_20_A_a.gif","images/stimuli/complex_11_A_b.gif","forced_short","680","","","","","","1","complex_dissimilar","images/stimuli/complex_11_A_b.gif","",""
"","html-keyboard-response","37","172805","0.0-14.0-0.6","SS1627326879965","","null","","","null","","","","","","","","","","","<p><img src= images/blank.png width =""600"" height = ""600"" style=""position:fixed;top:50%; left:50%; transform: translate(-50%, -50%); border:5px solid black"">","","","","",""
"","stimuli-presentation","38","174537","0.0-14.0-1.6","SS1627326879965","","1229","trial","","40","500","1729","images/stimuli/complex_20_A_a.gif","images/stimuli/complex_11_A_b.gif","forced_short","680","","","","","","1","complex_dissimilar","images/stimuli/complex_11_A_b.gif","",""
"","survey-multi-choice","39","177787","0.0-15.0","SS1627326879965","","3248","memory_test","","","","","","","","","{""Q0"":""Yes""}","[0]","images/stimuli/complex_11_A_b.gif","1","","","","","",""
"","survey-multi-choice","40","181346","0.0-16.0","SS1627326879965","","3557.000000000029","memory_test","","","","","","","","","{""Q0"":""No""}","[0]","images/stimuli/complex_16_A_a.gif","1","","","","","",""
"","html-keyboard-response","41","182262","0.0-17.0-0.0","SS1627326879965","","null","","","null","","","","","","","","","","","<p><img src= images/blank.png width =""600"" height = ""600"" style=""position:fixed;top:50%; left:50%; transform: translate(-50%, -50%); border:5px solid black"">","","","","",""
"","stimuli-presentation","42","184713","0.0-17.0-1.0","SS1627326879965","","1877","trial","","40","500","2377","images/stimuli/complex_22_A_b.gif","images/stimuli/complex_15_A_a.gif","forced_short","570","","","","","","2","complex_dissimilar","images/stimuli/complex_15_A_a.gif","",""
"","html-keyboard-response","43","185902","0.0-17.0-0.1","SS1627326879965","","null","","","null","","","","","","","","","","","<p><img src= images/blank.png width =""600"" height = ""600"" style=""position:fixed;top:50%; left:50%; transform: translate(-50%, -50%); border:5px solid black"">","","","","",""
"","stimuli-presentation","44","190978","0.0-17.0-1.1","SS1627326879965","","4572","trial","","40","500","5072","images/stimuli/complex_22_A_b.gif","images/stimuli/complex_15_A_a.gif","forced_short","570","","","","","","2","complex_dissimilar","images/stimuli/complex_15_A_a.gif","",""
"","html-keyboard-response","45","192152","0.0-17.0-0.2","SS1627326879965","","null","","","null","","","","","","","","","","","<p><img src= images/blank.png width =""600"" height = ""600"" style=""position:fixed;top:50%; left:50%; transform: translate(-50%, -50%); border:5px solid black"">","","","","",""
"","stimuli-presentation","46","193924","0.0-17.0-1.2","SS1627326879965","","1268","trial","","40","500","1768","images/stimuli/complex_22_A_b.gif","images/stimuli/complex_15_A_a.gif","forced_short","570","","","","","","2","complex_dissimilar","images/stimuli/complex_15_A_a.gif","",""
"","html-keyboard-response","47","194937","0.0-17.0-0.3","SS1627326879965","","null","","","null","","","","","","","","","","","<p><img src= images/blank.png width =""600"" height = ""600"" style=""position:fixed;top:50%; left:50%; transform: translate(-50%, -50%); border:5px solid black"">","","","","",""
"","stimuli-presentation","48","196224","0.0-17.0-1.3","SS1627326879965","","782.9999999999709","trial","","40","500","1282.999999999971","images/stimuli/complex_22_A_b.gif","images/stimuli/complex_15_A_a.gif","forced_short","570","","","","","","2","complex_dissimilar","images/stimuli/complex_15_A_a.gif","",""
"","html-keyboard-response","49","197122","0.0-17.0-0.4","SS1627326879965","","null","","","null","","","","","","","","","","","<p><img src= images/blank.png width =""600"" height = ""600"" style=""position:fixed;top:50%; left:50%; transform: translate(-50%, -50%); border:5px solid black"">","","","","",""
"","stimuli-presentation","50","200255","0.0-17.0-1.4","SS1627326879965","","2628.999999999971","trial","","40","500","3128.999999999971","images/stimuli/complex_22_A_b.gif","images/stimuli/complex_15_A_a.gif","forced_short","570","","","","","","2","complex_dissimilar","images/stimuli/complex_15_A_a.gif","",""
"","html-keyboard-response","51","201163","0.0-17.0-0.5","SS1627326879965","","null","","","null","","","","","","","","","","","<p><img src= images/blank.png width =""600"" height = ""600"" style=""position:fixed;top:50%; left:50%; transform: translate(-50%, -50%); border:5px solid black"">","","","","",""
"","stimuli-presentation","52","202776","0.0-17.0-1.5","SS1627326879965","","1109","trial","","40","500","1609","images/stimuli/complex_22_A_b.gif","images/stimuli/complex_15_A_a.gif","forced_short","570","","","","","","2","complex_dissimilar","images/stimuli/complex_15_A_a.gif","",""
"","html-keyboard-response","53","203976","0.0-17.0-0.6","SS1627326879965","","null","","","null","","","","","","","","","","","<p><img src= images/blank.png width =""600"" height = ""600"" style=""position:fixed;top:50%; left:50%; transform: translate(-50%, -50%); border:5px solid black"">","","","","",""
"","stimuli-presentation","54","207763","0.0-17.0-1.6","SS1627326879965","","3283.000000000029","trial","","40","500","3783.000000000029","images/stimuli/complex_22_A_b.gif","images/stimuli/complex_15_A_a.gif","forced_short","570","","","","","","2","complex_dissimilar","images/stimuli/complex_15_A_a.gif","",""
"","survey-multi-choice","55","211004","0.0-18.0","SS1627326879965","","3238","memory_test","","","","","","","","","{""Q0"":""No""}","[0]","images/stimuli/complex_01_A_b.gif","2","","","","","",""
"","survey-multi-choice","56","212928","0.0-19.0","SS1627326879965","","1920.999999999971","memory_test","","","","","","","","","{""Q0"":""Yes""}","[0]","images/stimuli/complex_15_A_a.gif","2","","","","","",""
"","html-keyboard-response","57","213906","0.0-20.0-0.0","SS1627326879965","","null","","","null","","","","","","","","","","","<p><img src= images/blank.png width =""600"" height = ""600"" style=""position:fixed;top:50%; left:50%; transform: translate(-50%, -50%); border:5px solid black"">","","","","",""
"","stimuli-presentation","58","215845","0.0-20.0-1.0","SS1627326879965","","944.9999999999709","trial","","40","500","1444.999999999971","images/stimuli/complex_23_A_b.gif","images/stimuli/complex_13_A_b.gif","forced_short","990","","","","","","3","complex_dissimilar","images/stimuli/complex_13_A_b.gif","",""
"","html-keyboard-response","59","216689","0.0-20.0-0.1","SS1627326879965","","null","","","null","","","","","","","","","","","<p><img src= images/blank.png width =""600"" height = ""600"" style=""position:fixed;top:50%; left:50%; transform: translate(-50%, -50%); border:5px solid black"">","","","","",""
"","stimuli-presentation","60","219891","0.0-20.0-1.1","SS1627326879965","","2697","trial","","40","500","3197","images/stimuli/complex_23_A_b.gif","images/stimuli/complex_13_A_b.gif","forced_short","990","","","","","","3","complex_dissimilar","images/stimuli/complex_23_A_b.gif","",""
"","html-keyboard-response","61","220842","0.0-20.0-0.2","SS1627326879965","","null","","","null","","","","","","","","","","","<p><img src= images/blank.png width =""600"" height = ""600"" style=""position:fixed;top:50%; left:50%; transform: translate(-50%, -50%); border:5px solid black"">","","","","",""
"","stimuli-presentation","62","223208","0.0-20.0-1.2","SS1627326879965","","1861","trial","","40","500","2361","images/stimuli/complex_23_A_b.gif","images/stimuli/complex_13_A_b.gif","forced_short","990","","","","","","3","complex_dissimilar","images/stimuli/complex_13_A_b.gif","",""
"","html-keyboard-response","63","224262","0.0-20.0-0.3","SS1627326879965","","null","","","null","","","","","","","","","","","<p><img src= images/blank.png width =""600"" height = ""600"" style=""position:fixed;top:50%; left:50%; transform: translate(-50%, -50%); border:5px solid black"">","","","","",""
"","stimuli-presentation","64","227027","0.0-20.0-1.3","SS1627326879965","","2261","trial","","40","500","2761","images/stimuli/complex_23_A_b.gif","images/stimuli/complex_13_A_b.gif","forced_short","990","","","","","","3","complex_dissimilar","images/stimuli/complex_13_A_b.gif","",""
"","html-keyboard-response","65","228250","0.0-20.0-0.4","SS1627326879965","","null","","","null","","","","","","","","","","","<p><img src= images/blank.png width =""600"" height = ""600"" style=""position:fixed;top:50%; left:50%; transform: translate(-50%, -50%); border:5px solid black"">","","","","",""
"","stimuli-presentation","66","230661","0.0-20.0-1.4","SS1627326879965","","1908","trial","","40","500","2408","images/stimuli/complex_23_A_b.gif","images/stimuli/complex_13_A_b.gif","forced_short","990","","","","","","3","complex_dissimilar","images/stimuli/complex_13_A_b.gif","",""
"","html-keyboard-response","67","231795","0.0-20.0-0.5","SS1627326879965","","null","","","null","","","","","","","","","","","<p><img src= images/blank.png width =""600"" height = ""600"" style=""position:fixed;top:50%; left:50%; transform: translate(-50%, -50%); border:5px solid black"">","","","","",""
"","stimuli-presentation","68","234375","0.0-20.0-1.5","SS1627326879965","","2077","trial","","40","500","2577","images/stimuli/complex_23_A_b.gif","images/stimuli/complex_13_A_b.gif","forced_short","990","","","","","","3","complex_dissimilar","images/stimuli/complex_13_A_b.gif","",""
"","html-keyboard-response","69","235470","0.0-20.0-0.6","SS1627326879965","","null","","","null","","","","","","","","","","","<p><img src= images/blank.png width =""600"" height = ""600"" style=""position:fixed;top:50%; left:50%; transform: translate(-50%, -50%); border:5px solid black"">","","","","",""
"","stimuli-presentation","70","240065","0.0-20.0-1.6","SS1627326879965","","4092","trial","","40","500","4592","images/stimuli/complex_23_A_b.gif","images/stimuli/complex_13_A_b.gif","forced_short","990","","","","","","3","complex_dissimilar","images/stimuli/complex_13_A_b.gif","",""
"","survey-multi-choice","71","244207","0.0-21.0","SS1627326879965","","4140","memory_test","","","","","","","","","{""Q0"":""No""}","[0]","images/stimuli/complex_10_A_a.gif","3","","","","","",""
"","survey-multi-choice","72","246607","0.0-22.0","SS1627326879965","","2397.999999999971","memory_test","","","","","","","","","{""Q0"":""Yes""}","[0]","images/stimuli/complex_13_A_b.gif","3","","","","","",""
"","html-keyboard-response","73","247836","0.0-23.0-0.0","SS1627326879965","","null","","","null","","","","","","","","","","","<p><img src= images/blank.png width =""600"" height = ""600"" style=""position:fixed;top:50%; left:50%; transform: translate(-50%, -50%); border:5px solid black"">","","","","",""
"","stimuli-presentation","74","249462","0.0-23.0-1.0","SS1627326879965","","883","trial","","40","500","1383","images/stimuli/complex_06_A_b.gif","images/stimuli/complex_17_A_a.gif","forced_short","740","","","","","","4","complex_dissimilar","images/stimuli/complex_17_A_a.gif","",""
"","html-keyboard-response","75","250688","0.0-23.0-0.1","SS1627326879965","","null","","","null","","","","","","","","","","","<p><img src= images/blank.png width =""600"" height = ""600"" style=""position:fixed;top:50%; left:50%; transform: translate(-50%, -50%); border:5px solid black"">","","","","",""
"","stimuli-presentation","76","258974","0.0-23.0-1.1","SS1627326879965","","7783.000000000029","trial","","40","500","8283.00000000003","images/stimuli/complex_06_A_b.gif","images/stimuli/complex_17_A_a.gif","forced_short","740","","","","","","4","complex_dissimilar","images/stimuli/complex_06_A_b.gif","",""
"","html-keyboard-response","77","260021","0.0-23.0-0.2","SS1627326879965","","null","","","null","","","","","","","","","","","<p><img src= images/blank.png width =""600"" height = ""600"" style=""position:fixed;top:50%; left:50%; transform: translate(-50%, -50%); border:5px solid black"">","","","","",""
"","stimuli-presentation","78","262556","0.0-23.0-1.2","SS1627326879965","","2033","trial","","40","500","2533","images/stimuli/complex_06_A_b.gif","images/stimuli/complex_17_A_a.gif","forced_short","740","","","","","","4","complex_dissimilar","images/stimuli/complex_17_A_a.gif","",""
"","html-keyboard-response","79","263484","0.0-23.0-0.3","SS1627326879965","","null","","","null","","","","","","","","","","","<p><img src= images/blank.png width =""600"" height = ""600"" style=""position:fixed;top:50%; left:50%; transform: translate(-50%, -50%); border:5px solid black"">","","","","",""
"","stimuli-presentation","80","264624","0.0-23.0-1.3","SS1627326879965","","636","trial","","40","500","1136","images/stimuli/complex_06_A_b.gif","images/stimuli/complex_17_A_a.gif","forced_short","740","","","","","","4","complex_dissimilar","images/stimuli/complex_17_A_a.gif","",""
"","html-keyboard-response","81","265529","0.0-23.0-0.4","SS1627326879965","","null","","","null","","","","","","","","","","","<p><img src= images/blank.png width =""600"" height = ""600"" style=""position:fixed;top:50%; left:50%; transform: translate(-50%, -50%); border:5px solid black"">","","","","",""
"","stimuli-presentation","82","266926","0.0-23.0-1.4","SS1627326879965","","893","trial","","40","500","1393","images/stimuli/complex_06_A_b.gif","images/stimuli/complex_17_A_a.gif","forced_short","740","","","","","","4","complex_dissimilar","images/stimuli/complex_06_A_b.gif","",""
"","html-keyboard-response","83","267844","0.0-23.0-0.5","SS1627326879965","","null","","","null","","","","","","","","","","","<p><img src= images/blank.png width =""600"" height = ""600"" style=""position:fixed;top:50%; left:50%; transform: translate(-50%, -50%); border:5px solid black"">","","","","",""
"","stimuli-presentation","84","269238","0.0-23.0-1.5","SS1627326879965","","891","trial","","40","500","1391","images/stimuli/complex_06_A_b.gif","images/stimuli/complex_17_A_a.gif","forced_short","740","","","","","","4","complex_dissimilar","images/stimuli/complex_17_A_a.gif","",""
"","survey-multi-choice","85","272812","0.0-24.0","SS1627326879965","","3572","memory_test","","","","","","","","","{""Q0"":""No""}","[0]","images/stimuli/complex_07_A_b.gif","4","","","","","",""
"","survey-multi-choice","86","274856","0.0-25.0","SS1627326879965","","2042","memory_test","","","","","","","","","{""Q0"":""Yes""}","[0]","images/stimuli/complex_06_A_b.gif","4","","","","","",""
"","html-keyboard-response","87","276157","0.0-26.0-0.0","SS1627326879965","","null","","","null","","","","","","","","","","","<p><img src= images/blank.png width =""600"" height = ""600"" style=""position:fixed;top:50%; left:50%; transform: translate(-50%, -50%); border:5px solid black"">","","","","",""
"","stimuli-presentation","88","278148","0.0-26.0-1.0","SS1627326879965","","1247.0000000000582","trial","","40","500","1747.0000000000582","images/stimuli/complex_02_A_b.gif","images/stimuli/complex_04_A_a.gif","forced_short","740","","","","","","5","complex_dissimilar","images/stimuli/complex_04_A_a.gif","",""
"","html-keyboard-response","89","279434","0.0-26.0-0.1","SS1627326879965","","null","","","null","","","","","","","","","","","<p><img src= images/blank.png width =""600"" height = ""600"" style=""position:fixed;top:50%; left:50%; transform: translate(-50%, -50%); border:5px solid black"">","","","","",""
"","stimuli-presentation","90","281999","0.0-26.0-1.1","SS1627326879965","","2061","trial","","40","500","2561","images/stimuli/complex_02_A_b.gif","images/stimuli/complex_04_A_a.gif","forced_short","740","","","","","","5","complex_dissimilar","images/stimuli/complex_04_A_a.gif","",""
"","html-keyboard-response","91","282945","0.0-26.0-0.2","SS1627326879965","","null","","","null","","","","","","","","","","","<p><img src= images/blank.png width =""600"" height = ""600"" style=""position:fixed;top:50%; left:50%; transform: translate(-50%, -50%); border:5px solid black"">","","","","",""
"","stimuli-presentation","92","284075","0.0-26.0-1.2","SS1627326879965","","626","trial","","40","500","1126","images/stimuli/complex_02_A_b.gif","images/stimuli/complex_04_A_a.gif","forced_short","740","","","","","","5","complex_dissimilar","images/stimuli/complex_04_A_a.gif","",""
"","html-keyboard-response","93","284913","0.0-26.0-0.3","SS1627326879965","","null","","","null","","","","","","","","","","","<p><img src= images/blank.png width =""600"" height = ""600"" style=""position:fixed;top:50%; left:50%; transform: translate(-50%, -50%); border:5px solid black"">","","","","",""
"","stimuli-presentation","94","286466","0.0-26.0-1.3","SS1627326879965","","1049","trial","","40","500","1549","images/stimuli/complex_02_A_b.gif","images/stimuli/complex_04_A_a.gif","forced_short","740","","","","","","5","complex_dissimilar","images/stimuli/complex_02_A_b.gif","",""
"","html-keyboard-response","95","287314","0.0-26.0-0.4","SS1627326879965","","null","","","null","","","","","","","","","","","<p><img src= images/blank.png width =""600"" height = ""600"" style=""position:fixed;top:50%; left:50%; transform: translate(-50%, -50%); border:5px solid black"">","","","","",""
"","stimuli-presentation","96","288885","0.0-26.0-1.4","SS1627326879965","","1068.0000000000582","trial","","40","500","1568.0000000000582","images/stimuli/complex_02_A_b.gif","images/stimuli/complex_04_A_a.gif","forced_short","740","","","","","","5","complex_dissimilar","images/stimuli/complex_04_A_a.gif","",""
"","html-keyboard-response","97","289774","0.0-26.0-0.5","SS1627326879965","","null","","","null","","","","","","","","","","","<p><img src= images/blank.png width =""600"" height = ""600"" style=""position:fixed;top:50%; left:50%; transform: translate(-50%, -50%); border:5px solid black"">","","","","",""
"","stimuli-presentation","98","290857","0.0-26.0-1.5","SS1627326879965","","580","trial","","40","500","1080","images/stimuli/complex_02_A_b.gif","images/stimuli/complex_04_A_a.gif","forced_short","740","","","","","","5","complex_dissimilar","images/stimuli/complex_04_A_a.gif","",""
"","survey-multi-choice","99","294619","0.0-27.0","SS1627326879965","","3758","memory_test","","","","","","","","","{""Q0"":""Yes""}","[0]","images/stimuli/complex_04_A_a.gif","5","","","","","",""
"","survey-multi-choice","100","296678","0.0-28.0","SS1627326879965","","2057","memory_test","","","","","","","","","{""Q0"":""No""}","[0]","images/stimuli/complex_03_A_b.gif","5","","","","","",""
"","html-keyboard-response","101","297641","0.0-29.0-0.0","SS1627326879965","","null","","","null","","","","","","","","","","","<p><img src= images/blank.png width =""600"" height = ""600"" style=""position:fixed;top:50%; left:50%; transform: translate(-50%, -50%); border:5px solid black"">","","","","",""
"","stimuli-presentation","102","298997","0.0-29.0-1.0","SS1627326879965","","1301","trial","","40","500","1801","images/stimuli/complex_21_A_b.gif","images/stimuli/complex_18_A_b.gif","forced_short","50","","","","","","6","complex_dissimilar","images/stimuli/complex_18_A_b.gif","",""
"","html-keyboard-response","103","299846","0.0-29.0-0.1","SS1627326879965","","null","","","null","","","","","","","","","","","<p><img src= images/blank.png width =""600"" height = ""600"" style=""position:fixed;top:50%; left:50%; transform: translate(-50%, -50%); border:5px solid black"">","","","","",""
"","stimuli-presentation","104","302822","0.0-29.0-1.1","SS1627326879965","","2472","trial","","40","500","2972","images/stimuli/complex_21_A_b.gif","images/stimuli/complex_18_A_b.gif","forced_short","50","","","","","","6","complex_dissimilar","images/stimuli/complex_18_A_b.gif","",""
"","html-keyboard-response","105","303747","0.0-29.0-0.2","SS1627326879965","","null","","","null","","","","","","","","","","","<p><img src= images/blank.png width =""600"" height = ""600"" style=""position:fixed;top:50%; left:50%; transform: translate(-50%, -50%); border:5px solid black"">","","","","",""
"","stimuli-presentation","106","304450","0.0-29.0-1.2","SS1627326879965","","200.0000000000582","trial","","40","500","700.0000000000582","images/stimuli/complex_21_A_b.gif","images/stimuli/complex_18_A_b.gif","forced_short","50","","","","","","6","complex_dissimilar","images/stimuli/complex_18_A_b.gif","",""
"","html-keyboard-response","107","305454","0.0-29.0-0.3","SS1627326879965","","null","","","null","","","","","","","","","","","<p><img src= images/blank.png width =""600"" height = ""600"" style=""position:fixed;top:50%; left:50%; transform: translate(-50%, -50%); border:5px solid black"">","","","","",""
"","stimuli-presentation","108","306297","0.0-29.0-1.3","SS1627326879965","","339","trial","","40","500","839","images/stimuli/complex_21_A_b.gif","images/stimuli/complex_18_A_b.gif","forced_short","50","","","","","","6","complex_dissimilar","images/stimuli/complex_18_A_b.gif","",""
"","html-keyboard-response","109","307388","0.0-29.0-0.4","SS1627326879965","","null","","","null","","","","","","","","","","","<p><img src= images/blank.png width =""600"" height = ""600"" style=""position:fixed;top:50%; left:50%; transform: translate(-50%, -50%); border:5px solid black"">","","","","",""
"","stimuli-presentation","110","308390","0.0-29.0-1.4","SS1627326879965","","498","trial","","40","500","998","images/stimuli/complex_21_A_b.gif","images/stimuli/complex_18_A_b.gif","forced_short","50","","","","","","6","complex_dissimilar","images/stimuli/complex_18_A_b.gif","",""
"","html-keyboard-response","111","309404","0.0-29.0-0.5","SS1627326879965","","null","","","null","","","","","","","","","","","<p><img src= images/blank.png width =""600"" height = ""600"" style=""position:fixed;top:50%; left:50%; transform: translate(-50%, -50%); border:5px solid black"">","","","","",""
"","stimuli-presentation","112","310153","0.0-29.0-1.5","SS1627326879965","","246","trial","","40","500","746","images/stimuli/complex_21_A_b.gif","images/stimuli/complex_18_A_b.gif","forced_short","50","","","","","","6","complex_dissimilar","images/stimuli/complex_18_A_b.gif","",""
"","html-keyboard-response","113","311020","0.0-29.0-0.6","SS1627326879965","","null","","","null","","","","","","","","","","","<p><img src= images/blank.png width =""600"" height = ""600"" style=""position:fixed;top:50%; left:50%; transform: translate(-50%, -50%); border:5px solid black"">","","","","",""
"","stimuli-presentation","114","312002","0.0-29.0-1.6","SS1627326879965","","476","trial","","40","500","976","images/stimuli/complex_21_A_b.gif","images/stimuli/complex_18_A_b.gif","forced_short","50","","","","","","6","complex_dissimilar","images/stimuli/complex_18_A_b.gif","",""
"","survey-multi-choice","115","319020","0.0-30.0","SS1627326879965","","7016","memory_test","","","","","","","","","{""Q0"":""No""}","[0]","images/stimuli/complex_24_A_b.gif","6","","","","","",""
"","survey-multi-choice","116","321005","0.0-31.0","SS1627326879965","","1982.9999999999418","memory_test","","","","","","","","","{""Q0"":""Yes""}","[0]","images/stimuli/complex_18_A_b.gif","6","","","","","",""
"","html-keyboard-response","117","321814","0.0-32.0-0.0","SS1627326879965","","null","","","null","","","","","","","","","","","<p><img src= images/blank.png width =""600"" height = ""600"" style=""position:fixed;top:50%; left:50%; transform: translate(-50%, -50%); border:5px solid black"">","","","","",""
"","stimuli-presentation","118","322787","0.0-32.0-1.0","SS1627326879965","","896","trial","","40","500","1396","images/stimuli/complex_12_A_b.gif","images/stimuli/complex_14_A_a.gif","forced_short","70","","","","","","7","complex_dissimilar","images/stimuli/complex_14_A_a.gif","",""
"","html-keyboard-response","119","323600","0.0-32.0-0.1","SS1627326879965","","null","","","null","","","","","","","","","","","<p><img src= images/blank.png width =""600"" height = ""600"" style=""position:fixed;top:50%; left:50%; transform: translate(-50%, -50%); border:5px solid black"">","","","","",""
"","stimuli-presentation","120","325881","0.0-32.0-1.1","SS1627326879965","","1776","trial","","40","500","2276","images/stimuli/complex_12_A_b.gif","images/stimuli/complex_14_A_a.gif","forced_short","70","","","","","","7","complex_dissimilar","images/stimuli/complex_14_A_a.gif","",""
"","html-keyboard-response","121","326879","0.0-32.0-0.2","SS1627326879965","","null","","","null","","","","","","","","","","","<p><img src= images/blank.png width =""600"" height = ""600"" style=""position:fixed;top:50%; left:50%; transform: translate(-50%, -50%); border:5px solid black"">","","","","",""
"","stimuli-presentation","122","327663","0.0-32.0-1.2","SS1627326879965","","278","trial","","40","500","778","images/stimuli/complex_12_A_b.gif","images/stimuli/complex_14_A_a.gif","forced_short","70","","","","","","7","complex_dissimilar","images/stimuli/complex_14_A_a.gif","",""
"","html-keyboard-response","123","328793","0.0-32.0-0.3","SS1627326879965","","null","","","null","","","","","","","","","","","<p><img src= images/blank.png width =""600"" height = ""600"" style=""position:fixed;top:50%; left:50%; transform: translate(-50%, -50%); border:5px solid black"">","","","","",""
"","stimuli-presentation","124","329462","0.0-32.0-1.3","SS1627326879965","","166","trial","","40","500","666","images/stimuli/complex_12_A_b.gif","images/stimuli/complex_14_A_a.gif","forced_short","70","","","","","","7","complex_dissimilar","images/stimuli/complex_14_A_a.gif","",""
"","html-keyboard-response","125","330451","0.0-32.0-0.4","SS1627326879965","","null","","","null","","","","","","","","","","","<p><img src= images/blank.png width =""600"" height = ""600"" style=""position:fixed;top:50%; left:50%; transform: translate(-50%, -50%); border:5px solid black"">","","","","",""
"","stimuli-presentation","126","331202","0.0-32.0-1.4","SS1627326879965","","246","trial","","40","500","746","images/stimuli/complex_12_A_b.gif","images/stimuli/complex_14_A_a.gif","forced_short","70","","","","","","7","complex_dissimilar","images/stimuli/complex_14_A_a.gif","",""
"","html-keyboard-response","127","332168","0.0-32.0-0.5","SS1627326879965","","null","","","null","","","","","","","","","","","<p><img src= images/blank.png width =""600"" height = ""600"" style=""position:fixed;top:50%; left:50%; transform: translate(-50%, -50%); border:5px solid black"">","","","","",""
"","stimuli-presentation","128","333256","0.0-32.0-1.5","SS1627326879965","","583","trial","","40","500","1083","images/stimuli/complex_12_A_b.gif","images/stimuli/complex_14_A_a.gif","forced_short","70","","","","","","7","complex_dissimilar","images/stimuli/complex_14_A_a.gif","",""
"","html-keyboard-response","129","334249","0.0-32.0-0.6","SS1627326879965","","null","","","null","","","","","","","","","","","<p><img src= images/blank.png width =""600"" height = ""600"" style=""position:fixed;top:50%; left:50%; transform: translate(-50%, -50%); border:5px solid black"">","","","","",""
"","stimuli-presentation","130","335251","0.0-32.0-1.6","SS1627326879965","","498","trial","","40","500","998","images/stimuli/complex_12_A_b.gif","images/stimuli/complex_14_A_a.gif","forced_short","70","","","","","","7","complex_dissimilar","images/stimuli/complex_14_A_a.gif","",""
"","survey-multi-choice","131","337439","0.0-33.0","SS1627326879965","","2186","memory_test","","","","","","","","","{""Q0"":""Yes""}","[0]","images/stimuli/complex_14_A_a.gif","7","","","","","",""
"","survey-multi-choice","132","339893","0.0-34.0","SS1627326879965","","2452","memory_test","","","","","","","","","{""Q0"":""No""}","[0]","images/stimuli/complex_19_A_a.gif","7","","","","","",""
"","instructions","133","342993","0.0-35.0","SS1627326879965","[{""page_index"":0,""viewing_time"":3096}]","3096","instructions","","","","","","","","","","","","","","","","","",""
"","survey-likert","134","350675","0.0-36.0","SS1627326879965","","7679","similarity_question","","","","","","","","","{""Q0"":1}","[0]","","","","","","","images/stimuli/complex_23_A_b.gif","images/stimuli/complex_13_A_b.gif"
"","survey-likert","135","359158","0.0-37.0","SS1627326879965","","8481","similarity_question","","","","","","","","","{""Q0"":1}","[0]","","","","","","","images/stimuli/complex_12_A_b.gif","images/stimuli/complex_14_A_a.gif"
"","survey-likert","136","367281","0.0-38.0","SS1627326879965","","8120","similarity_question","","","","","","","","","{""Q0"":2}","[0]","","","","","","","images/stimuli/complex_22_A_b.gif","images/stimuli/complex_15_A_a.gif"
"","survey-likert","137","374248","0.0-39.0","SS1627326879965","","6965.000000000058","similarity_question","","","","","","","","","{""Q0"":3}","[0]","","","","","","","images/stimuli/complex_11_A_b.gif","images/stimuli/complex_20_A_a.gif"
"","survey-likert","138","379311","0.0-40.0","SS1627326879965","","5060","similarity_question","","","","","","","","","{""Q0"":4}","[0]","","","","","","","images/stimuli/complex_06_A_b.gif","images/stimuli/complex_17_A_a.gif"
"","survey-likert","139","383810","0.0-41.0","SS1627326879965","","4496","similarity_question","","","","","","","","","{""Q0"":2}","[0]","","","","","","","images/stimuli/complex_04_A_a.gif","images/stimuli/complex_02_A_b.gif"
"","survey-likert","140","389767","0.0-42.0","SS1627326879965","","5954","similarity_question","","","","","","","","","{""Q0"":2}","[0]","","","","","","","images/stimuli/complex_18_A_b.gif","images/stimuli/complex_21_A_b.gif"
"","survey-likert","141","394340","0.0-43.0","SS1627326879965","","4570","similarity_question","","","","","","","","","{""Q0"":1}","[0]","","","","","","","images/stimuli/complex_05_A_b.gif","images/stimuli/complex_09_A_a.gif"
"","instructions","142","397344","0.0-44.0","SS1627326879965","[{""page_index"":0,""viewing_time"":3001}]","3001","instructions","","","","","","","","","","","","","","","","","",""
"","survey-likert","143","405142","0.0-45.0","SS1627326879965","","7795","","","","","","","","","","{""Q0"":4}","[0]","","","images/stimuli/complex_05_A_b.gif","","","","",""
"","survey-likert","144","408936","0.0-46.0","SS1627326879965","","3791","","","","","","","","","","{""Q0"":5}","[0]","","","images/stimuli/complex_17_A_a.gif","","","","",""
"","survey-likert","145","411811","0.0-47.0","SS1627326879965","","2872","","","","","","","","","","{""Q0"":5}","[0]","","","images/stimuli/complex_15_A_a.gif","","","","",""
"","survey-likert","146","415376","0.0-48.0","SS1627326879965","","3562","","","","","","","","","","{""Q0"":2}","[0]","","","images/stimuli/complex_11_A_b.gif","","","","",""
"","survey-likert","147","418152","0.0-49.0","SS1627326879965","","2774","","","","","","","","","","{""Q0"":1}","[0]","","","images/stimuli/complex_02_A_b.gif","","","","",""
"","survey-likert","148","421253","0.0-50.0","SS1627326879965","","3098","","","","","","","","","","{""Q0"":4}","[0]","","","images/stimuli/complex_13_A_b.gif","","","","",""
"","survey-likert","149","424988","0.0-51.0","SS1627326879965","","3731.999999999942","","","","","","","","","","{""Q0"":3}","[0]","","","images/stimuli/complex_14_A_a.gif","","","","",""
"","survey-likert","150","429063","0.0-52.0","SS1627326879965","","4072","","","","","","","","","","{""Q0"":3}","[0]","","","images/stimuli/complex_18_A_b.gif","","","","",""
"true","fullscreen","151","430066","0.0-53.0","SS1627326879965","","","","","","","","","","","","","","","","","","","","",""
"","instructions","152","432036","0.0-54.0","SS1627326879965","[{""page_index"":0,""viewing_time"":1966.0000000000582}]","1967","instructions","","","","","","","","","","","","","","","","","",""
"","demog-age","153","447621","0.0-55.0","SS1627326879965","","15576","","","","","","","","","","{""age"":""20""}","","","","","","","","",""
"","demog-ethnic-US","154","450982","0.0-56.0","SS1627326879965","","3358","","","","","","","","","","{""ethnicity"":[""White""]}","[0]","","","","","","","",""
"","demog-gender-and-education","155","461186","0.0-57.0","SS1627326879965","","10201","","","","","","","","","","{""gender"":""Male"",""education"":""Associate Degree/Technical certification""}","[0,1]","","","","","","","",""
"","survey-text","156","474694","0.0-58.0","SS1627326879965","","13501","feedback","","","","","","","","","{""Q0"":""I didn't notice any lagging.""}","","","","","","","","",""
"","instructions","157","476008","0.0-59.0","SS1627326879965","[{""page_index"":0,""viewing_time"":1311.9999999999418}]","1311.9999999999418","instructions","","","","","","","","","","","","","","","","","",""
