"success","trial_type","trial_index","time_elapsed","internal_node_id","subject","view_history","rt","stimulus_type","trial_stimulus","key_press","minimum_viewing_duration","trial_looking_time","block_deviant","block_background","exposure_type","forced_exposure_time","responses","question_order","memory_question_stimuli","memory_block_index","stimulus","block_number","block_type","stimulus_displayed","stimulus_left","stimulus_right"
"true","fullscreen","0","4416","0.0-0.0","SS1627326983998","","","","","","","","","","","","","","","","","","","","",""
"","instructions","1","20541","0.0-1.0","SS1627326983998","[{""page_index"":0,""viewing_time"":16120.700000047684}]","16122","","","","","","","","","","","","","","","","","","",""
"","instructions","2","41068","0.0-2.0","SS1627326983998","[{""page_index"":0,""viewing_time"":14285.599999964237},{""page_index"":1,""viewing_time"":4232.800000011921}]","18519","instructions","","","","","","","","","","","","","","","","","",""
"","stimuli-presentation","3","57957","0.0-3.0","SS1627326983998","","16380","","","40","500","16880","null","null","self_paced","0","","","","","","","","","",""
"","instructions","4","71121","0.0-4.0","SS1627326983998","[{""page_index"":0,""viewing_time"":13161.399999976158}]","13162.100000023842","instructions","","","","","","","","","","","","","","","","","",""
"","stimuli-presentation","5","80708","0.0-5.0","SS1627326983998","","9067.600000023842","","","40","500","9567.600000023842","null","null","forced_short","500","","","","","","","","","",""
"","stimuli-presentation","6","82549","0.0-6.0","SS1627326983998","","1336.4000000357628","","","40","500","1836.4000000357628","null","null","forced_short","500","","","","","","","","","",""
"","instructions","7","91444","0.0-7.0","SS1627326983998","[{""page_index"":0,""viewing_time"":8892.5}]","8893.300000011921","instructions","","","","","","","","","","","","","","","","","",""
"","survey-multi-choice","8","97016","0.0-8.0","SS1627326983998","","5566.900000035763","memory_test_practice","","","","","","","","","{""Q0"":""No""}","[0]","images/practice/instructions_example_spore2.gif","0","","","","","",""
"","survey-multi-choice","9","104589","0.0-9.0","SS1627326983998","","7569.600000023842","memory_test_practice","","","","","","","","","{""Q0"":""No""}","[0]","images/practice/instructions_example_spore0.gif","0","","","","","",""
"","instructions","10","328675","0.0-10.0","SS1627326983998","[{""page_index"":0,""viewing_time"":222330.5},{""page_index"":1,""viewing_time"":1751.4000000357628}]","224082.69999998808","instructions","","","","","","","","","","","","","","","","","",""
"","html-keyboard-response","11","329526","0.0-11.0-0.0","SS1627326983998","","null","","","null","","","","","","","","","","","<p><img src= images/blank.png width =""600"" height = ""600"" style=""position:fixed;top:50%; left:50%; transform: translate(-50%, -50%); border:5px solid black"">","","","","",""
"","stimuli-presentation","12","333627","0.0-11.0-1.0","SS1627326983998","","3573.100000023842","trial","","40","500","4073.100000023842","images/stimuli/complex_08_A_b.gif","images/stimuli/complex_02_A_b.gif","forced_short","520","","","","","","0","complex_dissimilar","images/stimuli/complex_02_A_b.gif","",""
"","html-keyboard-response","13","334741","0.0-11.0-0.1","SS1627326983998","","null","","","null","","","","","","","","","","","<p><img src= images/blank.png width =""600"" height = ""600"" style=""position:fixed;top:50%; left:50%; transform: translate(-50%, -50%); border:5px solid black"">","","","","",""
"","stimuli-presentation","14","345516","0.0-11.0-1.1","SS1627326983998","","10265.400000035763","trial","","40","500","10765.400000035763","images/stimuli/complex_08_A_b.gif","images/stimuli/complex_02_A_b.gif","forced_short","520","","","","","","0","complex_dissimilar","images/stimuli/complex_08_A_b.gif","",""
"","html-keyboard-response","15","346441","0.0-11.0-0.2","SS1627326983998","","null","","","null","","","","","","","","","","","<p><img src= images/blank.png width =""600"" height = ""600"" style=""position:fixed;top:50%; left:50%; transform: translate(-50%, -50%); border:5px solid black"">","","","","",""
"","stimuli-presentation","16","355257","0.0-11.0-1.2","SS1627326983998","","8309.399999976158","trial","","40","500","8809.399999976158","images/stimuli/complex_08_A_b.gif","images/stimuli/complex_02_A_b.gif","forced_short","520","","","","","","0","complex_dissimilar","images/stimuli/complex_02_A_b.gif","",""
"","html-keyboard-response","17","356414","0.0-11.0-0.3","SS1627326983998","","null","","","null","","","","","","","","","","","<p><img src= images/blank.png width =""600"" height = ""600"" style=""position:fixed;top:50%; left:50%; transform: translate(-50%, -50%); border:5px solid black"">","","","","",""
"","stimuli-presentation","18","361441","0.0-11.0-1.3","SS1627326983998","","4519.800000011921","trial","","40","500","5019.800000011921","images/stimuli/complex_08_A_b.gif","images/stimuli/complex_02_A_b.gif","forced_short","520","","","","","","0","complex_dissimilar","images/stimuli/complex_02_A_b.gif","",""
"","html-keyboard-response","19","362374","0.0-11.0-0.4","SS1627326983998","","null","","","null","","","","","","","","","","","<p><img src= images/blank.png width =""600"" height = ""600"" style=""position:fixed;top:50%; left:50%; transform: translate(-50%, -50%); border:5px solid black"">","","","","",""
"","stimuli-presentation","20","367828","0.0-11.0-1.4","SS1627326983998","","4935.899999976158","trial","","40","500","5435.899999976158","images/stimuli/complex_08_A_b.gif","images/stimuli/complex_02_A_b.gif","forced_short","520","","","","","","0","complex_dissimilar","images/stimuli/complex_02_A_b.gif","",""
"","html-keyboard-response","21","368831","0.0-11.0-0.5","SS1627326983998","","null","","","null","","","","","","","","","","","<p><img src= images/blank.png width =""600"" height = ""600"" style=""position:fixed;top:50%; left:50%; transform: translate(-50%, -50%); border:5px solid black"">","","","","",""
"","stimuli-presentation","22","374757","0.0-11.0-1.5","SS1627326983998","","5414.200000047684","trial","","40","500","5914.200000047684","images/stimuli/complex_08_A_b.gif","images/stimuli/complex_02_A_b.gif","forced_short","520","","","","","","0","complex_dissimilar","images/stimuli/complex_02_A_b.gif","",""
"","html-keyboard-response","23","375656","0.0-11.0-0.6","SS1627326983998","","null","","","null","","","","","","","","","","","<p><img src= images/blank.png width =""600"" height = ""600"" style=""position:fixed;top:50%; left:50%; transform: translate(-50%, -50%); border:5px solid black"">","","","","",""
"","stimuli-presentation","24","381046","0.0-11.0-1.6","SS1627326983998","","4884.199999988079","trial","","40","500","5384.199999988079","images/stimuli/complex_08_A_b.gif","images/stimuli/complex_02_A_b.gif","forced_short","520","","","","","","0","complex_dissimilar","images/stimuli/complex_08_A_b.gif","",""
"","survey-multi-choice","25","390285","0.0-12.0","SS1627326983998","","9237","memory_test","","","","","","","","","{""Q0"":""Yes""}","[0]","images/stimuli/complex_08_A_b.gif","0","","","","","",""
"","survey-multi-choice","26","394724","0.0-13.0","SS1627326983998","","4436.099999964237","memory_test","","","","","","","","","{""Q0"":""No""}","[0]","images/stimuli/complex_09_A_a.gif","0","","","","","",""
"","html-keyboard-response","27","395666","0.0-14.0-0.0","SS1627326983998","","null","","","null","","","","","","","","","","","<p><img src= images/blank.png width =""600"" height = ""600"" style=""position:fixed;top:50%; left:50%; transform: translate(-50%, -50%); border:5px solid black"">","","","","",""
"","stimuli-presentation","28","399429","0.0-14.0-1.0","SS1627326983998","","2901.2000000476837","trial","","40","500","3401.2000000476837","images/stimuli/complex_11_A_b.gif","images/stimuli/complex_12_A_b.gif","forced_short","850","","","","","","1","complex_dissimilar","images/stimuli/complex_12_A_b.gif","",""
"","html-keyboard-response","29","400345","0.0-14.0-0.1","SS1627326983998","","null","","","null","","","","","","","","","","","<p><img src= images/blank.png width =""600"" height = ""600"" style=""position:fixed;top:50%; left:50%; transform: translate(-50%, -50%); border:5px solid black"">","","","","",""
"","stimuli-presentation","30","407592","0.0-14.0-1.1","SS1627326983998","","6736.199999988079","trial","","40","500","7236.199999988079","images/stimuli/complex_11_A_b.gif","images/stimuli/complex_12_A_b.gif","forced_short","850","","","","","","1","complex_dissimilar","images/stimuli/complex_12_A_b.gif","",""
"","html-keyboard-response","31","408424","0.0-14.0-0.2","SS1627326983998","","null","","","null","","","","","","","","","","","<p><img src= images/blank.png width =""600"" height = ""600"" style=""position:fixed;top:50%; left:50%; transform: translate(-50%, -50%); border:5px solid black"">","","","","",""
"","stimuli-presentation","32","411255","0.0-14.0-1.2","SS1627326983998","","2312.099999964237","trial","","40","500","2812.099999964237","images/stimuli/complex_11_A_b.gif","images/stimuli/complex_12_A_b.gif","forced_short","850","","","","","","1","complex_dissimilar","images/stimuli/complex_12_A_b.gif","",""
"","html-keyboard-response","33","412115","0.0-14.0-0.3","SS1627326983998","","null","","","null","","","","","","","","","","","<p><img src= images/blank.png width =""600"" height = ""600"" style=""position:fixed;top:50%; left:50%; transform: translate(-50%, -50%); border:5px solid black"">","","","","",""
"","stimuli-presentation","34","414867","0.0-14.0-1.3","SS1627326983998","","2232.199999988079","trial","","40","500","2732.199999988079","images/stimuli/complex_11_A_b.gif","images/stimuli/complex_12_A_b.gif","forced_short","850","","","","","","1","complex_dissimilar","images/stimuli/complex_12_A_b.gif","",""
"","html-keyboard-response","35","415703","0.0-14.0-0.4","SS1627326983998","","null","","","null","","","","","","","","","","","<p><img src= images/blank.png width =""600"" height = ""600"" style=""position:fixed;top:50%; left:50%; transform: translate(-50%, -50%); border:5px solid black"">","","","","",""
"","stimuli-presentation","36","419711","0.0-14.0-1.4","SS1627326983998","","3495.899999976158","trial","","40","500","3995.899999976158","images/stimuli/complex_11_A_b.gif","images/stimuli/complex_12_A_b.gif","forced_short","850","","","","","","1","complex_dissimilar","images/stimuli/complex_11_A_b.gif","",""
"","html-keyboard-response","37","420871","0.0-14.0-0.5","SS1627326983998","","null","","","null","","","","","","","","","","","<p><img src= images/blank.png width =""600"" height = ""600"" style=""position:fixed;top:50%; left:50%; transform: translate(-50%, -50%); border:5px solid black"">","","","","",""
"","stimuli-presentation","38","422258","0.0-14.0-1.5","SS1627326983998","","874.8999999761581","trial","","40","500","1374.8999999761581","images/stimuli/complex_11_A_b.gif","images/stimuli/complex_12_A_b.gif","forced_short","850","","","","","","1","complex_dissimilar","images/stimuli/complex_12_A_b.gif","",""
"","survey-multi-choice","39","425649","0.0-15.0","SS1627326983998","","3387.099999964237","memory_test","","","","","","","","","{""Q0"":""Yes""}","[0]","images/stimuli/complex_12_A_b.gif","1","","","","","",""
"","survey-multi-choice","40","428700","0.0-16.0","SS1627326983998","","3047.399999976158","memory_test","","","","","","","","","{""Q0"":""No""}","[0]","images/stimuli/complex_19_A_a.gif","1","","","","","",""
"","html-keyboard-response","41","429879","0.0-17.0-0.0","SS1627326983998","","null","","","null","","","","","","","","","","","<p><img src= images/blank.png width =""600"" height = ""600"" style=""position:fixed;top:50%; left:50%; transform: translate(-50%, -50%); border:5px solid black"">","","","","",""
"","stimuli-presentation","42","431726","0.0-17.0-1.0","SS1627326983998","","1079.8999999761581","trial","","40","500","1579.8999999761581","images/stimuli/complex_03_A_b.gif","images/stimuli/complex_14_A_a.gif","forced_short","750","","","","","","2","complex_dissimilar","images/stimuli/complex_14_A_a.gif","",""
"","html-keyboard-response","43","432925","0.0-17.0-0.1","SS1627326983998","","null","","","null","","","","","","","","","","","<p><img src= images/blank.png width =""600"" height = ""600"" style=""position:fixed;top:50%; left:50%; transform: translate(-50%, -50%); border:5px solid black"">","","","","",""
"","stimuli-presentation","44","436569","0.0-17.0-1.1","SS1627326983998","","3135.800000011921","trial","","40","500","3635.800000011921","images/stimuli/complex_03_A_b.gif","images/stimuli/complex_14_A_a.gif","forced_short","750","","","","","","2","complex_dissimilar","images/stimuli/complex_14_A_a.gif","",""
"","html-keyboard-response","45","437729","0.0-17.0-0.2","SS1627326983998","","null","","","null","","","","","","","","","","","<p><img src= images/blank.png width =""600"" height = ""600"" style=""position:fixed;top:50%; left:50%; transform: translate(-50%, -50%); border:5px solid black"">","","","","",""
"","stimuli-presentation","46","443537","0.0-17.0-1.2","SS1627326983998","","5299.800000011921","trial","","40","500","5799.800000011921","images/stimuli/complex_03_A_b.gif","images/stimuli/complex_14_A_a.gif","forced_short","750","","","","","","2","complex_dissimilar","images/stimuli/complex_03_A_b.gif","",""
"","html-keyboard-response","47","444382","0.0-17.0-0.3","SS1627326983998","","null","","","null","","","","","","","","","","","<p><img src= images/blank.png width =""600"" height = ""600"" style=""position:fixed;top:50%; left:50%; transform: translate(-50%, -50%); border:5px solid black"">","","","","",""
"","stimuli-presentation","48","446466","0.0-17.0-1.3","SS1627326983998","","1573.7000000476837","trial","","40","500","2073.7000000476837","images/stimuli/complex_03_A_b.gif","images/stimuli/complex_14_A_a.gif","forced_short","750","","","","","","2","complex_dissimilar","images/stimuli/complex_03_A_b.gif","",""
"","html-keyboard-response","49","447623","0.0-17.0-0.4","SS1627326983998","","null","","","null","","","","","","","","","","","<p><img src= images/blank.png width =""600"" height = ""600"" style=""position:fixed;top:50%; left:50%; transform: translate(-50%, -50%); border:5px solid black"">","","","","",""
"","stimuli-presentation","50","451362","0.0-17.0-1.4","SS1627326983998","","3229.5","trial","","40","500","3729.5","images/stimuli/complex_03_A_b.gif","images/stimuli/complex_14_A_a.gif","forced_short","750","","","","","","2","complex_dissimilar","images/stimuli/complex_14_A_a.gif","",""
"","html-keyboard-response","51","452567","0.0-17.0-0.5","SS1627326983998","","null","","","null","","","","","","","","","","","<p><img src= images/blank.png width =""600"" height = ""600"" style=""position:fixed;top:50%; left:50%; transform: translate(-50%, -50%); border:5px solid black"">","","","","",""
"","stimuli-presentation","52","453487","0.0-17.0-1.5","SS1627326983998","","409.19999998807907","trial","","40","500","909.1999999880791","images/stimuli/complex_03_A_b.gif","images/stimuli/complex_14_A_a.gif","forced_short","750","","","","","","2","complex_dissimilar","images/stimuli/complex_14_A_a.gif","",""
"","survey-multi-choice","53","460125","0.0-18.0","SS1627326983998","","6633.699999988079","memory_test","","","","","","","","","{""Q0"":""No""}","[0]","images/stimuli/complex_04_A_b.gif","2","","","","","",""
"","survey-multi-choice","54","462744","0.0-19.0","SS1627326983998","","2613.800000011921","memory_test","","","","","","","","","{""Q0"":""Yes""}","[0]","images/stimuli/complex_14_A_a.gif","2","","","","","",""
"","html-keyboard-response","55","463647","0.0-20.0-0.0","SS1627326983998","","null","","","null","","","","","","","","","","","<p><img src= images/blank.png width =""600"" height = ""600"" style=""position:fixed;top:50%; left:50%; transform: translate(-50%, -50%); border:5px solid black"">","","","","",""
"","stimuli-presentation","56","465583","0.0-20.0-1.0","SS1627326983998","","1125.5","trial","","40","500","1625.5","images/stimuli/complex_16_A_a.gif","images/stimuli/complex_21_A_a.gif","forced_short","800","","","","","","3","complex_dissimilar","images/stimuli/complex_21_A_a.gif","",""
"","html-keyboard-response","57","466744","0.0-20.0-0.1","SS1627326983998","","null","","","null","","","","","","","","","","","<p><img src= images/blank.png width =""600"" height = ""600"" style=""position:fixed;top:50%; left:50%; transform: translate(-50%, -50%); border:5px solid black"">","","","","",""
"","stimuli-presentation","58","470271","0.0-20.0-1.1","SS1627326983998","","3007.800000011921","trial","","40","500","3507.800000011921","images/stimuli/complex_16_A_a.gif","images/stimuli/complex_21_A_a.gif","forced_short","800","","","","","","3","complex_dissimilar","images/stimuli/complex_21_A_a.gif","",""
"","html-keyboard-response","59","471518","0.0-20.0-0.2","SS1627326983998","","null","","","null","","","","","","","","","","","<p><img src= images/blank.png width =""600"" height = ""600"" style=""position:fixed;top:50%; left:50%; transform: translate(-50%, -50%); border:5px solid black"">","","","","",""
"","stimuli-presentation","60","473370","0.0-20.0-1.2","SS1627326983998","","1347","trial","","40","500","1847","images/stimuli/complex_16_A_a.gif","images/stimuli/complex_21_A_a.gif","forced_short","800","","","","","","3","complex_dissimilar","images/stimuli/complex_21_A_a.gif","",""
"","html-keyboard-response","61","474382","0.0-20.0-0.3","SS1627326983998","","null","","","null","","","","","","","","","","","<p><img src= images/blank.png width =""600"" height = ""600"" style=""position:fixed;top:50%; left:50%; transform: translate(-50%, -50%); border:5px solid black"">","","","","",""
"","stimuli-presentation","62","475559","0.0-20.0-1.3","SS1627326983998","","669.2000000476837","trial","","40","500","1169.2000000476837","images/stimuli/complex_16_A_a.gif","images/stimuli/complex_21_A_a.gif","forced_short","800","","","","","","3","complex_dissimilar","images/stimuli/complex_21_A_a.gif","",""
"","html-keyboard-response","63","476431","0.0-20.0-0.4","SS1627326983998","","null","","","null","","","","","","","","","","","<p><img src= images/blank.png width =""600"" height = ""600"" style=""position:fixed;top:50%; left:50%; transform: translate(-50%, -50%); border:5px solid black"">","","","","",""
"","stimuli-presentation","64","480605","0.0-20.0-1.4","SS1627326983998","","3669.2999999523163","trial","","40","500","4169.299999952316","images/stimuli/complex_16_A_a.gif","images/stimuli/complex_21_A_a.gif","forced_short","800","","","","","","3","complex_dissimilar","images/stimuli/complex_16_A_a.gif","",""
"","html-keyboard-response","65","481661","0.0-20.0-0.5","SS1627326983998","","null","","","null","","","","","","","","","","","<p><img src= images/blank.png width =""600"" height = ""600"" style=""position:fixed;top:50%; left:50%; transform: translate(-50%, -50%); border:5px solid black"">","","","","",""
"","stimuli-presentation","66","482868","0.0-20.0-1.5","SS1627326983998","","696.5","trial","","40","500","1196.5","images/stimuli/complex_16_A_a.gif","images/stimuli/complex_21_A_a.gif","forced_short","800","","","","","","3","complex_dissimilar","images/stimuli/complex_21_A_a.gif","",""
"","html-keyboard-response","67","483965","0.0-20.0-0.6","SS1627326983998","","null","","","null","","","","","","","","","","","<p><img src= images/blank.png width =""600"" height = ""600"" style=""position:fixed;top:50%; left:50%; transform: translate(-50%, -50%); border:5px solid black"">","","","","",""
"","stimuli-presentation","68","485395","0.0-20.0-1.6","SS1627326983998","","916.3999999761581","trial","","40","500","1416.3999999761581","images/stimuli/complex_16_A_a.gif","images/stimuli/complex_21_A_a.gif","forced_short","800","","","","","","3","complex_dissimilar","images/stimuli/complex_21_A_a.gif","",""
"","html-keyboard-response","69","486675","0.0-20.0-0.7","SS1627326983998","","null","","","null","","","","","","","","","","","<p><img src= images/blank.png width =""600"" height = ""600"" style=""position:fixed;top:50%; left:50%; transform: translate(-50%, -50%); border:5px solid black"">","","","","",""
"","stimuli-presentation","70","487713","0.0-20.0-1.7","SS1627326983998","","524.6000000238419","trial","","40","500","1024.6000000238419","images/stimuli/complex_16_A_a.gif","images/stimuli/complex_21_A_a.gif","forced_short","800","","","","","","3","complex_dissimilar","images/stimuli/complex_21_A_a.gif","",""
"","survey-multi-choice","71","493684","0.0-21.0","SS1627326983998","","5965.800000011921","memory_test","","","","","","","","","{""Q0"":""Yes""}","[0]","images/stimuli/complex_21_A_a.gif","3","","","","","",""
"","survey-multi-choice","72","505591","0.0-22.0","SS1627326983998","","11902.100000023842","memory_test","","","","","","","","","{""Q0"":""No""}","[0]","images/stimuli/complex_10_A_b.gif","3","","","","","",""
"","html-keyboard-response","73","506808","0.0-23.0-0.0","SS1627326983998","","null","","","null","","","","","","","","","","","<p><img src= images/blank.png width =""600"" height = ""600"" style=""position:fixed;top:50%; left:50%; transform: translate(-50%, -50%); border:5px solid black"">","","","","",""
"","stimuli-presentation","74","508410","0.0-23.0-1.0","SS1627326983998","","1119.300000011921","trial","","40","500","1619.300000011921","images/stimuli/complex_23_A_a.gif","images/stimuli/complex_07_A_a.gif","forced_short","470","","","","","","4","complex_dissimilar","images/stimuli/complex_07_A_a.gif","",""
"","html-keyboard-response","75","509713","0.0-23.0-0.1","SS1627326983998","","null","","","null","","","","","","","","","","","<p><img src= images/blank.png width =""600"" height = ""600"" style=""position:fixed;top:50%; left:50%; transform: translate(-50%, -50%); border:5px solid black"">","","","","",""
"","stimuli-presentation","76","511891","0.0-23.0-1.1","SS1627326983998","","1667.300000011921","trial","","40","500","2167.300000011921","images/stimuli/complex_23_A_a.gif","images/stimuli/complex_07_A_a.gif","forced_short","470","","","","","","4","complex_dissimilar","images/stimuli/complex_07_A_a.gif","",""
"","html-keyboard-response","77","512854","0.0-23.0-0.2","SS1627326983998","","null","","","null","","","","","","","","","","","<p><img src= images/blank.png width =""600"" height = ""600"" style=""position:fixed;top:50%; left:50%; transform: translate(-50%, -50%); border:5px solid black"">","","","","",""
"","stimuli-presentation","78","514572","0.0-23.0-1.2","SS1627326983998","","1210.199999988079","trial","","40","500","1710.199999988079","images/stimuli/complex_23_A_a.gif","images/stimuli/complex_07_A_a.gif","forced_short","470","","","","","","4","complex_dissimilar","images/stimuli/complex_07_A_a.gif","",""
"","html-keyboard-response","79","515686","0.0-23.0-0.3","SS1627326983998","","null","","","null","","","","","","","","","","","<p><img src= images/blank.png width =""600"" height = ""600"" style=""position:fixed;top:50%; left:50%; transform: translate(-50%, -50%); border:5px solid black"">","","","","",""
"","stimuli-presentation","80","516606","0.0-23.0-1.3","SS1627326983998","","402.5999999642372","trial","","40","500","902.5999999642372","images/stimuli/complex_23_A_a.gif","images/stimuli/complex_07_A_a.gif","forced_short","470","","","","","","4","complex_dissimilar","images/stimuli/complex_07_A_a.gif","",""
"","html-keyboard-response","81","517914","0.0-23.0-0.4","SS1627326983998","","null","","","null","","","","","","","","","","","<p><img src= images/blank.png width =""600"" height = ""600"" style=""position:fixed;top:50%; left:50%; transform: translate(-50%, -50%); border:5px solid black"">","","","","",""
"","stimuli-presentation","82","521248","0.0-23.0-1.4","SS1627326983998","","2830.300000011921","trial","","40","500","3330.300000011921","images/stimuli/complex_23_A_a.gif","images/stimuli/complex_07_A_a.gif","forced_short","470","","","","","","4","complex_dissimilar","images/stimuli/complex_23_A_a.gif","",""
"","html-keyboard-response","83","522242","0.0-23.0-0.5","SS1627326983998","","null","","","null","","","","","","","","","","","<p><img src= images/blank.png width =""600"" height = ""600"" style=""position:fixed;top:50%; left:50%; transform: translate(-50%, -50%); border:5px solid black"">","","","","",""
"","stimuli-presentation","84","523324","0.0-23.0-1.5","SS1627326983998","","576.4000000357628","trial","","40","500","1076.4000000357628","images/stimuli/complex_23_A_a.gif","images/stimuli/complex_07_A_a.gif","forced_short","470","","","","","","4","complex_dissimilar","images/stimuli/complex_07_A_a.gif","",""
"","survey-multi-choice","85","527391","0.0-24.0","SS1627326983998","","4062.800000011921","memory_test","","","","","","","","","{""Q0"":""No""}","[0]","images/stimuli/complex_06_A_b.gif","4","","","","","",""
"","survey-multi-choice","86","529638","0.0-25.0","SS1627326983998","","2243.5","memory_test","","","","","","","","","{""Q0"":""Yes""}","[0]","images/stimuli/complex_23_A_a.gif","4","","","","","",""
"","html-keyboard-response","87","530785","0.0-26.0-0.0","SS1627326983998","","null","","","null","","","","","","","","","","","<p><img src= images/blank.png width =""600"" height = ""600"" style=""position:fixed;top:50%; left:50%; transform: translate(-50%, -50%); border:5px solid black"">","","","","",""
"","stimuli-presentation","88","532154","0.0-26.0-1.0","SS1627326983998","","980.8000000119209","trial","","40","500","1480.800000011921","images/stimuli/complex_22_A_b.gif","images/stimuli/complex_20_A_a.gif","forced_short","380","","","","","","5","complex_dissimilar","images/stimuli/complex_20_A_a.gif","",""
"","html-keyboard-response","89","533318","0.0-26.0-0.1","SS1627326983998","","null","","","null","","","","","","","","","","","<p><img src= images/blank.png width =""600"" height = ""600"" style=""position:fixed;top:50%; left:50%; transform: translate(-50%, -50%); border:5px solid black"">","","","","",""
"","stimuli-presentation","90","536963","0.0-26.0-1.1","SS1627326983998","","3134.100000023842","trial","","40","500","3634.100000023842","images/stimuli/complex_22_A_b.gif","images/stimuli/complex_20_A_a.gif","forced_short","380","","","","","","5","complex_dissimilar","images/stimuli/complex_20_A_a.gif","",""
"","html-keyboard-response","91","538188","0.0-26.0-0.2","SS1627326983998","","null","","","null","","","","","","","","","","","<p><img src= images/blank.png width =""600"" height = ""600"" style=""position:fixed;top:50%; left:50%; transform: translate(-50%, -50%); border:5px solid black"">","","","","",""
"","stimuli-presentation","92","539446","0.0-26.0-1.2","SS1627326983998","","739","trial","","40","500","1239","images/stimuli/complex_22_A_b.gif","images/stimuli/complex_20_A_a.gif","forced_short","380","","","","","","5","complex_dissimilar","images/stimuli/complex_20_A_a.gif","",""
"","html-keyboard-response","93","540344","0.0-26.0-0.3","SS1627326983998","","null","","","null","","","","","","","","","","","<p><img src= images/blank.png width =""600"" height = ""600"" style=""position:fixed;top:50%; left:50%; transform: translate(-50%, -50%); border:5px solid black"">","","","","",""
"","stimuli-presentation","94","541906","0.0-26.0-1.3","SS1627326983998","","1044.199999988079","trial","","40","500","1544.199999988079","images/stimuli/complex_22_A_b.gif","images/stimuli/complex_20_A_a.gif","forced_short","380","","","","","","5","complex_dissimilar","images/stimuli/complex_20_A_a.gif","",""
"","html-keyboard-response","95","543014","0.0-26.0-0.4","SS1627326983998","","null","","","null","","","","","","","","","","","<p><img src= images/blank.png width =""600"" height = ""600"" style=""position:fixed;top:50%; left:50%; transform: translate(-50%, -50%); border:5px solid black"">","","","","",""
"","stimuli-presentation","96","543625","0.0-26.0-1.4","SS1627326983998","","100","trial","","40","500","600","images/stimuli/complex_22_A_b.gif","images/stimuli/complex_20_A_a.gif","forced_short","380","","","","","","5","complex_dissimilar","images/stimuli/complex_20_A_a.gif","",""
"","html-keyboard-response","97","544633","0.0-26.0-0.5","SS1627326983998","","null","","","null","","","","","","","","","","","<p><img src= images/blank.png width =""600"" height = ""600"" style=""position:fixed;top:50%; left:50%; transform: translate(-50%, -50%); border:5px solid black"">","","","","",""
"","stimuli-presentation","98","546315","0.0-26.0-1.5","SS1627326983998","","1171.0999999642372","trial","","40","500","1671.0999999642372","images/stimuli/complex_22_A_b.gif","images/stimuli/complex_20_A_a.gif","forced_short","380","","","","","","5","complex_dissimilar","images/stimuli/complex_20_A_a.gif","",""
"","survey-multi-choice","99","549892","0.0-27.0","SS1627326983998","","3570.699999988079","memory_test","","","","","","","","","{""Q0"":""No""}","[0]","images/stimuli/complex_18_A_b.gif","5","","","","","",""
"","survey-multi-choice","100","552686","0.0-28.0","SS1627326983998","","2788.800000011921","memory_test","","","","","","","","","{""Q0"":""Yes""}","[0]","images/stimuli/complex_20_A_a.gif","5","","","","","",""
"","html-keyboard-response","101","553574","0.0-29.0-0.0","SS1627326983998","","null","","","null","","","","","","","","","","","<p><img src= images/blank.png width =""600"" height = ""600"" style=""position:fixed;top:50%; left:50%; transform: translate(-50%, -50%); border:5px solid black"">","","","","",""
"","stimuli-presentation","102","554595","0.0-29.0-1.0","SS1627326983998","","934.3000000119209","trial","","40","500","1434.300000011921","images/stimuli/complex_17_A_a.gif","images/stimuli/complex_15_A_a.gif","forced_short","80","","","","","","6","complex_dissimilar","images/stimuli/complex_15_A_a.gif","",""
"","html-keyboard-response","103","555655","0.0-29.0-0.1","SS1627326983998","","null","","","null","","","","","","","","","","","<p><img src= images/blank.png width =""600"" height = ""600"" style=""position:fixed;top:50%; left:50%; transform: translate(-50%, -50%); border:5px solid black"">","","","","",""
"","stimuli-presentation","104","562131","0.0-29.0-1.1","SS1627326983998","","5967.700000047684","trial","","40","500","6467.700000047684","images/stimuli/complex_17_A_a.gif","images/stimuli/complex_15_A_a.gif","forced_short","80","","","","","","6","complex_dissimilar","images/stimuli/complex_17_A_a.gif","",""
"","html-keyboard-response","105","563330","0.0-29.0-0.2","SS1627326983998","","null","","","null","","","","","","","","","","","<p><img src= images/blank.png width =""600"" height = ""600"" style=""position:fixed;top:50%; left:50%; transform: translate(-50%, -50%); border:5px solid black"">","","","","",""
"","stimuli-presentation","106","565929","0.0-29.0-1.2","SS1627326983998","","2092.099999964237","trial","","40","500","2592.099999964237","images/stimuli/complex_17_A_a.gif","images/stimuli/complex_15_A_a.gif","forced_short","80","","","","","","6","complex_dissimilar","images/stimuli/complex_17_A_a.gif","",""
"","html-keyboard-response","107","567190","0.0-29.0-0.3","SS1627326983998","","null","","","null","","","","","","","","","","","<p><img src= images/blank.png width =""600"" height = ""600"" style=""position:fixed;top:50%; left:50%; transform: translate(-50%, -50%); border:5px solid black"">","","","","",""
"","stimuli-presentation","108","570447","0.0-29.0-1.3","SS1627326983998","","2748.199999988079","trial","","40","500","3248.199999988079","images/stimuli/complex_17_A_a.gif","images/stimuli/complex_15_A_a.gif","forced_short","80","","","","","","6","complex_dissimilar","images/stimuli/complex_15_A_a.gif","",""
"","html-keyboard-response","109","571303","0.0-29.0-0.4","SS1627326983998","","null","","","null","","","","","","","","","","","<p><img src= images/blank.png width =""600"" height = ""600"" style=""position:fixed;top:50%; left:50%; transform: translate(-50%, -50%); border:5px solid black"">","","","","",""
"","stimuli-presentation","110","573088","0.0-29.0-1.4","SS1627326983998","","1294.0999999642372","trial","","40","500","1794.0999999642372","images/stimuli/complex_17_A_a.gif","images/stimuli/complex_15_A_a.gif","forced_short","80","","","","","","6","complex_dissimilar","images/stimuli/complex_15_A_a.gif","",""
"","html-keyboard-response","111","574238","0.0-29.0-0.5","SS1627326983998","","null","","","null","","","","","","","","","","","<p><img src= images/blank.png width =""600"" height = ""600"" style=""position:fixed;top:50%; left:50%; transform: translate(-50%, -50%); border:5px solid black"">","","","","",""
"","stimuli-presentation","112","575678","0.0-29.0-1.5","SS1627326983998","","925.3000000119209","trial","","40","500","1425.300000011921","images/stimuli/complex_17_A_a.gif","images/stimuli/complex_15_A_a.gif","forced_short","80","","","","","","6","complex_dissimilar","images/stimuli/complex_15_A_a.gif","",""
"","html-keyboard-response","113","576539","0.0-29.0-0.6","SS1627326983998","","null","","","null","","","","","","","","","","","<p><img src= images/blank.png width =""600"" height = ""600"" style=""position:fixed;top:50%; left:50%; transform: translate(-50%, -50%); border:5px solid black"">","","","","",""
"","stimuli-presentation","114","578423","0.0-29.0-1.6","SS1627326983998","","1373.5","trial","","40","500","1873.5","images/stimuli/complex_17_A_a.gif","images/stimuli/complex_15_A_a.gif","forced_short","80","","","","","","6","complex_dissimilar","images/stimuli/complex_15_A_a.gif","",""
"","html-keyboard-response","115","579687","0.0-29.0-0.7","SS1627326983998","","null","","","null","","","","","","","","","","","<p><img src= images/blank.png width =""600"" height = ""600"" style=""position:fixed;top:50%; left:50%; transform: translate(-50%, -50%); border:5px solid black"">","","","","",""
"","stimuli-presentation","116","581047","0.0-29.0-1.7","SS1627326983998","","843.9000000357628","trial","","40","500","1343.9000000357628","images/stimuli/complex_17_A_a.gif","images/stimuli/complex_15_A_a.gif","forced_short","80","","","","","","6","complex_dissimilar","images/stimuli/complex_15_A_a.gif","",""
"","survey-multi-choice","117","586848","0.0-30.0","SS1627326983998","","5796.699999988079","memory_test","","","","","","","","","{""Q0"":""No""}","[0]","images/stimuli/complex_13_A_b.gif","6","","","","","",""
"","survey-multi-choice","118","589335","0.0-31.0","SS1627326983998","","2481.199999988079","memory_test","","","","","","","","","{""Q0"":""Yes""}","[0]","images/stimuli/complex_15_A_a.gif","6","","","","","",""
"","html-keyboard-response","119","590296","0.0-32.0-0.0","SS1627326983998","","null","","","null","","","","","","","","","","","<p><img src= images/blank.png width =""600"" height = ""600"" style=""position:fixed;top:50%; left:50%; transform: translate(-50%, -50%); border:5px solid black"">","","","","",""
"","stimuli-presentation","120","593352","0.0-32.0-1.0","SS1627326983998","","2085.399999976158","trial","","40","500","2585.399999976158","images/stimuli/complex_01_A_a.gif","images/stimuli/complex_05_A_b.gif","forced_short","960","","","","","","7","complex_dissimilar","images/stimuli/complex_05_A_b.gif","",""
"","html-keyboard-response","121","594619","0.0-32.0-0.1","SS1627326983998","","null","","","null","","","","","","","","","","","<p><img src= images/blank.png width =""600"" height = ""600"" style=""position:fixed;top:50%; left:50%; transform: translate(-50%, -50%); border:5px solid black"">","","","","",""
"","stimuli-presentation","122","600608","0.0-32.0-1.1","SS1627326983998","","5482.699999988079","trial","","40","500","5982.699999988079","images/stimuli/complex_01_A_a.gif","images/stimuli/complex_05_A_b.gif","forced_short","960","","","","","","7","complex_dissimilar","images/stimuli/complex_05_A_b.gif","",""
"","html-keyboard-response","123","601702","0.0-32.0-0.2","SS1627326983998","","null","","","null","","","","","","","","","","","<p><img src= images/blank.png width =""600"" height = ""600"" style=""position:fixed;top:50%; left:50%; transform: translate(-50%, -50%); border:5px solid black"">","","","","",""
"","stimuli-presentation","124","605174","0.0-32.0-1.2","SS1627326983998","","2962.400000035763","trial","","40","500","3462.400000035763","images/stimuli/complex_01_A_a.gif","images/stimuli/complex_05_A_b.gif","forced_short","960","","","","","","7","complex_dissimilar","images/stimuli/complex_01_A_a.gif","",""
"","html-keyboard-response","125","606050","0.0-32.0-0.3","SS1627326983998","","null","","","null","","","","","","","","","","","<p><img src= images/blank.png width =""600"" height = ""600"" style=""position:fixed;top:50%; left:50%; transform: translate(-50%, -50%); border:5px solid black"">","","","","",""
"","stimuli-presentation","126","608565","0.0-32.0-1.3","SS1627326983998","","2000.2999999523163","trial","","40","500","2500.2999999523163","images/stimuli/complex_01_A_a.gif","images/stimuli/complex_05_A_b.gif","forced_short","960","","","","","","7","complex_dissimilar","images/stimuli/complex_05_A_b.gif","",""
"","html-keyboard-response","127","609778","0.0-32.0-0.4","SS1627326983998","","null","","","null","","","","","","","","","","","<p><img src= images/blank.png width =""600"" height = ""600"" style=""position:fixed;top:50%; left:50%; transform: translate(-50%, -50%); border:5px solid black"">","","","","",""
"","stimuli-presentation","128","610355","0.0-32.0-1.4","SS1627326983998","","68.5","trial","","40","500","568.5","images/stimuli/complex_01_A_a.gif","images/stimuli/complex_05_A_b.gif","forced_short","960","","","","","","7","complex_dissimilar","images/stimuli/complex_05_A_b.gif","",""
"","html-keyboard-response","129","611661","0.0-32.0-0.5","SS1627326983998","","null","","","null","","","","","","","","","","","<p><img src= images/blank.png width =""600"" height = ""600"" style=""position:fixed;top:50%; left:50%; transform: translate(-50%, -50%); border:5px solid black"">","","","","",""
"","stimuli-presentation","130","612418","0.0-32.0-1.5","SS1627326983998","","242.89999997615814","trial","","40","500","742.8999999761581","images/stimuli/complex_01_A_a.gif","images/stimuli/complex_05_A_b.gif","forced_short","960","","","","","","7","complex_dissimilar","images/stimuli/complex_05_A_b.gif","",""
"","html-keyboard-response","131","613475","0.0-32.0-0.6","SS1627326983998","","null","","","null","","","","","","","","","","","<p><img src= images/blank.png width =""600"" height = ""600"" style=""position:fixed;top:50%; left:50%; transform: translate(-50%, -50%); border:5px solid black"">","","","","",""
"","stimuli-presentation","132","615261","0.0-32.0-1.6","SS1627326983998","","1279.7000000476837","trial","","40","500","1779.7000000476837","images/stimuli/complex_01_A_a.gif","images/stimuli/complex_05_A_b.gif","forced_short","960","","","","","","7","complex_dissimilar","images/stimuli/complex_01_A_a.gif","",""
"","survey-multi-choice","133","619463","0.0-33.0","SS1627326983998","","4197.400000035763","memory_test","","","","","","","","","{""Q0"":""No""}","[0]","images/stimuli/complex_24_A_b.gif","7","","","","","",""
"","survey-multi-choice","134","622000","0.0-34.0","SS1627326983998","","2529.599999964237","memory_test","","","","","","","","","{""Q0"":""Yes""}","[0]","images/stimuli/complex_01_A_a.gif","7","","","","","",""
"","instructions","135","626069","0.0-35.0","SS1627326983998","[{""page_index"":0,""viewing_time"":4064.100000023842}]","4064.899999976158","instructions","","","","","","","","","","","","","","","","","",""
"","survey-likert","136","649319","0.0-36.0","SS1627326983998","","23227","similarity_question","","","","","","","","","{""Q0"":3}","[0]","","","","","","","images/stimuli/complex_12_A_b.gif","images/stimuli/complex_11_A_b.gif"
"","survey-likert","137","661705","0.0-37.0","SS1627326983998","","12380.300000011921","similarity_question","","","","","","","","","{""Q0"":2}","[0]","","","","","","","images/stimuli/complex_03_A_b.gif","images/stimuli/complex_14_A_a.gif"
"","survey-likert","138","671389","0.0-38.0","SS1627326983998","","9677.399999976158","similarity_question","","","","","","","","","{""Q0"":4}","[0]","","","","","","","images/stimuli/complex_16_A_a.gif","images/stimuli/complex_21_A_a.gif"
"","survey-likert","139","677238","0.0-39.0","SS1627326983998","","5843.5","similarity_question","","","","","","","","","{""Q0"":3}","[0]","","","","","","","images/stimuli/complex_22_A_b.gif","images/stimuli/complex_20_A_a.gif"
"","survey-likert","140","683157","0.0-40.0","SS1627326983998","","5909.600000023842","similarity_question","","","","","","","","","{""Q0"":4}","[0]","","","","","","","images/stimuli/complex_15_A_a.gif","images/stimuli/complex_17_A_a.gif"
"","survey-likert","141","689573","0.0-41.0","SS1627326983998","","6408.600000023842","similarity_question","","","","","","","","","{""Q0"":3}","[0]","","","","","","","images/stimuli/complex_23_A_a.gif","images/stimuli/complex_07_A_a.gif"
"","survey-likert","142","697330","0.0-42.0","SS1627326983998","","7757.600000023842","similarity_question","","","","","","","","","{""Q0"":4}","[0]","","","","","","","images/stimuli/complex_08_A_b.gif","images/stimuli/complex_02_A_b.gif"
"","survey-likert","143","704915","0.0-43.0","SS1627326983998","","7577.900000035763","similarity_question","","","","","","","","","{""Q0"":5}","[0]","","","","","","","images/stimuli/complex_01_A_a.gif","images/stimuli/complex_05_A_b.gif"
"","instructions","144","708592","0.0-44.0","SS1627326983998","[{""page_index"":0,""viewing_time"":3672.5}]","3673.5","instructions","","","","","","","","","","","","","","","","","",""
"","survey-likert","145","713368","0.0-45.0","SS1627326983998","","4770.800000011921","","","","","","","","","","{""Q0"":4}","[0]","","","images/stimuli/complex_05_A_b.gif","","","","",""
"","survey-likert","146","717785","0.0-46.0","SS1627326983998","","4411.599999964237","","","","","","","","","","{""Q0"":4}","[0]","","","images/stimuli/complex_15_A_a.gif","","","","",""
"","survey-likert","147","720766","0.0-47.0","SS1627326983998","","2975.2999999523163","","","","","","","","","","{""Q0"":5}","[0]","","","images/stimuli/complex_23_A_a.gif","","","","",""
"","survey-likert","148","724217","0.0-48.0","SS1627326983998","","3445.800000011921","","","","","","","","","","{""Q0"":4}","[0]","","","images/stimuli/complex_03_A_b.gif","","","","",""
"","survey-likert","149","727443","0.0-49.0","SS1627326983998","","3219.800000011921","","","","","","","","","","{""Q0"":5}","[0]","","","images/stimuli/complex_08_A_b.gif","","","","",""
"","survey-likert","150","730053","0.0-50.0","SS1627326983998","","2604.199999988079","","","","","","","","","","{""Q0"":5}","[0]","","","images/stimuli/complex_21_A_a.gif","","","","",""
"","survey-likert","151","735167","0.0-51.0","SS1627326983998","","5108.800000011921","","","","","","","","","","{""Q0"":4}","[0]","","","images/stimuli/complex_11_A_b.gif","","","","",""
"","survey-likert","152","738564","0.0-52.0","SS1627326983998","","3390.800000011921","","","","","","","","","","{""Q0"":4}","[0]","","","images/stimuli/complex_22_A_b.gif","","","","",""
"true","fullscreen","153","739582","0.0-53.0","SS1627326983998","","","","","","","","","","","","","","","","","","","","",""
"","instructions","154","742476","0.0-54.0","SS1627326983998","[{""page_index"":0,""viewing_time"":2889.699999988079}]","2890.2999999523163","instructions","","","","","","","","","","","","","","","","","",""
"","demog-age","155","748344","0.0-55.0","SS1627326983998","","5861.699999988079","","","","","","","","","","{""age"":""23""}","","","","","","","","",""
"","demog-ethnic-US","156","751759","0.0-56.0","SS1627326983998","","3400.099999964237","","","","","","","","","","{""ethnicity"":[""Hispanic or Latino""]}","[0]","","","","","","","",""
"","demog-gender-and-education","157","759502","0.0-57.0","SS1627326983998","","7728.400000035763","","","","","","","","","","{""gender"":""Non-binary"",""education"":""Associate Degree/Technical certification""}","[0,1]","","","","","","","",""
"","survey-text","158","772516","0.0-58.0","SS1627326983998","","13006.5","feedback","","","","","","","","","{""Q0"":""no issues""}","","","","","","","","",""
"","instructions","159","774393","0.0-59.0","SS1627326983998","[{""page_index"":0,""viewing_time"":1871.0999999642372}]","1871.800000011921","instructions","","","","","","","","","","","","","","","","","",""
