"view_history","rt","trial_type","trial_index","time_elapsed","internal_node_id","subject","stimulus_type","trial_stimulus","key_press","minimum_viewing_duration","trial_looking_time","block_deviant","block_background","exposure_type","forced_exposure_time","stimulus","block_number","block_type","stimulus_displayed","responses","question_order","math_correct_answer","stimulus_left","stimulus_right"
"[{""page_index"":0,""viewing_time"":2547.265000000152}]","2547.8750000002037","instructions","0","2550","0.0-0.0","SS1626382106439","","","","","","","","","","","","","","","","","",""
"[{""page_index"":0,""viewing_time"":1254.609999999957},{""page_index"":1,""viewing_time"":1365.4150000002119}]","2620.3650000006746","instructions","1","7173","0.0-1.0","SS1626382106439","instructions","","","","","","","","","","","","","","","","",""
"","1576.9399999999223","sequential-stimulus-presentation-old","2","9254","0.0-2.0","SS1626382106439","","","40","500","2076.9399999999223","null","null","self_paced","0","","","","","","","","",""
"","5941.139999999905","sequential-stimulus-presentation-old","3","15700","0.0-3.0","SS1626382106439","","","40","500","6441.139999999905","null","null","self_paced","0","","","","","","","","",""
"[{""page_index"":0,""viewing_time"":8570.579999999609}]","8571.084999999584","instructions","4","24276","0.0-4.0","SS1626382106439","instructions","","","","","","","","","","","","","","","","",""
"","2778.2250000000204","sequential-stimulus-presentation-old","5","27558","0.0-5.0","SS1626382106439","","","40","500","3278.2250000000204","null","null","forced_short","500","","","","","","","","",""
"","349.025000000438","sequential-stimulus-presentation-old","6","28411","0.0-6.0","SS1626382106439","","","40","500","849.025000000438","null","null","forced_short","500","","","","","","","","",""
"[{""page_index"":0,""viewing_time"":4010.8600000003207}]","4011.2000000008265","instructions","7","32424","0.0-7.0","SS1626382106439","instructions","","","","","","","","","","","","","","","","",""
"[{""page_index"":0,""viewing_time"":4060.2549999994153},{""page_index"":1,""viewing_time"":4172.595000000001},{""page_index"":2,""viewing_time"":2307.1450000006735},{""page_index"":3,""viewing_time"":1025.3050000001167},{""page_index"":4,""viewing_time"":1017.8949999999531}]","12583.644999999706","instructions","8","45010","0.0-8.0","SS1626382106439","instructions","","","","","","","","","","","","","","","","",""
"","null","html-keyboard-response","9","46315","0.0-9.0-0.0","SS1626382106439","","","null","","","","","","","<p><img src= images/blank.png width =""600"" height = ""600"" style=""position:fixed;top:50%; left:50%; transform: translate(-50%, -50%); border:5px solid black"">","","","","","","","",""
"","180.05499999980384","sequential-stimulus-presentation-old","10","46865","0.0-9.0-1.0","SS1626382106439","trial","","40","500","680.0549999998038","images/stimuli/spore_stims/complex_08_A_a.gif","images/stimuli/spore_stims/complex_23_A_b.gif","forced_short","360","","0","complex_dissimilar","images/stimuli/spore_stims/complex_23_A_b.gif","","","","",""
"","null","html-keyboard-response","11","47855","0.0-9.0-0.1","SS1626382106439","","","null","","","","","","","<p><img src= images/blank.png width =""600"" height = ""600"" style=""position:fixed;top:50%; left:50%; transform: translate(-50%, -50%); border:5px solid black"">","","","","","","","",""
"","6278.850000000617","sequential-stimulus-presentation-old","12","54641","0.0-9.0-1.1","SS1626382106439","trial","","40","500","6778.850000000617","images/stimuli/spore_stims/complex_08_A_a.gif","images/stimuli/spore_stims/complex_23_A_b.gif","forced_short","360","","0","complex_dissimilar","images/stimuli/spore_stims/complex_23_A_b.gif","","","","",""
"","null","html-keyboard-response","13","55759","0.0-9.0-0.2","SS1626382106439","","","null","","","","","","","<p><img src= images/blank.png width =""600"" height = ""600"" style=""position:fixed;top:50%; left:50%; transform: translate(-50%, -50%); border:5px solid black"">","","","","","","","",""
"","2846.6650000000373","sequential-stimulus-presentation-old","14","59112","0.0-9.0-1.2","SS1626382106439","trial","","40","500","3346.6650000000373","images/stimuli/spore_stims/complex_08_A_a.gif","images/stimuli/spore_stims/complex_23_A_b.gif","forced_short","360","","0","complex_dissimilar","images/stimuli/spore_stims/complex_23_A_b.gif","","","","",""
"","null","html-keyboard-response","15","60312","0.0-9.0-0.3","SS1626382106439","","","null","","","","","","","<p><img src= images/blank.png width =""600"" height = ""600"" style=""position:fixed;top:50%; left:50%; transform: translate(-50%, -50%); border:5px solid black"">","","","","","","","",""
"","2814.9350000003324","sequential-stimulus-presentation-old","16","63633","0.0-9.0-1.3","SS1626382106439","trial","","40","500","3314.9350000003324","images/stimuli/spore_stims/complex_08_A_a.gif","images/stimuli/spore_stims/complex_23_A_b.gif","forced_short","360","","0","complex_dissimilar","images/stimuli/spore_stims/complex_23_A_b.gif","","","","",""
"","3951.489999999467","survey-multi-choice","17","67591","0.0-10.0","SS1626382106439","math_question","","","","","","","","","","","","","{""Q0"":""11""}","[0]","11","",""
"","null","html-keyboard-response","18","68469","0.0-11.0-0.0","SS1626382106439","","","null","","","","","","","<p><img src= images/blank.png width =""600"" height = ""600"" style=""position:fixed;top:50%; left:50%; transform: translate(-50%, -50%); border:5px solid black"">","","","","","","","",""
"","532.940000000046","sequential-stimulus-presentation-old","19","69472","0.0-11.0-1.0","SS1626382106439","trial","","40","500","1032.940000000046","images/stimuli/spore_stims/complex_01_A_b.gif","images/stimuli/spore_stims/complex_07_A_b.gif","forced_short","460","","1","complex_dissimilar","images/stimuli/spore_stims/complex_07_A_b.gif","","","","",""
"","null","html-keyboard-response","20","70611","0.0-11.0-0.1","SS1626382106439","","","null","","","","","","","<p><img src= images/blank.png width =""600"" height = ""600"" style=""position:fixed;top:50%; left:50%; transform: translate(-50%, -50%); border:5px solid black"">","","","","","","","",""
"","3999.079999999609","sequential-stimulus-presentation-old","21","75116","0.0-11.0-1.1","SS1626382106439","trial","","40","500","4499.079999999609","images/stimuli/spore_stims/complex_01_A_b.gif","images/stimuli/spore_stims/complex_07_A_b.gif","forced_short","460","","1","complex_dissimilar","images/stimuli/spore_stims/complex_07_A_b.gif","","","","",""
"","null","html-keyboard-response","22","76285","0.0-11.0-0.2","SS1626382106439","","","null","","","","","","","<p><img src= images/blank.png width =""600"" height = ""600"" style=""position:fixed;top:50%; left:50%; transform: translate(-50%, -50%); border:5px solid black"">","","","","","","","",""
"","4236.464999999953","sequential-stimulus-presentation-old","23","81031","0.0-11.0-1.2","SS1626382106439","trial","","40","500","4736.464999999953","images/stimuli/spore_stims/complex_01_A_b.gif","images/stimuli/spore_stims/complex_07_A_b.gif","forced_short","460","","1","complex_dissimilar","images/stimuli/spore_stims/complex_07_A_b.gif","","","","",""
"","null","html-keyboard-response","24","82254","0.0-11.0-0.3","SS1626382106439","","","null","","","","","","","<p><img src= images/blank.png width =""600"" height = ""600"" style=""position:fixed;top:50%; left:50%; transform: translate(-50%, -50%); border:5px solid black"">","","","","","","","",""
"","7979.640000000465","sequential-stimulus-presentation-old","25","90741","0.0-11.0-1.3","SS1626382106439","trial","","40","500","8479.640000000465","images/stimuli/spore_stims/complex_01_A_b.gif","images/stimuli/spore_stims/complex_07_A_b.gif","forced_short","460","","1","complex_dissimilar","images/stimuli/spore_stims/complex_01_A_b.gif","","","","",""
"","null","html-keyboard-response","26","91554","0.0-11.0-0.4","SS1626382106439","","","null","","","","","","","<p><img src= images/blank.png width =""600"" height = ""600"" style=""position:fixed;top:50%; left:50%; transform: translate(-50%, -50%); border:5px solid black"">","","","","","","","",""
"","3749.5250000001834","sequential-stimulus-presentation-old","27","95807","0.0-11.0-1.4","SS1626382106439","trial","","40","500","4249.525000000183","images/stimuli/spore_stims/complex_01_A_b.gif","images/stimuli/spore_stims/complex_07_A_b.gif","forced_short","460","","1","complex_dissimilar","images/stimuli/spore_stims/complex_01_A_b.gif","","","","",""
"","null","html-keyboard-response","28","96753","0.0-11.0-0.5","SS1626382106439","","","null","","","","","","","<p><img src= images/blank.png width =""600"" height = ""600"" style=""position:fixed;top:50%; left:50%; transform: translate(-50%, -50%); border:5px solid black"">","","","","","","","",""
"","933.7150000001129","sequential-stimulus-presentation-old","29","98196","0.0-11.0-1.5","SS1626382106439","trial","","40","500","1433.715000000113","images/stimuli/spore_stims/complex_01_A_b.gif","images/stimuli/spore_stims/complex_07_A_b.gif","forced_short","460","","1","complex_dissimilar","images/stimuli/spore_stims/complex_07_A_b.gif","","","","",""
"","4338.459999999934","survey-multi-choice","30","102537","0.0-12.0","SS1626382106439","math_question","","","","","","","","","","","","","{""Q0"":""11""}","[0]","11","",""
"","null","html-keyboard-response","31","103553","0.0-13.0-0.0","SS1626382106439","","","null","","","","","","","<p><img src= images/blank.png width =""600"" height = ""600"" style=""position:fixed;top:50%; left:50%; transform: translate(-50%, -50%); border:5px solid black"">","","","","","","","",""
"","786.1750000001775","sequential-stimulus-presentation-old","32","104685","0.0-13.0-1.0","SS1626382106439","trial","","40","500","1286.1750000001775","images/stimuli/spore_stims/complex_02_A_a.gif","images/stimuli/spore_stims/complex_19_A_b.gif","forced_short","340","","2","complex_dissimilar","images/stimuli/spore_stims/complex_19_A_b.gif","","","","",""
"","null","html-keyboard-response","33","105745","0.0-13.0-0.1","SS1626382106439","","","null","","","","","","","<p><img src= images/blank.png width =""600"" height = ""600"" style=""position:fixed;top:50%; left:50%; transform: translate(-50%, -50%); border:5px solid black"">","","","","","","","",""
"","3254.965000000084","sequential-stimulus-presentation-old","34","109509","0.0-13.0-1.1","SS1626382106439","trial","","40","500","3754.965000000084","images/stimuli/spore_stims/complex_02_A_a.gif","images/stimuli/spore_stims/complex_19_A_b.gif","forced_short","340","","2","complex_dissimilar","images/stimuli/spore_stims/complex_19_A_b.gif","","","","",""
"","null","html-keyboard-response","35","110595","0.0-13.0-0.2","SS1626382106439","","","null","","","","","","","<p><img src= images/blank.png width =""600"" height = ""600"" style=""position:fixed;top:50%; left:50%; transform: translate(-50%, -50%); border:5px solid black"">","","","","","","","",""
"","3348.2350000003935","sequential-stimulus-presentation-old","36","114452","0.0-13.0-1.2","SS1626382106439","trial","","40","500","3848.2350000003935","images/stimuli/spore_stims/complex_02_A_a.gif","images/stimuli/spore_stims/complex_19_A_b.gif","forced_short","340","","2","complex_dissimilar","images/stimuli/spore_stims/complex_19_A_b.gif","","","","",""
"","null","html-keyboard-response","37","115416","0.0-13.0-0.3","SS1626382106439","","","null","","","","","","","<p><img src= images/blank.png width =""600"" height = ""600"" style=""position:fixed;top:50%; left:50%; transform: translate(-50%, -50%); border:5px solid black"">","","","","","","","",""
"","1400.9599999999336","sequential-stimulus-presentation-old","38","117327","0.0-13.0-1.3","SS1626382106439","trial","","40","500","1900.9599999999336","images/stimuli/spore_stims/complex_02_A_a.gif","images/stimuli/spore_stims/complex_19_A_b.gif","forced_short","340","","2","complex_dissimilar","images/stimuli/spore_stims/complex_19_A_b.gif","","","","",""
"","null","html-keyboard-response","39","118266","0.0-13.0-0.4","SS1626382106439","","","null","","","","","","","<p><img src= images/blank.png width =""600"" height = ""600"" style=""position:fixed;top:50%; left:50%; transform: translate(-50%, -50%); border:5px solid black"">","","","","","","","",""
"","619.4299999997311","sequential-stimulus-presentation-old","40","119394","0.0-13.0-1.4","SS1626382106439","trial","","40","500","1119.429999999731","images/stimuli/spore_stims/complex_02_A_a.gif","images/stimuli/spore_stims/complex_19_A_b.gif","forced_short","340","","2","complex_dissimilar","images/stimuli/spore_stims/complex_19_A_b.gif","","","","",""
"","null","html-keyboard-response","41","120342","0.0-13.0-0.5","SS1626382106439","","","null","","","","","","","<p><img src= images/blank.png width =""600"" height = ""600"" style=""position:fixed;top:50%; left:50%; transform: translate(-50%, -50%); border:5px solid black"">","","","","","","","",""
"","963.5450000005367","sequential-stimulus-presentation-old","42","121812","0.0-13.0-1.5","SS1626382106439","trial","","40","500","1463.5450000005367","images/stimuli/spore_stims/complex_02_A_a.gif","images/stimuli/spore_stims/complex_19_A_b.gif","forced_short","340","","2","complex_dissimilar","images/stimuli/spore_stims/complex_19_A_b.gif","","","","",""
"","2727.194999999483","survey-multi-choice","43","124542","0.0-14.0","SS1626382106439","math_question","","","","","","","","","","","","","{""Q0"":""10""}","[0]","10","",""
"","null","html-keyboard-response","44","125781","0.0-15.0-0.0","SS1626382106439","","","null","","","","","","","<p><img src= images/blank.png width =""600"" height = ""600"" style=""position:fixed;top:50%; left:50%; transform: translate(-50%, -50%); border:5px solid black"">","","","","","","","",""
"","1051.5900000000256","sequential-stimulus-presentation-old","45","126950","0.0-15.0-1.0","SS1626382106439","trial","","40","500","1551.5900000000256","images/stimuli/spore_stims/complex_21_A_a.gif","images/stimuli/spore_stims/complex_04_A_b.gif","forced_short","110","","3","complex_dissimilar","images/stimuli/spore_stims/complex_04_A_b.gif","","","","",""
"","null","html-keyboard-response","46","127834","0.0-15.0-0.1","SS1626382106439","","","null","","","","","","","<p><img src= images/blank.png width =""600"" height = ""600"" style=""position:fixed;top:50%; left:50%; transform: translate(-50%, -50%); border:5px solid black"">","","","","","","","",""
"","6537.73499999987","sequential-stimulus-presentation-old","47","134877","0.0-15.0-1.1","SS1626382106439","trial","","40","500","7037.73499999987","images/stimuli/spore_stims/complex_21_A_a.gif","images/stimuli/spore_stims/complex_04_A_b.gif","forced_short","110","","3","complex_dissimilar","images/stimuli/spore_stims/complex_21_A_a.gif","","","","",""
"","null","html-keyboard-response","48","135991","0.0-15.0-0.2","SS1626382106439","","","null","","","","","","","<p><img src= images/blank.png width =""600"" height = ""600"" style=""position:fixed;top:50%; left:50%; transform: translate(-50%, -50%); border:5px solid black"">","","","","","","","",""
"","3043.8449999992154","sequential-stimulus-presentation-old","49","139543","0.0-15.0-1.2","SS1626382106439","trial","","40","500","3543.8449999992154","images/stimuli/spore_stims/complex_21_A_a.gif","images/stimuli/spore_stims/complex_04_A_b.gif","forced_short","110","","3","complex_dissimilar","images/stimuli/spore_stims/complex_04_A_b.gif","","","","",""
"","null","html-keyboard-response","50","140486","0.0-15.0-0.3","SS1626382106439","","","null","","","","","","","<p><img src= images/blank.png width =""600"" height = ""600"" style=""position:fixed;top:50%; left:50%; transform: translate(-50%, -50%); border:5px solid black"">","","","","","","","",""
"","1469.8650000000198","sequential-stimulus-presentation-old","51","142465","0.0-15.0-1.3","SS1626382106439","trial","","40","500","1969.8650000000198","images/stimuli/spore_stims/complex_21_A_a.gif","images/stimuli/spore_stims/complex_04_A_b.gif","forced_short","110","","3","complex_dissimilar","images/stimuli/spore_stims/complex_04_A_b.gif","","","","",""
"","null","html-keyboard-response","52","143390","0.0-15.0-0.4","SS1626382106439","","","null","","","","","","","<p><img src= images/blank.png width =""600"" height = ""600"" style=""position:fixed;top:50%; left:50%; transform: translate(-50%, -50%); border:5px solid black"">","","","","","","","",""
"","2745.16500000027","sequential-stimulus-presentation-old","53","146645","0.0-15.0-1.4","SS1626382106439","trial","","40","500","3245.16500000027","images/stimuli/spore_stims/complex_21_A_a.gif","images/stimuli/spore_stims/complex_04_A_b.gif","forced_short","110","","3","complex_dissimilar","images/stimuli/spore_stims/complex_21_A_a.gif","","","","",""
"","2603.7299999998068","survey-multi-choice","54","149252","0.0-16.0","SS1626382106439","math_question","","","","","","","","","","","","","{""Q0"":""7""}","[0]","7","",""
"","null","html-keyboard-response","55","150064","0.0-17.0-0.0","SS1626382106439","","","null","","","","","","","<p><img src= images/blank.png width =""600"" height = ""600"" style=""position:fixed;top:50%; left:50%; transform: translate(-50%, -50%); border:5px solid black"">","","","","","","","",""
"","922.9350000005215","sequential-stimulus-presentation-old","56","151085","0.0-17.0-1.0","SS1626382106439","trial","","40","500","1422.9350000005215","images/stimuli/spore_stims/complex_01_A_a.gif","images/stimuli/spore_stims/complex_24_A_a.gif","forced_short","90","","4","complex_dissimilar","images/stimuli/spore_stims/complex_24_A_a.gif","","","","",""
"","null","html-keyboard-response","57","152328","0.0-17.0-0.1","SS1626382106439","","","null","","","","","","","<p><img src= images/blank.png width =""600"" height = ""600"" style=""position:fixed;top:50%; left:50%; transform: translate(-50%, -50%); border:5px solid black"">","","","","","","","",""
"","3390.0450000001","sequential-stimulus-presentation-old","58","156227","0.0-17.0-1.1","SS1626382106439","trial","","40","500","3890.0450000001","images/stimuli/spore_stims/complex_01_A_a.gif","images/stimuli/spore_stims/complex_24_A_a.gif","forced_short","90","","4","complex_dissimilar","images/stimuli/spore_stims/complex_24_A_a.gif","","","","",""
"","null","html-keyboard-response","59","157318","0.0-17.0-0.2","SS1626382106439","","","null","","","","","","","<p><img src= images/blank.png width =""600"" height = ""600"" style=""position:fixed;top:50%; left:50%; transform: translate(-50%, -50%); border:5px solid black"">","","","","","","","",""
"","1794.4150000002992","sequential-stimulus-presentation-old","60","159623","0.0-17.0-1.2","SS1626382106439","trial","","40","500","2294.415000000299","images/stimuli/spore_stims/complex_01_A_a.gif","images/stimuli/spore_stims/complex_24_A_a.gif","forced_short","90","","4","complex_dissimilar","images/stimuli/spore_stims/complex_24_A_a.gif","","","","",""
"","null","html-keyboard-response","61","160750","0.0-17.0-0.3","SS1626382106439","","","null","","","","","","","<p><img src= images/blank.png width =""600"" height = ""600"" style=""position:fixed;top:50%; left:50%; transform: translate(-50%, -50%); border:5px solid black"">","","","","","","","",""
"","3597.9450000004435","sequential-stimulus-presentation-old","62","164855","0.0-17.0-1.3","SS1626382106439","trial","","40","500","4097.9450000004435","images/stimuli/spore_stims/complex_01_A_a.gif","images/stimuli/spore_stims/complex_24_A_a.gif","forced_short","90","","4","complex_dissimilar","images/stimuli/spore_stims/complex_24_A_a.gif","","","","",""
"","null","html-keyboard-response","63","165992","0.0-17.0-0.4","SS1626382106439","","","null","","","","","","","<p><img src= images/blank.png width =""600"" height = ""600"" style=""position:fixed;top:50%; left:50%; transform: translate(-50%, -50%); border:5px solid black"">","","","","","","","",""
"","514.0250000004016","sequential-stimulus-presentation-old","64","167017","0.0-17.0-1.4","SS1626382106439","trial","","40","500","1014.0250000004016","images/stimuli/spore_stims/complex_01_A_a.gif","images/stimuli/spore_stims/complex_24_A_a.gif","forced_short","90","","4","complex_dissimilar","images/stimuli/spore_stims/complex_24_A_a.gif","","","","",""
"","null","html-keyboard-response","65","168143","0.0-17.0-0.5","SS1626382106439","","","null","","","","","","","<p><img src= images/blank.png width =""600"" height = ""600"" style=""position:fixed;top:50%; left:50%; transform: translate(-50%, -50%); border:5px solid black"">","","","","","","","",""
"","649.0149999999558","sequential-stimulus-presentation-old","66","169302","0.0-17.0-1.5","SS1626382106439","trial","","40","500","1149.0149999999558","images/stimuli/spore_stims/complex_01_A_a.gif","images/stimuli/spore_stims/complex_24_A_a.gif","forced_short","90","","4","complex_dissimilar","images/stimuli/spore_stims/complex_24_A_a.gif","","","","",""
"","2724.2000000005646","survey-multi-choice","67","172030","0.0-18.0","SS1626382106439","math_question","","","","","","","","","","","","","{""Q0"":""7""}","[0]","7","",""
"","null","html-keyboard-response","68","173334","0.0-19.0-0.0","SS1626382106439","","","null","","","","","","","<p><img src= images/blank.png width =""600"" height = ""600"" style=""position:fixed;top:50%; left:50%; transform: translate(-50%, -50%); border:5px solid black"">","","","","","","","",""
"","2417.764999999228","sequential-stimulus-presentation-old","69","176683","0.0-19.0-1.0","SS1626382106439","trial","","40","500","2917.764999999228","images/stimuli/spore_stims/complex_08_A_b.gif","images/stimuli/spore_stims/complex_09_A_b.gif","forced_short","920","","5","complex_dissimilar","images/stimuli/spore_stims/complex_09_A_b.gif","","","","",""
"","null","html-keyboard-response","70","177604","0.0-19.0-0.1","SS1626382106439","","","null","","","","","","","<p><img src= images/blank.png width =""600"" height = ""600"" style=""position:fixed;top:50%; left:50%; transform: translate(-50%, -50%); border:5px solid black"">","","","","","","","",""
"","3068.9599999996135","sequential-stimulus-presentation-old","71","181184","0.0-19.0-1.1","SS1626382106439","trial","","40","500","3568.9599999996135","images/stimuli/spore_stims/complex_08_A_b.gif","images/stimuli/spore_stims/complex_09_A_b.gif","forced_short","920","","5","complex_dissimilar","images/stimuli/spore_stims/complex_09_A_b.gif","","","","",""
"","null","html-keyboard-response","72","182322","0.0-19.0-0.2","SS1626382106439","","","null","","","","","","","<p><img src= images/blank.png width =""600"" height = ""600"" style=""position:fixed;top:50%; left:50%; transform: translate(-50%, -50%); border:5px solid black"">","","","","","","","",""
"","1509.1400000001013","sequential-stimulus-presentation-old","73","184337","0.0-19.0-1.2","SS1626382106439","trial","","40","500","2009.1400000001013","images/stimuli/spore_stims/complex_08_A_b.gif","images/stimuli/spore_stims/complex_09_A_b.gif","forced_short","920","","5","complex_dissimilar","images/stimuli/spore_stims/complex_09_A_b.gif","","","","",""
"","null","html-keyboard-response","74","185597","0.0-19.0-0.3","SS1626382106439","","","null","","","","","","","<p><img src= images/blank.png width =""600"" height = ""600"" style=""position:fixed;top:50%; left:50%; transform: translate(-50%, -50%); border:5px solid black"">","","","","","","","",""
"","840.464999999298","sequential-stimulus-presentation-old","75","186947","0.0-19.0-1.3","SS1626382106439","trial","","40","500","1340.464999999298","images/stimuli/spore_stims/complex_08_A_b.gif","images/stimuli/spore_stims/complex_09_A_b.gif","forced_short","920","","5","complex_dissimilar","images/stimuli/spore_stims/complex_09_A_b.gif","","","","",""
"[{""page_index"":0,""viewing_time"":5043.670000000013}]","5044.1149999996705","instructions","76","191994","0.0-20.0","SS1626382106439","instructions","","","","","","","","","","","","","","","","",""
"","11775.464999999705","survey-likert","77","203777","0.0-21.0","SS1626382106439","similarity_question","","","","","","","","","","","","","{""Q0"":1}","[0]","","images/stimuli/spore_stims/complex_08_A_b.gif","images/stimuli/spore_stims/complex_09_A_b.gif"
"","4767.269999999378","survey-likert","78","208552","0.0-22.0","SS1626382106439","similarity_question","","","","","","","","","","","","","{""Q0"":1}","[0]","","images/stimuli/spore_stims/complex_04_A_b.gif","images/stimuli/spore_stims/complex_21_A_a.gif"
"","6794.605000000069","survey-likert","79","215353","0.0-23.0","SS1626382106439","similarity_question","","","","","","","","","","","","","{""Q0"":2}","[0]","","images/stimuli/spore_stims/complex_19_A_b.gif","images/stimuli/spore_stims/complex_02_A_a.gif"
"","5195.924999999988","survey-likert","80","220555","0.0-24.0","SS1626382106439","similarity_question","","","","","","","","","","","","","{""Q0"":2}","[0]","","images/stimuli/spore_stims/complex_24_A_a.gif","images/stimuli/spore_stims/complex_01_A_a.gif"
"","4745.585000000545","survey-likert","81","225308","0.0-25.0","SS1626382106439","similarity_question","","","","","","","","","","","","","{""Q0"":1}","[0]","","images/stimuli/spore_stims/complex_23_A_b.gif","images/stimuli/spore_stims/complex_08_A_a.gif"
"","6660.905000000639","survey-likert","82","231974","0.0-26.0","SS1626382106439","similarity_question","","","","","","","","","","","","","{""Q0"":1}","[0]","","images/stimuli/spore_stims/complex_01_A_b.gif","images/stimuli/spore_stims/complex_07_A_b.gif"
"[{""page_index"":0,""viewing_time"":3820.9550000001327}]","3821.3550000000396","instructions","83","235799","0.0-27.0","SS1626382106439","instructions","","","","","","","","","","","","","","","","",""
"","5799.789999999135","survey-likert","84","241605","0.0-28.0","SS1626382106439","","","","","","","","","","images/stimuli/spore_stims/complex_02_A_a.gif","","","","{""Q0"":2}","[0]","","",""
"","3305.5450000001874","survey-likert","85","244917","0.0-29.0","SS1626382106439","","","","","","","","","","images/stimuli/spore_stims/complex_04_A_b.gif","","","","{""Q0"":4}","[0]","","",""
"","3618.2049999997835","survey-likert","86","248542","0.0-30.0","SS1626382106439","","","","","","","","","","images/stimuli/spore_stims/complex_01_A_a.gif","","","","{""Q0"":2}","[0]","","",""
"","2466.375","survey-likert","87","251014","0.0-31.0","SS1626382106439","","","","","","","","","","images/stimuli/spore_stims/complex_07_A_b.gif","","","","{""Q0"":4}","[0]","","",""
"","5409.000000000582","survey-likert","88","256429","0.0-32.0","SS1626382106439","","","","","","","","","","images/stimuli/spore_stims/complex_09_A_b.gif","","","","{""Q0"":2}","[0]","","",""
"","2977.8750000004657","survey-likert","89","259412","0.0-33.0","SS1626382106439","","","","","","","","","","images/stimuli/spore_stims/complex_08_A_a.gif","","","","{""Q0"":4}","[0]","","",""
"[{""page_index"":0,""viewing_time"":1622.000000000291}]","1622.4400000000605","instructions","90","261038","0.0-34.0","SS1626382106439","instructions","","","","","","","","","","","","","","","","",""
"","2287.029999999504","demog-age","91","263334","0.0-35.0","SS1626382106439","","","","","","","","","","","","","","{""age"":""26""}","","","",""
"","2933.654999999795","demog-ethnic-US","92","266280","0.0-36.0","SS1626382106439","","","","","","","","","","","","","","{""ethnicity"":[""White""]}","[0]","","",""
"","13840.514999999898","demog-gender-and-education","93","280127","0.0-37.0","SS1626382106439","","","","","","","","","","","","","","{""gender"":""Female"",""education"":""High school diploma""}","[0,1]","","",""
"","10816.295000000508","survey-text","94","290953","0.0-38.0","SS1626382106439","feedback","","","","","","","","","","","","","{""Q0"":""No it was not laggy""}","","","",""
"[{""page_index"":0,""viewing_time"":1829.7099999999627}]","1830.1549999996205","instructions","95","292786","0.0-39.0","SS1626382106439","instructions","","","","","","","","","","","","","","","","",""
