"view_history","rt","trial_type","trial_index","time_elapsed","internal_node_id","subject","stimulus_type","trial_stimulus","key_press","minimum_viewing_duration","trial_looking_time","block_deviant","block_background","exposure_type","forced_exposure_time","stimulus","block_number","block_type","stimulus_displayed","responses","question_order","math_correct_answer","stimulus_left","stimulus_right"
"[{""page_index"":0,""viewing_time"":80715.40000000596}]","80716.59999999404","instructions","0","80725","0.0-0.0","SS1626381466576","","","","","","","","","","","","","","","","","",""
"[{""page_index"":0,""viewing_time"":2108.4000000059605},{""page_index"":1,""viewing_time"":8908.199999988079}]","11017","instructions","1","93747","0.0-1.0","SS1626381466576","instructions","","","","","","","","","","","","","","","","",""
"","234902.59999999404","sequential-stimulus-presentation-old","2","329161","0.0-2.0","SS1626381466576","","","40","500","235402.59999999404","null","null","self_paced","0","","","","","","","","",""
"","6225","sequential-stimulus-presentation-old","3","335899","0.0-3.0","SS1626381466576","","","40","500","6725","null","null","self_paced","0","","","","","","","","",""
"[{""page_index"":0,""viewing_time"":378353.5}]","378355","instructions","4","714256","0.0-4.0","SS1626381466576","instructions","","","","","","","","","","","","","","","","",""
"","5165.0999999940395","sequential-stimulus-presentation-old","5","719935","0.0-5.0","SS1626381466576","","","40","500","5665.0999999940395","null","null","forced_short","500","","","","","","","","",""
"","2754.2999999821186","sequential-stimulus-presentation-old","6","723194","0.0-6.0","SS1626381466576","","","40","500","3254.2999999821186","null","null","forced_short","500","","","","","","","","",""
"[{""page_index"":0,""viewing_time"":4506.899999976158}]","4507.199999988079","instructions","7","727702","0.0-7.0","SS1626381466576","instructions","","","","","","","","","","","","","","","","",""
"[{""page_index"":0,""viewing_time"":16693.5},{""page_index"":1,""viewing_time"":10541.40000000596},{""page_index"":2,""viewing_time"":4722.5},{""page_index"":3,""viewing_time"":1343.9000000059605},{""page_index"":4,""viewing_time"":992.1999999880791}]","34293.90000000596","instructions","8","761998","0.0-8.0","SS1626381466576","instructions","","","","","","","","","","","","","","","","",""
"","null","html-keyboard-response","9","763261","0.0-9.0-0.0","SS1626381466576","","","null","","","","","","","<p><img src= images/blank.png width =""600"" height = ""600"" style=""position:fixed;top:50%; left:50%; transform: translate(-50%, -50%); border:5px solid black"">","","","","","","","",""
"","3993.300000011921","sequential-stimulus-presentation-old","10","767922","0.0-9.0-1.0","SS1626381466576","trial","","40","500","4493.300000011921","images/stimuli/spore_stims/complex_07_A_b.gif","images/stimuli/spore_stims/complex_23_A_a.gif","forced_short","660","","0","complex_dissimilar","images/stimuli/spore_stims/complex_23_A_a.gif","","","","",""
"","null","html-keyboard-response","11","768788","0.0-9.0-0.1","SS1626381466576","","","null","","","","","","","<p><img src= images/blank.png width =""600"" height = ""600"" style=""position:fixed;top:50%; left:50%; transform: translate(-50%, -50%); border:5px solid black"">","","","","","","","",""
"","94052.19999998808","sequential-stimulus-presentation-old","12","863346","0.0-9.0-1.1","SS1626381466576","trial","","40","500","94552.19999998808","images/stimuli/spore_stims/complex_07_A_b.gif","images/stimuli/spore_stims/complex_23_A_a.gif","forced_short","660","","0","complex_dissimilar","images/stimuli/spore_stims/complex_23_A_a.gif","","","","",""
"","null","html-keyboard-response","13","864227","0.0-9.0-0.2","SS1626381466576","","","null","","","","","","","<p><img src= images/blank.png width =""600"" height = ""600"" style=""position:fixed;top:50%; left:50%; transform: translate(-50%, -50%); border:5px solid black"">","","","","","","","",""
"","4599.899999976158","sequential-stimulus-presentation-old","14","869336","0.0-9.0-1.2","SS1626381466576","trial","","40","500","5099.899999976158","images/stimuli/spore_stims/complex_07_A_b.gif","images/stimuli/spore_stims/complex_23_A_a.gif","forced_short","660","","0","complex_dissimilar","images/stimuli/spore_stims/complex_23_A_a.gif","","","","",""
"","null","html-keyboard-response","15","870150","0.0-9.0-0.3","SS1626381466576","","","null","","","","","","","<p><img src= images/blank.png width =""600"" height = ""600"" style=""position:fixed;top:50%; left:50%; transform: translate(-50%, -50%); border:5px solid black"">","","","","","","","",""
"","2212.0999999940395","sequential-stimulus-presentation-old","16","872868","0.0-9.0-1.3","SS1626381466576","trial","","40","500","2712.0999999940395","images/stimuli/spore_stims/complex_07_A_b.gif","images/stimuli/spore_stims/complex_23_A_a.gif","forced_short","660","","0","complex_dissimilar","images/stimuli/spore_stims/complex_23_A_a.gif","","","","",""
"","null","html-keyboard-response","17","874116","0.0-9.0-0.4","SS1626381466576","","","null","","","","","","","<p><img src= images/blank.png width =""600"" height = ""600"" style=""position:fixed;top:50%; left:50%; transform: translate(-50%, -50%); border:5px solid black"">","","","","","","","",""
"","3007.4000000059605","sequential-stimulus-presentation-old","18","877636","0.0-9.0-1.4","SS1626381466576","trial","","40","500","3507.4000000059605","images/stimuli/spore_stims/complex_07_A_b.gif","images/stimuli/spore_stims/complex_23_A_a.gif","forced_short","660","","0","complex_dissimilar","images/stimuli/spore_stims/complex_07_A_b.gif","","","","",""
"","4958.699999988079","survey-multi-choice","19","882604","0.0-10.0","SS1626381466576","math_question","","","","","","","","","","","","","{""Q0"":""11""}","[0]","11","",""
"","null","html-keyboard-response","20","883467","0.0-11.0-0.0","SS1626381466576","","","null","","","","","","","<p><img src= images/blank.png width =""600"" height = ""600"" style=""position:fixed;top:50%; left:50%; transform: translate(-50%, -50%); border:5px solid black"">","","","","","","","",""
"","1604.7999999821186","sequential-stimulus-presentation-old","21","885239","0.0-11.0-1.0","SS1626381466576","trial","","40","500","2104.7999999821186","images/stimuli/spore_stims/complex_17_A_b.gif","images/stimuli/spore_stims/complex_23_A_b.gif","forced_short","150","","1","complex_dissimilar","images/stimuli/spore_stims/complex_23_A_b.gif","","","","",""
"","null","html-keyboard-response","22","886209","0.0-11.0-0.1","SS1626381466576","","","null","","","","","","","<p><img src= images/blank.png width =""600"" height = ""600"" style=""position:fixed;top:50%; left:50%; transform: translate(-50%, -50%); border:5px solid black"">","","","","","","","",""
"","2275.699999988079","sequential-stimulus-presentation-old","23","888992","0.0-11.0-1.1","SS1626381466576","trial","","40","500","2775.699999988079","images/stimuli/spore_stims/complex_17_A_b.gif","images/stimuli/spore_stims/complex_23_A_b.gif","forced_short","150","","1","complex_dissimilar","images/stimuli/spore_stims/complex_17_A_b.gif","","","","",""
"","null","html-keyboard-response","24","889921","0.0-11.0-0.2","SS1626381466576","","","null","","","","","","","<p><img src= images/blank.png width =""600"" height = ""600"" style=""position:fixed;top:50%; left:50%; transform: translate(-50%, -50%); border:5px solid black"">","","","","","","","",""
"","3971.5","sequential-stimulus-presentation-old","25","894399","0.0-11.0-1.2","SS1626381466576","trial","","40","500","4471.5","images/stimuli/spore_stims/complex_17_A_b.gif","images/stimuli/spore_stims/complex_23_A_b.gif","forced_short","150","","1","complex_dissimilar","images/stimuli/spore_stims/complex_17_A_b.gif","","","","",""
"","null","html-keyboard-response","26","895403","0.0-11.0-0.3","SS1626381466576","","","null","","","","","","","<p><img src= images/blank.png width =""600"" height = ""600"" style=""position:fixed;top:50%; left:50%; transform: translate(-50%, -50%); border:5px solid black"">","","","","","","","",""
"","3108.5","sequential-stimulus-presentation-old","27","899601","0.0-11.0-1.3","SS1626381466576","trial","","40","500","3608.5","images/stimuli/spore_stims/complex_17_A_b.gif","images/stimuli/spore_stims/complex_23_A_b.gif","forced_short","150","","1","complex_dissimilar","images/stimuli/spore_stims/complex_23_A_b.gif","","","","",""
"","3136.9000000059605","survey-multi-choice","28","902742","0.0-12.0","SS1626381466576","math_question","","","","","","","","","","","","","{""Q0"":""15""}","[0]","15","",""
"","null","html-keyboard-response","29","903868","0.0-13.0-0.0","SS1626381466576","","","null","","","","","","","<p><img src= images/blank.png width =""600"" height = ""600"" style=""position:fixed;top:50%; left:50%; transform: translate(-50%, -50%); border:5px solid black"">","","","","","","","",""
"","88520.70000001788","sequential-stimulus-presentation-old","30","992506","0.0-13.0-1.0","SS1626381466576","trial","","40","500","89020.70000001788","images/stimuli/spore_stims/complex_08_A_a.gif","images/stimuli/spore_stims/complex_04_A_b.gif","forced_short","110","","2","complex_dissimilar","images/stimuli/spore_stims/complex_04_A_b.gif","","","","",""
"","null","html-keyboard-response","31","993616","0.0-13.0-0.1","SS1626381466576","","","null","","","","","","","<p><img src= images/blank.png width =""600"" height = ""600"" style=""position:fixed;top:50%; left:50%; transform: translate(-50%, -50%); border:5px solid black"">","","","","","","","",""
"","1557.2000000178814","sequential-stimulus-presentation-old","32","995680","0.0-13.0-1.1","SS1626381466576","trial","","40","500","2057.2000000178814","images/stimuli/spore_stims/complex_08_A_a.gif","images/stimuli/spore_stims/complex_04_A_b.gif","forced_short","110","","2","complex_dissimilar","images/stimuli/spore_stims/complex_04_A_b.gif","","","","",""
"","null","html-keyboard-response","33","996517","0.0-13.0-0.2","SS1626381466576","","","null","","","","","","","<p><img src= images/blank.png width =""600"" height = ""600"" style=""position:fixed;top:50%; left:50%; transform: translate(-50%, -50%); border:5px solid black"">","","","","","","","",""
"","908.7000000178814","sequential-stimulus-presentation-old","34","997934","0.0-13.0-1.2","SS1626381466576","trial","","40","500","1408.7000000178814","images/stimuli/spore_stims/complex_08_A_a.gif","images/stimuli/spore_stims/complex_04_A_b.gif","forced_short","110","","2","complex_dissimilar","images/stimuli/spore_stims/complex_08_A_a.gif","","","","",""
"","null","html-keyboard-response","35","998758","0.0-13.0-0.3","SS1626381466576","","","null","","","","","","","<p><img src= images/blank.png width =""600"" height = ""600"" style=""position:fixed;top:50%; left:50%; transform: translate(-50%, -50%); border:5px solid black"">","","","","","","","",""
"","403.69999998807907","sequential-stimulus-presentation-old","36","999666","0.0-13.0-1.3","SS1626381466576","trial","","40","500","903.6999999880791","images/stimuli/spore_stims/complex_08_A_a.gif","images/stimuli/spore_stims/complex_04_A_b.gif","forced_short","110","","2","complex_dissimilar","images/stimuli/spore_stims/complex_04_A_b.gif","","","","",""
"","null","html-keyboard-response","37","1000508","0.0-13.0-0.4","SS1626381466576","","","null","","","","","","","<p><img src= images/blank.png width =""600"" height = ""600"" style=""position:fixed;top:50%; left:50%; transform: translate(-50%, -50%); border:5px solid black"">","","","","","","","",""
"","397","sequential-stimulus-presentation-old","38","1001411","0.0-13.0-1.4","SS1626381466576","trial","","40","500","897","images/stimuli/spore_stims/complex_08_A_a.gif","images/stimuli/spore_stims/complex_04_A_b.gif","forced_short","110","","2","complex_dissimilar","images/stimuli/spore_stims/complex_04_A_b.gif","","","","",""
"","2731.4000000059605","survey-multi-choice","39","1004146","0.0-14.0","SS1626381466576","math_question","","","","","","","","","","","","","{""Q0"":""9""}","[0]","9","",""
"","null","html-keyboard-response","40","1005113","0.0-15.0-0.0","SS1626381466576","","","null","","","","","","","<p><img src= images/blank.png width =""600"" height = ""600"" style=""position:fixed;top:50%; left:50%; transform: translate(-50%, -50%); border:5px solid black"">","","","","","","","",""
"","123776.59999999404","sequential-stimulus-presentation-old","41","1128952","0.0-15.0-1.0","SS1626381466576","trial","","40","500","124276.59999999404","images/stimuli/spore_stims/complex_12_A_b.gif","images/stimuli/spore_stims/complex_02_A_a.gif","forced_short","50","","3","complex_dissimilar","images/stimuli/spore_stims/complex_02_A_a.gif","","","","",""
"","null","html-keyboard-response","42","1130265","0.0-15.0-0.1","SS1626381466576","","","null","","","","","","","<p><img src= images/blank.png width =""600"" height = ""600"" style=""position:fixed;top:50%; left:50%; transform: translate(-50%, -50%); border:5px solid black"">","","","","","","","",""
"","1.5999999940395355","sequential-stimulus-presentation-old","43","1130776","0.0-15.0-1.1","SS1626381466576","trial","","40","500","501.59999999403954","images/stimuli/spore_stims/complex_12_A_b.gif","images/stimuli/spore_stims/complex_02_A_a.gif","forced_short","50","","3","complex_dissimilar","images/stimuli/spore_stims/complex_12_A_b.gif","","","","",""
"","null","html-keyboard-response","44","1132052","0.0-15.0-0.2","SS1626381466576","","","null","","","","","","","<p><img src= images/blank.png width =""600"" height = ""600"" style=""position:fixed;top:50%; left:50%; transform: translate(-50%, -50%); border:5px solid black"">","","","","","","","",""
"","144.60000002384186","sequential-stimulus-presentation-old","45","1132706","0.0-15.0-1.2","SS1626381466576","trial","","40","500","644.6000000238419","images/stimuli/spore_stims/complex_12_A_b.gif","images/stimuli/spore_stims/complex_02_A_a.gif","forced_short","50","","3","complex_dissimilar","images/stimuli/spore_stims/complex_02_A_a.gif","","","","",""
"","null","html-keyboard-response","46","1133570","0.0-15.0-0.3","SS1626381466576","","","null","","","","","","","<p><img src= images/blank.png width =""600"" height = ""600"" style=""position:fixed;top:50%; left:50%; transform: translate(-50%, -50%); border:5px solid black"">","","","","","","","",""
"","625.0999999940395","sequential-stimulus-presentation-old","47","1134702","0.0-15.0-1.3","SS1626381466576","trial","","40","500","1125.0999999940395","images/stimuli/spore_stims/complex_12_A_b.gif","images/stimuli/spore_stims/complex_02_A_a.gif","forced_short","50","","3","complex_dissimilar","images/stimuli/spore_stims/complex_02_A_a.gif","","","","",""
"","null","html-keyboard-response","48","1135675","0.0-15.0-0.4","SS1626381466576","","","null","","","","","","","<p><img src= images/blank.png width =""600"" height = ""600"" style=""position:fixed;top:50%; left:50%; transform: translate(-50%, -50%); border:5px solid black"">","","","","","","","",""
"","554.7000000178814","sequential-stimulus-presentation-old","49","1136735","0.0-15.0-1.4","SS1626381466576","trial","","40","500","1054.7000000178814","images/stimuli/spore_stims/complex_12_A_b.gif","images/stimuli/spore_stims/complex_02_A_a.gif","forced_short","50","","3","complex_dissimilar","images/stimuli/spore_stims/complex_02_A_a.gif","","","","",""
"","null","html-keyboard-response","50","1137982","0.0-15.0-0.5","SS1626381466576","","","null","","","","","","","<p><img src= images/blank.png width =""600"" height = ""600"" style=""position:fixed;top:50%; left:50%; transform: translate(-50%, -50%); border:5px solid black"">","","","","","","","",""
"","554","sequential-stimulus-presentation-old","51","1139042","0.0-15.0-1.5","SS1626381466576","trial","","40","500","1054","images/stimuli/spore_stims/complex_12_A_b.gif","images/stimuli/spore_stims/complex_02_A_a.gif","forced_short","50","","3","complex_dissimilar","images/stimuli/spore_stims/complex_12_A_b.gif","","","","",""
"","2398.5999999940395","survey-multi-choice","52","1141445","0.0-16.0","SS1626381466576","math_question","","","","","","","","","","","","","{""Q0"":""7""}","[0]","7","",""
"","null","html-keyboard-response","53","1142607","0.0-17.0-0.0","SS1626381466576","","","null","","","","","","","<p><img src= images/blank.png width =""600"" height = ""600"" style=""position:fixed;top:50%; left:50%; transform: translate(-50%, -50%); border:5px solid black"">","","","","","","","",""
"","77795","sequential-stimulus-presentation-old","54","1221218","0.0-17.0-1.0","SS1626381466576","trial","","40","500","78295","images/stimuli/spore_stims/complex_10_A_b.gif","images/stimuli/spore_stims/complex_19_A_b.gif","forced_short","530","","4","complex_dissimilar","images/stimuli/spore_stims/complex_19_A_b.gif","","","","",""
"","null","html-keyboard-response","55","1222311","0.0-17.0-0.1","SS1626381466576","","","null","","","","","","","<p><img src= images/blank.png width =""600"" height = ""600"" style=""position:fixed;top:50%; left:50%; transform: translate(-50%, -50%); border:5px solid black"">","","","","","","","",""
"","68.60000002384186","sequential-stimulus-presentation-old","56","1222887","0.0-17.0-1.1","SS1626381466576","trial","","40","500","568.6000000238419","images/stimuli/spore_stims/complex_10_A_b.gif","images/stimuli/spore_stims/complex_19_A_b.gif","forced_short","530","","4","complex_dissimilar","images/stimuli/spore_stims/complex_19_A_b.gif","","","","",""
"","null","html-keyboard-response","57","1224010","0.0-17.0-0.2","SS1626381466576","","","null","","","","","","","<p><img src= images/blank.png width =""600"" height = ""600"" style=""position:fixed;top:50%; left:50%; transform: translate(-50%, -50%); border:5px solid black"">","","","","","","","",""
"","282.40000000596046","sequential-stimulus-presentation-old","58","1224799","0.0-17.0-1.2","SS1626381466576","trial","","40","500","782.4000000059605","images/stimuli/spore_stims/complex_10_A_b.gif","images/stimuli/spore_stims/complex_19_A_b.gif","forced_short","530","","4","complex_dissimilar","images/stimuli/spore_stims/complex_19_A_b.gif","","","","",""
"","null","html-keyboard-response","59","1225977","0.0-17.0-0.3","SS1626381466576","","","null","","","","","","","<p><img src= images/blank.png width =""600"" height = ""600"" style=""position:fixed;top:50%; left:50%; transform: translate(-50%, -50%); border:5px solid black"">","","","","","","","",""
"","272.5","sequential-stimulus-presentation-old","60","1226756","0.0-17.0-1.3","SS1626381466576","trial","","40","500","772.5","images/stimuli/spore_stims/complex_10_A_b.gif","images/stimuli/spore_stims/complex_19_A_b.gif","forced_short","530","","4","complex_dissimilar","images/stimuli/spore_stims/complex_10_A_b.gif","","","","",""
"","null","html-keyboard-response","61","1227865","0.0-17.0-0.4","SS1626381466576","","","null","","","","","","","<p><img src= images/blank.png width =""600"" height = ""600"" style=""position:fixed;top:50%; left:50%; transform: translate(-50%, -50%); border:5px solid black"">","","","","","","","",""
"","519","sequential-stimulus-presentation-old","62","1228899","0.0-17.0-1.4","SS1626381466576","trial","","40","500","1019","images/stimuli/spore_stims/complex_10_A_b.gif","images/stimuli/spore_stims/complex_19_A_b.gif","forced_short","530","","4","complex_dissimilar","images/stimuli/spore_stims/complex_10_A_b.gif","","","","",""
"","3133.800000011921","survey-multi-choice","63","1232041","0.0-18.0","SS1626381466576","math_question","","","","","","","","","","","","","{""Q0"":""10""}","[0]","10","",""
"","null","html-keyboard-response","64","1233428","0.0-19.0-0.0","SS1626381466576","","","null","","","","","","","<p><img src= images/blank.png width =""600"" height = ""600"" style=""position:fixed;top:50%; left:50%; transform: translate(-50%, -50%); border:5px solid black"">","","","","","","","",""
"","104563.40000000596","sequential-stimulus-presentation-old","65","1338991","0.0-19.0-1.0","SS1626381466576","trial","","40","500","105063.40000000596","images/stimuli/spore_stims/complex_17_A_a.gif","images/stimuli/spore_stims/complex_24_A_a.gif","forced_short","480","","5","complex_dissimilar","images/stimuli/spore_stims/complex_24_A_a.gif","","","","",""
"","null","html-keyboard-response","66","1339947","0.0-19.0-0.1","SS1626381466576","","","null","","","","","","","<p><img src= images/blank.png width =""600"" height = ""600"" style=""position:fixed;top:50%; left:50%; transform: translate(-50%, -50%); border:5px solid black"">","","","","","","","",""
"","60.900000005960464","sequential-stimulus-presentation-old","67","1340521","0.0-19.0-1.1","SS1626381466576","trial","","40","500","560.9000000059605","images/stimuli/spore_stims/complex_17_A_a.gif","images/stimuli/spore_stims/complex_24_A_a.gif","forced_short","480","","5","complex_dissimilar","images/stimuli/spore_stims/complex_24_A_a.gif","","","","",""
"","null","html-keyboard-response","68","1341669","0.0-19.0-0.2","SS1626381466576","","","null","","","","","","","<p><img src= images/blank.png width =""600"" height = ""600"" style=""position:fixed;top:50%; left:50%; transform: translate(-50%, -50%); border:5px solid black"">","","","","","","","",""
"","509.40000000596046","sequential-stimulus-presentation-old","69","1342688","0.0-19.0-1.2","SS1626381466576","trial","","40","500","1009.4000000059605","images/stimuli/spore_stims/complex_17_A_a.gif","images/stimuli/spore_stims/complex_24_A_a.gif","forced_short","480","","5","complex_dissimilar","images/stimuli/spore_stims/complex_24_A_a.gif","","","","",""
"","null","html-keyboard-response","70","1343738","0.0-19.0-0.3","SS1626381466576","","","null","","","","","","","<p><img src= images/blank.png width =""600"" height = ""600"" style=""position:fixed;top:50%; left:50%; transform: translate(-50%, -50%); border:5px solid black"">","","","","","","","",""
"","821","sequential-stimulus-presentation-old","71","1345067","0.0-19.0-1.3","SS1626381466576","trial","","40","500","1321","images/stimuli/spore_stims/complex_17_A_a.gif","images/stimuli/spore_stims/complex_24_A_a.gif","forced_short","480","","5","complex_dissimilar","images/stimuli/spore_stims/complex_24_A_a.gif","","","","",""
"","null","html-keyboard-response","72","1346327","0.0-19.0-0.4","SS1626381466576","","","null","","","","","","","<p><img src= images/blank.png width =""600"" height = ""600"" style=""position:fixed;top:50%; left:50%; transform: translate(-50%, -50%); border:5px solid black"">","","","","","","","",""
"","59.20000001788139","sequential-stimulus-presentation-old","73","1346893","0.0-19.0-1.4","SS1626381466576","trial","","40","500","559.2000000178814","images/stimuli/spore_stims/complex_17_A_a.gif","images/stimuli/spore_stims/complex_24_A_a.gif","forced_short","480","","5","complex_dissimilar","images/stimuli/spore_stims/complex_24_A_a.gif","","","","",""
"[{""page_index"":0,""viewing_time"":8439.40000000596}]","8439.90000000596","instructions","74","1355337","0.0-20.0","SS1626381466576","instructions","","","","","","","","","","","","","","","","",""
"","6621.9000000059605","survey-likert","75","1361967","0.0-21.0","SS1626381466576","similarity_question","","","","","","","","","","","","","{""Q0"":1}","[0]","","images/stimuli/spore_stims/complex_17_A_b.gif","images/stimuli/spore_stims/complex_23_A_b.gif"
"","91410.20000001788","survey-likert","76","1453385","0.0-22.0","SS1626381466576","similarity_question","","","","","","","","","","","","","{""Q0"":2}","[0]","","images/stimuli/spore_stims/complex_12_A_b.gif","images/stimuli/spore_stims/complex_02_A_a.gif"
"","3845.0999999940395","survey-likert","77","1457236","0.0-23.0","SS1626381466576","similarity_question","","","","","","","","","","","","","{""Q0"":2}","[0]","","images/stimuli/spore_stims/complex_17_A_a.gif","images/stimuli/spore_stims/complex_24_A_a.gif"
"","4335","survey-likert","78","1461577","0.0-24.0","SS1626381466576","similarity_question","","","","","","","","","","","","","{""Q0"":2}","[0]","","images/stimuli/spore_stims/complex_23_A_a.gif","images/stimuli/spore_stims/complex_07_A_b.gif"
"","1744.5","survey-likert","79","1463329","0.0-25.0","SS1626381466576","similarity_question","","","","","","","","","","","","","{""Q0"":1}","[0]","","images/stimuli/spore_stims/complex_10_A_b.gif","images/stimuli/spore_stims/complex_19_A_b.gif"
"","1801.4000000059605","survey-likert","80","1465137","0.0-26.0","SS1626381466576","similarity_question","","","","","","","","","","","","","{""Q0"":2}","[0]","","images/stimuli/spore_stims/complex_04_A_b.gif","images/stimuli/spore_stims/complex_08_A_a.gif"
"[{""page_index"":0,""viewing_time"":5171.9000000059605}]","5172.5","instructions","81","1470320","0.0-27.0","SS1626381466576","instructions","","","","","","","","","","","","","","","","",""
"","2545.9000000059605","survey-likert","82","1472872","0.0-28.0","SS1626381466576","","","","","","","","","","images/stimuli/spore_stims/complex_19_A_b.gif","","","","{""Q0"":3}","[0]","","",""
"","3193.699999988079","survey-likert","83","1476073","0.0-29.0","SS1626381466576","","","","","","","","","","images/stimuli/spore_stims/complex_02_A_a.gif","","","","{""Q0"":3}","[0]","","",""
"","2761.4000000059605","survey-likert","84","1478842","0.0-30.0","SS1626381466576","","","","","","","","","","images/stimuli/spore_stims/complex_17_A_b.gif","","","","{""Q0"":2}","[0]","","",""
"","2027.6000000238419","survey-likert","85","1480877","0.0-31.0","SS1626381466576","","","","","","","","","","images/stimuli/spore_stims/complex_23_A_a.gif","","","","{""Q0"":3}","[0]","","",""
"","1614.2999999821186","survey-likert","86","1482498","0.0-32.0","SS1626381466576","","","","","","","","","","images/stimuli/spore_stims/complex_24_A_a.gif","","","","{""Q0"":4}","[0]","","",""
"","1440.0999999940395","survey-likert","87","1483945","0.0-33.0","SS1626381466576","","","","","","","","","","images/stimuli/spore_stims/complex_08_A_a.gif","","","","{""Q0"":4}","[0]","","",""
"[{""page_index"":0,""viewing_time"":1937.699999988079}]","1938.4000000059605","instructions","88","1485888","0.0-34.0","SS1626381466576","instructions","","","","","","","","","","","","","","","","",""
"","3368.300000011921","demog-age","89","1489266","0.0-35.0","SS1626381466576","","","","","","","","","","","","","","{""age"":""19""}","","","",""
"","3030.699999988079","demog-ethnic-US","90","1492315","0.0-36.0","SS1626381466576","","","","","","","","","","","","","","{""ethnicity"":[""White""]}","[0]","","",""
"","7142.4000000059605","demog-gender-and-education","91","1499465","0.0-37.0","SS1626381466576","","","","","","","","","","","","","","{""gender"":""Male"",""education"":""Bachelor's Degree""}","[0,1]","","",""
"","28506.80000001192","survey-text","92","1527981","0.0-38.0","SS1626381466576","feedback","","","","","","","","","","","","","{""Q0"":""No. it was all good""}","","","",""
"[{""page_index"":0,""viewing_time"":2393}]","2393.699999988079","instructions","93","1530381","0.0-39.0","SS1626381466576","instructions","","","","","","","","","","","","","","","","",""
