success,trial_type,trial_index,time_elapsed,internal_node_id,subject,rt,responses,trial_stimulus,key_press,minimum_viewing_duration,trial_looking_time,block_deviant,block_background,exposure_type,forced_exposure_time,view_history,stimulus,button_pressed,stimulus_type,correct_answer,version,block_number,block_type,stimulus_displayed,memory_block_index
TRUE,fullscreen,0,2866,0.0-0.0,SS1649106438604,NA,NA,NA,NA,NA,NA,NA,NA,NA,NA,NA,NA,NA,NA,NA,NA,NA,NA,NA,NA
NA,demog-age,1,4792,0.0-1.0,SS1649106438604,1919.5,"{""subject_id"":""02""}",NA,NA,NA,NA,NA,NA,NA,NA,NA,NA,NA,NA,NA,NA,NA,NA,NA,NA
NA,stimuli-presentation,2,17860,0.0-2.0,SS1649106438604,12152,NA,NA,32,500,12652,null,null,self_paced,0,NA,NA,NA,NA,NA,NA,NA,NA,NA,NA
NA,instructions,3,32535,0.0-3.0,SS1649106438604,14661.200000047684,NA,NA,NA,NA,NA,NA,NA,NA,NA,"[{""page_index"":0,""viewing_time"":14660}]",NA,NA,NA,NA,NA,NA,NA,NA,NA
NA,stimuli-presentation,4,46367,0.0-4.0,SS1649106438604,12912.700000047684,NA,NA,32,500,13412.700000047684,null,null,self_paced,0,NA,NA,NA,NA,NA,NA,NA,NA,NA,NA
NA,instructions,5,49492,0.0-5.0,SS1649106438604,3122.100000023842,NA,NA,NA,NA,NA,NA,NA,NA,NA,"[{""page_index"":0,""viewing_time"":3121.399999976158}]",NA,NA,NA,NA,NA,NA,NA,NA,NA
NA,instructions,6,64984,0.0-6.0,SS1649106438604,15488.199999928474,NA,NA,NA,NA,NA,NA,NA,NA,NA,"[{""page_index"":0,""viewing_time"":15487.699999928474}]",NA,NA,NA,NA,NA,NA,NA,NA,NA
NA,html-keyboard-response,7,66146,0.0-7.0-0.0,SS1649106438604,NA,NA,NA,null,NA,NA,NA,NA,NA,NA,NA,"<p><img src= images/blank.png width =""600"" height = ""600"" style=""position:fixed;top:50%; left:50%; transform: translate(-50%, -50%); border:5px solid black"">",NA,NA,NA,NA,NA,NA,NA,NA
NA,stimuli-presentation,8,98442,0.0-7.0-1.0,SS1649106438604,31377.899999976158,NA,NA,32,500,31877.89999997616,images/stimuli/complex_21_A_b.gif,images/stimuli/complex_18_A_b.gif,self_paced,850,NA,NA,NA,NA,NA,NA,NA,NA,NA,NA
NA,html-keyboard-response,9,99386,0.0-7.0-0.1,SS1649106438604,NA,NA,NA,null,NA,NA,NA,NA,NA,NA,NA,"<p><img src= images/blank.png width =""600"" height = ""600"" style=""position:fixed;top:50%; left:50%; transform: translate(-50%, -50%); border:5px solid black"">",NA,NA,NA,NA,NA,NA,NA,NA
NA,stimuli-presentation,10,100575,0.0-7.0-1.1,SS1649106438604,272.89999997615814,NA,NA,32,500,772.8999999761581,images/stimuli/complex_21_A_b.gif,images/stimuli/complex_18_A_b.gif,self_paced,850,NA,NA,NA,NA,NA,NA,NA,NA,NA,NA
NA,html-keyboard-response,11,101423,0.0-7.0-0.2,SS1649106438604,NA,NA,NA,null,NA,NA,NA,NA,NA,NA,NA,"<p><img src= images/blank.png width =""600"" height = ""600"" style=""position:fixed;top:50%; left:50%; transform: translate(-50%, -50%); border:5px solid black"">",NA,NA,NA,NA,NA,NA,NA,NA
NA,stimuli-presentation,12,102730,0.0-7.0-1.2,SS1649106438604,395.89999997615814,NA,NA,32,500,895.8999999761581,images/stimuli/complex_21_A_b.gif,images/stimuli/complex_18_A_b.gif,self_paced,850,NA,NA,NA,NA,NA,NA,NA,NA,NA,NA
NA,html-button-response,13,109747,0.0-8.0,SS1649106438604,7012.799999952316,NA,NA,NA,NA,NA,NA,NA,NA,NA,NA,NA,0,memory_practice,left,NA,NA,NA,NA,NA
NA,html-keyboard-response,14,110679,0.0-9.0-0.0,SS1649106438604,NA,NA,NA,null,NA,NA,NA,NA,NA,NA,NA,"<p><img src= images/blank.png width =""600"" height = ""600"" style=""position:fixed;top:50%; left:50%; transform: translate(-50%, -50%); border:5px solid black"">",NA,NA,NA,NA,NA,NA,NA,NA
NA,stimuli-presentation,15,114823,0.0-9.0-1.0,SS1649106438604,3226.600000023842,NA,NA,32,500,3726.600000023842,images/stimuli/complex_21_A_b.gif,images/stimuli/complex_18_A_b.gif,self_paced,790,NA,NA,NA,NA,NA,NA,NA,NA,NA,NA
NA,html-keyboard-response,16,115922,0.0-9.0-0.1,SS1649106438604,NA,NA,NA,null,NA,NA,NA,NA,NA,NA,NA,"<p><img src= images/blank.png width =""600"" height = ""600"" style=""position:fixed;top:50%; left:50%; transform: translate(-50%, -50%); border:5px solid black"">",NA,NA,NA,NA,NA,NA,NA,NA
NA,stimuli-presentation,17,117095,0.0-9.0-1.1,SS1649106438604,255.60000002384186,NA,NA,32,500,755.6000000238419,images/stimuli/complex_21_A_b.gif,images/stimuli/complex_18_A_b.gif,self_paced,790,NA,NA,NA,NA,NA,NA,NA,NA,NA,NA
NA,html-keyboard-response,18,118375,0.0-9.0-0.2,SS1649106438604,NA,NA,NA,null,NA,NA,NA,NA,NA,NA,NA,"<p><img src= images/blank.png width =""600"" height = ""600"" style=""position:fixed;top:50%; left:50%; transform: translate(-50%, -50%); border:5px solid black"">",NA,NA,NA,NA,NA,NA,NA,NA
NA,stimuli-presentation,19,119772,0.0-9.0-1.2,SS1649106438604,486.09999990463257,NA,NA,32,500,986.0999999046326,images/stimuli/complex_21_A_b.gif,images/stimuli/complex_18_A_b.gif,self_paced,790,NA,NA,NA,NA,NA,NA,NA,NA,NA,NA
NA,html-button-response,20,125252,0.0-10.0,SS1649106438604,5476.599999904633,NA,NA,NA,NA,NA,NA,NA,NA,NA,NA,NA,1,memory_practice,right,NA,NA,NA,NA,NA
NA,instructions,21,151870,0.0-11.0,SS1649106438604,26614.899999976158,NA,NA,NA,NA,NA,NA,NA,NA,NA,"[{""page_index"":0,""viewing_time"":26614.399999976158}]",NA,NA,NA,NA,NA,NA,NA,NA,NA
NA,stimuli-presentation,22,155396,0.0-12.0,SS1649106438604,2611.4000000953674,NA,NA,32,500,3111.400000095367,null,null,self_paced,0,NA,NA,NA,NA,NA,NA,NA,NA,NA,NA
NA,html-keyboard-response,23,156383,0.0-13.0-0.0,SS1649106438604,NA,NA,NA,null,NA,NA,NA,NA,NA,NA,NA,"<p><img src= images/blank.png width =""600"" height = ""600"" style=""position:fixed;top:50%; left:50%; transform: translate(-50%, -50%); border:5px solid black"">",NA,NA,NA,NA,NA,NA,NA,NA
NA,stimuli-presentation,24,162807,0.0-13.0-1.0,SS1649106438604,5515.300000071526,NA,NA,32,500,6015.300000071526,images/stimuli/complex_16_A_b.gif,images/stimuli/complex_22_A_b.gif,self_paced,590,NA,NA,NA,trial,NA,complex,0,complex_dissimilar,images/stimuli/complex_22_A_b.gif,NA
NA,html-keyboard-response,25,164103,0.0-13.0-0.1,SS1649106438604,NA,NA,NA,null,NA,NA,NA,NA,NA,NA,NA,"<p><img src= images/blank.png width =""600"" height = ""600"" style=""position:fixed;top:50%; left:50%; transform: translate(-50%, -50%); border:5px solid black"">",NA,NA,NA,NA,NA,NA,NA,NA
NA,stimuli-presentation,26,166137,0.0-13.0-1.1,SS1649106438604,1118.3000000715256,NA,NA,32,500,1618.3000000715256,images/stimuli/complex_16_A_b.gif,images/stimuli/complex_22_A_b.gif,self_paced,590,NA,NA,NA,trial,NA,complex,0,complex_dissimilar,images/stimuli/complex_22_A_b.gif,NA
NA,html-keyboard-response,27,167244,0.0-13.0-0.2,SS1649106438604,NA,NA,NA,null,NA,NA,NA,NA,NA,NA,NA,"<p><img src= images/blank.png width =""600"" height = ""600"" style=""position:fixed;top:50%; left:50%; transform: translate(-50%, -50%); border:5px solid black"">",NA,NA,NA,NA,NA,NA,NA,NA
NA,stimuli-presentation,28,168969,0.0-13.0-1.2,SS1649106438604,815.5,NA,NA,32,500,1315.5,images/stimuli/complex_16_A_b.gif,images/stimuli/complex_22_A_b.gif,self_paced,590,NA,NA,NA,trial,NA,complex,0,complex_dissimilar,images/stimuli/complex_22_A_b.gif,NA
NA,html-keyboard-response,29,169951,0.0-13.0-0.3,SS1649106438604,NA,NA,NA,null,NA,NA,NA,NA,NA,NA,NA,"<p><img src= images/blank.png width =""600"" height = ""600"" style=""position:fixed;top:50%; left:50%; transform: translate(-50%, -50%); border:5px solid black"">",NA,NA,NA,NA,NA,NA,NA,NA
NA,stimuli-presentation,30,171846,0.0-13.0-1.3,SS1649106438604,977.6999999284744,NA,NA,32,500,1477.6999999284744,images/stimuli/complex_16_A_b.gif,images/stimuli/complex_22_A_b.gif,self_paced,590,NA,NA,NA,trial,NA,complex,0,complex_dissimilar,images/stimuli/complex_16_A_b.gif,NA
NA,html-keyboard-response,31,172860,0.0-13.0-0.4,SS1649106438604,NA,NA,NA,null,NA,NA,NA,NA,NA,NA,NA,"<p><img src= images/blank.png width =""600"" height = ""600"" style=""position:fixed;top:50%; left:50%; transform: translate(-50%, -50%); border:5px solid black"">",NA,NA,NA,NA,NA,NA,NA,NA
NA,stimuli-presentation,32,177751,0.0-13.0-1.4,SS1649106438604,3977.899999976158,NA,NA,32,500,4477.899999976158,images/stimuli/complex_16_A_b.gif,images/stimuli/complex_22_A_b.gif,self_paced,590,NA,NA,NA,trial,NA,complex,0,complex_dissimilar,images/stimuli/complex_22_A_b.gif,NA
NA,html-keyboard-response,33,178599,0.0-13.0-0.5,SS1649106438604,NA,NA,NA,null,NA,NA,NA,NA,NA,NA,NA,"<p><img src= images/blank.png width =""600"" height = ""600"" style=""position:fixed;top:50%; left:50%; transform: translate(-50%, -50%); border:5px solid black"">",NA,NA,NA,NA,NA,NA,NA,NA
NA,stimuli-presentation,34,180663,0.0-13.0-1.5,SS1649106438604,1145.7999999523163,NA,NA,32,500,1645.7999999523165,images/stimuli/complex_16_A_b.gif,images/stimuli/complex_22_A_b.gif,self_paced,590,NA,NA,NA,trial,NA,complex,0,complex_dissimilar,images/stimuli/complex_22_A_b.gif,NA
NA,html-button-response,35,186678,0.0-14.0,SS1649106438604,6011.5,NA,NA,NA,NA,NA,NA,NA,NA,NA,NA,NA,1,memory_test,right,NA,NA,NA,NA,0
NA,instructions,36,189286,0.0-15.0,SS1649106438604,2605.399999976158,NA,NA,NA,NA,NA,NA,NA,NA,NA,"[{""page_index"":0,""viewing_time"":2604.899999976158}]",NA,NA,NA,NA,NA,NA,NA,NA,NA
NA,instructions,37,195935,0.0-16.0,SS1649106438604,6647.399999976158,NA,NA,NA,NA,NA,NA,NA,NA,NA,"[{""page_index"":0,""viewing_time"":6646.5}]",NA,NA,NA,NA,NA,NA,NA,NA,NA
NA,html-keyboard-response,38,196811,0.0-17.0-0.0,SS1649106438604,NA,NA,NA,null,NA,NA,NA,NA,NA,NA,NA,"<p><img src= images/blank.png width =""600"" height = ""600"" style=""position:fixed;top:50%; left:50%; transform: translate(-50%, -50%); border:5px solid black"">",NA,NA,NA,NA,NA,NA,NA,NA
NA,stimuli-presentation,39,198620,0.0-17.0-1.0,SS1649106438604,894.5,NA,NA,32,500,1394.5,images/stimuli/complex_13_A_b.gif,images/stimuli/complex_11_A_a.gif,self_paced,570,NA,NA,NA,trial,NA,complex,1,complex_dissimilar,images/stimuli/complex_11_A_a.gif,NA
NA,html-keyboard-response,40,199842,0.0-17.0-0.1,SS1649106438604,NA,NA,NA,null,NA,NA,NA,NA,NA,NA,NA,"<p><img src= images/blank.png width =""600"" height = ""600"" style=""position:fixed;top:50%; left:50%; transform: translate(-50%, -50%); border:5px solid black"">",NA,NA,NA,NA,NA,NA,NA,NA
NA,stimuli-presentation,41,201100,0.0-17.0-1.1,SS1649106438604,349,NA,NA,32,500,849,images/stimuli/complex_13_A_b.gif,images/stimuli/complex_11_A_a.gif,self_paced,570,NA,NA,NA,trial,NA,complex,1,complex_dissimilar,images/stimuli/complex_11_A_a.gif,NA
NA,html-keyboard-response,42,202276,0.0-17.0-0.2,SS1649106438604,NA,NA,NA,null,NA,NA,NA,NA,NA,NA,NA,"<p><img src= images/blank.png width =""600"" height = ""600"" style=""position:fixed;top:50%; left:50%; transform: translate(-50%, -50%); border:5px solid black"">",NA,NA,NA,NA,NA,NA,NA,NA
NA,stimuli-presentation,43,203428,0.0-17.0-1.2,SS1649106438604,233.79999995231628,NA,NA,32,500,733.7999999523163,images/stimuli/complex_13_A_b.gif,images/stimuli/complex_11_A_a.gif,self_paced,570,NA,NA,NA,trial,NA,complex,1,complex_dissimilar,images/stimuli/complex_11_A_a.gif,NA
NA,html-keyboard-response,44,204697,0.0-17.0-0.3,SS1649106438604,NA,NA,NA,null,NA,NA,NA,NA,NA,NA,NA,"<p><img src= images/blank.png width =""600"" height = ""600"" style=""position:fixed;top:50%; left:50%; transform: translate(-50%, -50%); border:5px solid black"">",NA,NA,NA,NA,NA,NA,NA,NA
NA,stimuli-presentation,45,205954,0.0-17.0-1.3,SS1649106438604,348.8000000715256,NA,NA,32,500,848.8000000715256,images/stimuli/complex_13_A_b.gif,images/stimuli/complex_11_A_a.gif,self_paced,570,NA,NA,NA,trial,NA,complex,1,complex_dissimilar,images/stimuli/complex_11_A_a.gif,NA
NA,html-keyboard-response,46,206817,0.0-17.0-0.4,SS1649106438604,NA,NA,NA,null,NA,NA,NA,NA,NA,NA,NA,"<p><img src= images/blank.png width =""600"" height = ""600"" style=""position:fixed;top:50%; left:50%; transform: translate(-50%, -50%); border:5px solid black"">",NA,NA,NA,NA,NA,NA,NA,NA
NA,stimuli-presentation,47,207935,0.0-17.0-1.4,SS1649106438604,211,NA,NA,32,500,711,images/stimuli/complex_13_A_b.gif,images/stimuli/complex_11_A_a.gif,self_paced,570,NA,NA,NA,trial,NA,complex,1,complex_dissimilar,images/stimuli/complex_11_A_a.gif,NA
NA,html-keyboard-response,48,208817,0.0-17.0-0.5,SS1649106438604,NA,NA,NA,null,NA,NA,NA,NA,NA,NA,NA,"<p><img src= images/blank.png width =""600"" height = ""600"" style=""position:fixed;top:50%; left:50%; transform: translate(-50%, -50%); border:5px solid black"">",NA,NA,NA,NA,NA,NA,NA,NA
NA,stimuli-presentation,49,209932,0.0-17.0-1.5,SS1649106438604,200.5,NA,NA,32,500,700.5,images/stimuli/complex_13_A_b.gif,images/stimuli/complex_11_A_a.gif,self_paced,570,NA,NA,NA,trial,NA,complex,1,complex_dissimilar,images/stimuli/complex_11_A_a.gif,NA
NA,html-button-response,50,214601,0.0-18.0,SS1649106438604,4664.799999952316,NA,NA,NA,NA,NA,NA,NA,NA,NA,NA,NA,1,memory_test,right,NA,NA,NA,NA,1
NA,instructions,51,221479,0.0-19.0,SS1649106438604,6876.300000071526,NA,NA,NA,NA,NA,NA,NA,NA,NA,"[{""page_index"":0,""viewing_time"":6875.900000095367}]",NA,NA,NA,NA,NA,NA,NA,NA,NA
NA,instructions,52,228702,0.0-20.0,SS1649106438604,7219.200000047684,NA,NA,NA,NA,NA,NA,NA,NA,NA,"[{""page_index"":0,""viewing_time"":7218.800000071526}]",NA,NA,NA,NA,NA,NA,NA,NA,NA
NA,html-keyboard-response,53,229929,0.0-21.0-0.0,SS1649106438604,NA,NA,NA,null,NA,NA,NA,NA,NA,NA,NA,"<p><img src= images/blank.png width =""600"" height = ""600"" style=""position:fixed;top:50%; left:50%; transform: translate(-50%, -50%); border:5px solid black"">",NA,NA,NA,NA,NA,NA,NA,NA
NA,stimuli-presentation,54,233979,0.0-21.0-1.0,SS1649106438604,3137.399999976158,NA,NA,32,500,3637.399999976158,images/stimuli/complex_08_A_a.gif,images/stimuli/complex_14_A_b.gif,self_paced,720,NA,NA,NA,trial,NA,complex,2,complex_dissimilar,images/stimuli/complex_14_A_b.gif,NA
NA,html-keyboard-response,55,235099,0.0-21.0-0.1,SS1649106438604,NA,NA,NA,null,NA,NA,NA,NA,NA,NA,NA,"<p><img src= images/blank.png width =""600"" height = ""600"" style=""position:fixed;top:50%; left:50%; transform: translate(-50%, -50%); border:5px solid black"">",NA,NA,NA,NA,NA,NA,NA,NA
NA,stimuli-presentation,56,237476,0.0-21.0-1.1,SS1649106438604,1456.8000000715256,NA,NA,32,500,1956.8000000715256,images/stimuli/complex_08_A_a.gif,images/stimuli/complex_14_A_b.gif,self_paced,720,NA,NA,NA,trial,NA,complex,2,complex_dissimilar,images/stimuli/complex_08_A_a.gif,NA
NA,html-keyboard-response,57,238359,0.0-21.0-0.2,SS1649106438604,NA,NA,NA,null,NA,NA,NA,NA,NA,NA,NA,"<p><img src= images/blank.png width =""600"" height = ""600"" style=""position:fixed;top:50%; left:50%; transform: translate(-50%, -50%); border:5px solid black"">",NA,NA,NA,NA,NA,NA,NA,NA
NA,stimuli-presentation,58,239920,0.0-21.0-1.2,SS1649106438604,651.5999999046326,NA,NA,32,500,1151.5999999046326,images/stimuli/complex_08_A_a.gif,images/stimuli/complex_14_A_b.gif,self_paced,720,NA,NA,NA,trial,NA,complex,2,complex_dissimilar,images/stimuli/complex_14_A_b.gif,NA
NA,html-keyboard-response,59,241142,0.0-21.0-0.3,SS1649106438604,NA,NA,NA,null,NA,NA,NA,NA,NA,NA,NA,"<p><img src= images/blank.png width =""600"" height = ""600"" style=""position:fixed;top:50%; left:50%; transform: translate(-50%, -50%); border:5px solid black"">",NA,NA,NA,NA,NA,NA,NA,NA
NA,stimuli-presentation,60,242217,0.0-21.0-1.3,SS1649106438604,158.79999995231628,NA,NA,32,500,658.7999999523163,images/stimuli/complex_08_A_a.gif,images/stimuli/complex_14_A_b.gif,self_paced,720,NA,NA,NA,trial,NA,complex,2,complex_dissimilar,images/stimuli/complex_14_A_b.gif,NA
NA,html-keyboard-response,61,243082,0.0-21.0-0.4,SS1649106438604,NA,NA,NA,null,NA,NA,NA,NA,NA,NA,NA,"<p><img src= images/blank.png width =""600"" height = ""600"" style=""position:fixed;top:50%; left:50%; transform: translate(-50%, -50%); border:5px solid black"">",NA,NA,NA,NA,NA,NA,NA,NA
NA,stimuli-presentation,62,244379,0.0-21.0-1.4,SS1649106438604,388.10000002384186,NA,NA,32,500,888.1000000238419,images/stimuli/complex_08_A_a.gif,images/stimuli/complex_14_A_b.gif,self_paced,720,NA,NA,NA,trial,NA,complex,2,complex_dissimilar,images/stimuli/complex_14_A_b.gif,NA
NA,html-keyboard-response,63,245449,0.0-21.0-0.5,SS1649106438604,NA,NA,NA,null,NA,NA,NA,NA,NA,NA,NA,"<p><img src= images/blank.png width =""600"" height = ""600"" style=""position:fixed;top:50%; left:50%; transform: translate(-50%, -50%); border:5px solid black"">",NA,NA,NA,NA,NA,NA,NA,NA
NA,stimuli-presentation,64,246609,0.0-21.0-1.5,SS1649106438604,248.60000002384186,NA,NA,32,500,748.6000000238419,images/stimuli/complex_08_A_a.gif,images/stimuli/complex_14_A_b.gif,self_paced,720,NA,NA,NA,trial,NA,complex,2,complex_dissimilar,images/stimuli/complex_14_A_b.gif,NA
NA,html-button-response,65,251191,0.0-22.0,SS1649106438604,4578.300000071526,NA,NA,NA,NA,NA,NA,NA,NA,NA,NA,NA,0,memory_test,left,NA,NA,NA,NA,2
NA,instructions,66,255960,0.0-23.0,SS1649106438604,4765.699999928474,NA,NA,NA,NA,NA,NA,NA,NA,NA,"[{""page_index"":0,""viewing_time"":4765.299999952316}]",NA,NA,NA,NA,NA,NA,NA,NA,NA
NA,instructions,67,265112,0.0-24.0,SS1649106438604,9149,NA,NA,NA,NA,NA,NA,NA,NA,NA,"[{""page_index"":0,""viewing_time"":9148.400000095367}]",NA,NA,NA,NA,NA,NA,NA,NA,NA
NA,html-keyboard-response,68,266269,0.0-25.0-0.0,SS1649106438604,NA,NA,NA,null,NA,NA,NA,NA,NA,NA,NA,"<p><img src= images/blank.png width =""600"" height = ""600"" style=""position:fixed;top:50%; left:50%; transform: translate(-50%, -50%); border:5px solid black"">",NA,NA,NA,NA,NA,NA,NA,NA
NA,stimuli-presentation,69,268917,0.0-25.0-1.0,SS1649106438604,1732.2000000476837,NA,NA,32,500,2232.2000000476837,images/stimuli/complex_15_A_a.gif,images/stimuli/complex_04_A_b.gif,self_paced,480,NA,NA,NA,trial,NA,complex,3,complex_dissimilar,images/stimuli/complex_04_A_b.gif,NA
NA,html-keyboard-response,70,269999,0.0-25.0-0.1,SS1649106438604,NA,NA,NA,null,NA,NA,NA,NA,NA,NA,NA,"<p><img src= images/blank.png width =""600"" height = ""600"" style=""position:fixed;top:50%; left:50%; transform: translate(-50%, -50%); border:5px solid black"">",NA,NA,NA,NA,NA,NA,NA,NA
NA,stimuli-presentation,71,271150,0.0-25.0-1.1,SS1649106438604,242.10000002384186,NA,NA,32,500,742.1000000238419,images/stimuli/complex_15_A_a.gif,images/stimuli/complex_04_A_b.gif,self_paced,480,NA,NA,NA,trial,NA,complex,3,complex_dissimilar,images/stimuli/complex_04_A_b.gif,NA
NA,html-keyboard-response,72,272333,0.0-25.0-0.2,SS1649106438604,NA,NA,NA,null,NA,NA,NA,NA,NA,NA,NA,"<p><img src= images/blank.png width =""600"" height = ""600"" style=""position:fixed;top:50%; left:50%; transform: translate(-50%, -50%); border:5px solid black"">",NA,NA,NA,NA,NA,NA,NA,NA
NA,stimuli-presentation,73,273571,0.0-25.0-1.2,SS1649106438604,316.1999999284744,NA,NA,32,500,816.1999999284744,images/stimuli/complex_15_A_a.gif,images/stimuli/complex_04_A_b.gif,self_paced,480,NA,NA,NA,trial,NA,complex,3,complex_dissimilar,images/stimuli/complex_04_A_b.gif,NA
NA,html-keyboard-response,74,274532,0.0-25.0-0.3,SS1649106438604,NA,NA,NA,null,NA,NA,NA,NA,NA,NA,NA,"<p><img src= images/blank.png width =""600"" height = ""600"" style=""position:fixed;top:50%; left:50%; transform: translate(-50%, -50%); border:5px solid black"">",NA,NA,NA,NA,NA,NA,NA,NA
NA,stimuli-presentation,75,275689,0.0-25.0-1.3,SS1649106438604,247.79999995231628,NA,NA,32,500,747.7999999523163,images/stimuli/complex_15_A_a.gif,images/stimuli/complex_04_A_b.gif,self_paced,480,NA,NA,NA,trial,NA,complex,3,complex_dissimilar,images/stimuli/complex_15_A_a.gif,NA
NA,html-keyboard-response,76,276888,0.0-25.0-0.4,SS1649106438604,NA,NA,NA,null,NA,NA,NA,NA,NA,NA,NA,"<p><img src= images/blank.png width =""600"" height = ""600"" style=""position:fixed;top:50%; left:50%; transform: translate(-50%, -50%); border:5px solid black"">",NA,NA,NA,NA,NA,NA,NA,NA
NA,stimuli-presentation,77,277915,0.0-25.0-1.4,SS1649106438604,113.39999997615814,NA,NA,32,500,613.3999999761581,images/stimuli/complex_15_A_a.gif,images/stimuli/complex_04_A_b.gif,self_paced,480,NA,NA,NA,trial,NA,complex,3,complex_dissimilar,images/stimuli/complex_04_A_b.gif,NA
NA,html-keyboard-response,78,278942,0.0-25.0-0.5,SS1649106438604,NA,NA,NA,null,NA,NA,NA,NA,NA,NA,NA,"<p><img src= images/blank.png width =""600"" height = ""600"" style=""position:fixed;top:50%; left:50%; transform: translate(-50%, -50%); border:5px solid black"">",NA,NA,NA,NA,NA,NA,NA,NA
NA,stimuli-presentation,79,280353,0.0-25.0-1.5,SS1649106438604,495.5,NA,NA,32,500,995.5,images/stimuli/complex_15_A_a.gif,images/stimuli/complex_04_A_b.gif,self_paced,480,NA,NA,NA,trial,NA,complex,3,complex_dissimilar,images/stimuli/complex_04_A_b.gif,NA
NA,html-button-response,80,285553,0.0-26.0,SS1649106438604,5196.899999976158,NA,NA,NA,NA,NA,NA,NA,NA,NA,NA,NA,0,memory_test,left,NA,NA,NA,NA,3
NA,instructions,81,289792,0.0-27.0,SS1649106438604,4235.899999976158,NA,NA,NA,NA,NA,NA,NA,NA,NA,"[{""page_index"":0,""viewing_time"":4235.699999928474}]",NA,NA,NA,NA,NA,NA,NA,NA,NA
NA,instructions,82,298697,0.0-28.0,SS1649106438604,8903.700000047684,NA,NA,NA,NA,NA,NA,NA,NA,NA,"[{""page_index"":0,""viewing_time"":8903.100000023842}]",NA,NA,NA,NA,NA,NA,NA,NA,NA
NA,html-keyboard-response,83,299509,0.0-29.0-0.0,SS1649106438604,NA,NA,NA,null,NA,NA,NA,NA,NA,NA,NA,"<p><img src= images/blank.png width =""600"" height = ""600"" style=""position:fixed;top:50%; left:50%; transform: translate(-50%, -50%); border:5px solid black"">",NA,NA,NA,NA,NA,NA,NA,NA
NA,stimuli-presentation,84,308555,0.0-29.0-1.0,SS1649106438604,8130.900000095367,NA,NA,32,500,8630.900000095367,images/stimuli/complex_17_A_a.gif,images/stimuli/complex_02_A_a.gif,self_paced,630,NA,NA,NA,trial,NA,complex,4,complex_dissimilar,images/stimuli/complex_02_A_a.gif,NA
NA,html-keyboard-response,85,309749,0.0-29.0-0.1,SS1649106438604,NA,NA,NA,null,NA,NA,NA,NA,NA,NA,NA,"<p><img src= images/blank.png width =""600"" height = ""600"" style=""position:fixed;top:50%; left:50%; transform: translate(-50%, -50%); border:5px solid black"">",NA,NA,NA,NA,NA,NA,NA,NA
NA,stimuli-presentation,86,311000,0.0-29.0-1.1,SS1649106438604,335.10000002384186,NA,NA,32,500,835.1000000238419,images/stimuli/complex_17_A_a.gif,images/stimuli/complex_02_A_a.gif,self_paced,630,NA,NA,NA,trial,NA,complex,4,complex_dissimilar,images/stimuli/complex_02_A_a.gif,NA
NA,html-keyboard-response,87,312277,0.0-29.0-0.2,SS1649106438604,NA,NA,NA,null,NA,NA,NA,NA,NA,NA,NA,"<p><img src= images/blank.png width =""600"" height = ""600"" style=""position:fixed;top:50%; left:50%; transform: translate(-50%, -50%); border:5px solid black"">",NA,NA,NA,NA,NA,NA,NA,NA
NA,stimuli-presentation,88,313309,0.0-29.0-1.2,SS1649106438604,121.5,NA,NA,32,500,621.5,images/stimuli/complex_17_A_a.gif,images/stimuli/complex_02_A_a.gif,self_paced,630,NA,NA,NA,trial,NA,complex,4,complex_dissimilar,images/stimuli/complex_02_A_a.gif,NA
NA,html-keyboard-response,89,314528,0.0-29.0-0.3,SS1649106438604,NA,NA,NA,null,NA,NA,NA,NA,NA,NA,NA,"<p><img src= images/blank.png width =""600"" height = ""600"" style=""position:fixed;top:50%; left:50%; transform: translate(-50%, -50%); border:5px solid black"">",NA,NA,NA,NA,NA,NA,NA,NA
NA,stimuli-presentation,90,315642,0.0-29.0-1.3,SS1649106438604,204.69999992847443,NA,NA,32,500,704.6999999284744,images/stimuli/complex_17_A_a.gif,images/stimuli/complex_02_A_a.gif,self_paced,630,NA,NA,NA,trial,NA,complex,4,complex_dissimilar,images/stimuli/complex_02_A_a.gif,NA
NA,html-keyboard-response,91,316922,0.0-29.0-0.4,SS1649106438604,NA,NA,NA,null,NA,NA,NA,NA,NA,NA,NA,"<p><img src= images/blank.png width =""600"" height = ""600"" style=""position:fixed;top:50%; left:50%; transform: translate(-50%, -50%); border:5px solid black"">",NA,NA,NA,NA,NA,NA,NA,NA
NA,stimuli-presentation,92,318075,0.0-29.0-1.4,SS1649106438604,237.10000002384186,NA,NA,32,500,737.1000000238419,images/stimuli/complex_17_A_a.gif,images/stimuli/complex_02_A_a.gif,self_paced,630,NA,NA,NA,trial,NA,complex,4,complex_dissimilar,images/stimuli/complex_02_A_a.gif,NA
NA,html-keyboard-response,93,318960,0.0-29.0-0.5,SS1649106438604,NA,NA,NA,null,NA,NA,NA,NA,NA,NA,NA,"<p><img src= images/blank.png width =""600"" height = ""600"" style=""position:fixed;top:50%; left:50%; transform: translate(-50%, -50%); border:5px solid black"">",NA,NA,NA,NA,NA,NA,NA,NA
NA,stimuli-presentation,94,320067,0.0-29.0-1.5,SS1649106438604,196.10000002384186,NA,NA,32,500,696.1000000238419,images/stimuli/complex_17_A_a.gif,images/stimuli/complex_02_A_a.gif,self_paced,630,NA,NA,NA,trial,NA,complex,4,complex_dissimilar,images/stimuli/complex_02_A_a.gif,NA
NA,html-button-response,95,325973,0.0-30.0,SS1649106438604,5901.699999928474,NA,NA,NA,NA,NA,NA,NA,NA,NA,NA,NA,1,memory_test,right,NA,NA,NA,NA,4
NA,instructions,96,329890,0.0-31.0,SS1649106438604,3913.399999976158,NA,NA,NA,NA,NA,NA,NA,NA,NA,"[{""page_index"":0,""viewing_time"":3913.2000000476837}]",NA,NA,NA,NA,NA,NA,NA,NA,NA
NA,instructions,97,346118,0.0-32.0,SS1649106438604,16224.600000023842,NA,NA,NA,NA,NA,NA,NA,NA,NA,"[{""page_index"":0,""viewing_time"":16224.299999952316}]",NA,NA,NA,NA,NA,NA,NA,NA,NA
NA,html-keyboard-response,98,347247,0.0-33.0-0.0,SS1649106438604,NA,NA,NA,null,NA,NA,NA,NA,NA,NA,NA,"<p><img src= images/blank.png width =""600"" height = ""600"" style=""position:fixed;top:50%; left:50%; transform: translate(-50%, -50%); border:5px solid black"">",NA,NA,NA,NA,NA,NA,NA,NA
NA,stimuli-presentation,99,349445,0.0-33.0-1.0,SS1649106438604,1284.6000000238419,NA,NA,32,500,1784.600000023842,images/stimuli/complex_07_A_a.gif,images/stimuli/complex_24_A_a.gif,self_paced,850,NA,NA,NA,trial,NA,complex,5,complex_dissimilar,images/stimuli/complex_24_A_a.gif,NA
NA,html-keyboard-response,100,350350,0.0-33.0-0.1,SS1649106438604,NA,NA,NA,null,NA,NA,NA,NA,NA,NA,NA,"<p><img src= images/blank.png width =""600"" height = ""600"" style=""position:fixed;top:50%; left:50%; transform: translate(-50%, -50%); border:5px solid black"">",NA,NA,NA,NA,NA,NA,NA,NA
NA,stimuli-presentation,101,352560,0.0-33.0-1.1,SS1649106438604,1299.8999999761581,NA,NA,32,500,1799.899999976158,images/stimuli/complex_07_A_a.gif,images/stimuli/complex_24_A_a.gif,self_paced,850,NA,NA,NA,trial,NA,complex,5,complex_dissimilar,images/stimuli/complex_07_A_a.gif,NA
NA,html-keyboard-response,102,353853,0.0-33.0-0.2,SS1649106438604,NA,NA,NA,null,NA,NA,NA,NA,NA,NA,NA,"<p><img src= images/blank.png width =""600"" height = ""600"" style=""position:fixed;top:50%; left:50%; transform: translate(-50%, -50%); border:5px solid black"">",NA,NA,NA,NA,NA,NA,NA,NA
NA,stimuli-presentation,103,355409,0.0-33.0-1.2,SS1649106438604,638.8000000715256,NA,NA,32,500,1138.8000000715256,images/stimuli/complex_07_A_a.gif,images/stimuli/complex_24_A_a.gif,self_paced,850,NA,NA,NA,trial,NA,complex,5,complex_dissimilar,images/stimuli/complex_24_A_a.gif,NA
NA,html-keyboard-response,104,356712,0.0-33.0-0.3,SS1649106438604,NA,NA,NA,null,NA,NA,NA,NA,NA,NA,NA,"<p><img src= images/blank.png width =""600"" height = ""600"" style=""position:fixed;top:50%; left:50%; transform: translate(-50%, -50%); border:5px solid black"">",NA,NA,NA,NA,NA,NA,NA,NA
NA,stimuli-presentation,105,357829,0.0-33.0-1.3,SS1649106438604,210.10000002384186,NA,NA,32,500,710.1000000238419,images/stimuli/complex_07_A_a.gif,images/stimuli/complex_24_A_a.gif,self_paced,850,NA,NA,NA,trial,NA,complex,5,complex_dissimilar,images/stimuli/complex_24_A_a.gif,NA
NA,html-keyboard-response,106,358930,0.0-33.0-0.4,SS1649106438604,NA,NA,NA,null,NA,NA,NA,NA,NA,NA,NA,"<p><img src= images/blank.png width =""600"" height = ""600"" style=""position:fixed;top:50%; left:50%; transform: translate(-50%, -50%); border:5px solid black"">",NA,NA,NA,NA,NA,NA,NA,NA
NA,stimuli-presentation,107,359995,0.0-33.0-1.4,SS1649106438604,146.19999992847443,NA,NA,32,500,646.1999999284744,images/stimuli/complex_07_A_a.gif,images/stimuli/complex_24_A_a.gif,self_paced,850,NA,NA,NA,trial,NA,complex,5,complex_dissimilar,images/stimuli/complex_24_A_a.gif,NA
NA,html-keyboard-response,108,361022,0.0-33.0-0.5,SS1649106438604,NA,NA,NA,null,NA,NA,NA,NA,NA,NA,NA,"<p><img src= images/blank.png width =""600"" height = ""600"" style=""position:fixed;top:50%; left:50%; transform: translate(-50%, -50%); border:5px solid black"">",NA,NA,NA,NA,NA,NA,NA,NA
NA,stimuli-presentation,109,363104,0.0-33.0-1.5,SS1649106438604,1176,NA,NA,32,500,1676,images/stimuli/complex_07_A_a.gif,images/stimuli/complex_24_A_a.gif,self_paced,850,NA,NA,NA,trial,NA,complex,5,complex_dissimilar,images/stimuli/complex_24_A_a.gif,NA
NA,html-button-response,110,367328,0.0-34.0,SS1649106438604,4220,NA,NA,NA,NA,NA,NA,NA,NA,NA,NA,NA,1,memory_test,right,NA,NA,NA,NA,5
NA,instructions,111,370140,0.0-35.0,SS1649106438604,2808.5999999046326,NA,NA,NA,NA,NA,NA,NA,NA,NA,"[{""page_index"":0,""viewing_time"":2808.1999999284744}]",NA,NA,NA,NA,NA,NA,NA,NA,NA
NA,instructions,112,378823,0.0-36.0,SS1649106438604,8680.200000047684,NA,NA,NA,NA,NA,NA,NA,NA,NA,"[{""page_index"":0,""viewing_time"":8679.700000047684}]",NA,NA,NA,NA,NA,NA,NA,NA,NA
NA,html-keyboard-response,113,379714,0.0-37.0-0.0,SS1649106438604,NA,NA,NA,null,NA,NA,NA,NA,NA,NA,NA,"<p><img src= images/blank.png width =""600"" height = ""600"" style=""position:fixed;top:50%; left:50%; transform: translate(-50%, -50%); border:5px solid black"">",NA,NA,NA,NA,NA,NA,NA,NA
NA,stimuli-presentation,114,381693,0.0-37.0-1.0,SS1649106438604,1062.7000000476837,NA,NA,32,500,1562.7000000476835,images/stimuli/complex_09_A_a.gif,images/stimuli/complex_12_A_b.gif,self_paced,290,NA,NA,NA,trial,NA,complex,6,complex_dissimilar,images/stimuli/complex_12_A_b.gif,NA
NA,html-keyboard-response,115,382669,0.0-37.0-0.1,SS1649106438604,NA,NA,NA,null,NA,NA,NA,NA,NA,NA,NA,"<p><img src= images/blank.png width =""600"" height = ""600"" style=""position:fixed;top:50%; left:50%; transform: translate(-50%, -50%); border:5px solid black"">",NA,NA,NA,NA,NA,NA,NA,NA
NA,stimuli-presentation,116,383718,0.0-37.0-1.1,SS1649106438604,140,NA,NA,32,500,640,images/stimuli/complex_09_A_a.gif,images/stimuli/complex_12_A_b.gif,self_paced,290,NA,NA,NA,trial,NA,complex,6,complex_dissimilar,images/stimuli/complex_12_A_b.gif,NA
NA,html-keyboard-response,117,384804,0.0-37.0-0.2,SS1649106438604,NA,NA,NA,null,NA,NA,NA,NA,NA,NA,NA,"<p><img src= images/blank.png width =""600"" height = ""600"" style=""position:fixed;top:50%; left:50%; transform: translate(-50%, -50%); border:5px solid black"">",NA,NA,NA,NA,NA,NA,NA,NA
NA,stimuli-presentation,118,386803,0.0-37.0-1.2,SS1649106438604,1084.1999999284744,NA,NA,32,500,1584.1999999284744,images/stimuli/complex_09_A_a.gif,images/stimuli/complex_12_A_b.gif,self_paced,290,NA,NA,NA,trial,NA,complex,6,complex_dissimilar,images/stimuli/complex_12_A_b.gif,NA
NA,html-keyboard-response,119,387798,0.0-37.0-0.3,SS1649106438604,NA,NA,NA,null,NA,NA,NA,NA,NA,NA,NA,"<p><img src= images/blank.png width =""600"" height = ""600"" style=""position:fixed;top:50%; left:50%; transform: translate(-50%, -50%); border:5px solid black"">",NA,NA,NA,NA,NA,NA,NA,NA
NA,stimuli-presentation,120,388765,0.0-37.0-1.3,SS1649106438604,54.700000047683716,NA,NA,32,500,554.7000000476837,images/stimuli/complex_09_A_a.gif,images/stimuli/complex_12_A_b.gif,self_paced,290,NA,NA,NA,trial,NA,complex,6,complex_dissimilar,images/stimuli/complex_12_A_b.gif,NA
NA,html-keyboard-response,121,389785,0.0-37.0-0.4,SS1649106438604,NA,NA,NA,null,NA,NA,NA,NA,NA,NA,NA,"<p><img src= images/blank.png width =""600"" height = ""600"" style=""position:fixed;top:50%; left:50%; transform: translate(-50%, -50%); border:5px solid black"">",NA,NA,NA,NA,NA,NA,NA,NA
NA,stimuli-presentation,122,391232,0.0-37.0-1.4,SS1649106438604,538.5999999046326,NA,NA,32,500,1038.5999999046326,images/stimuli/complex_09_A_a.gif,images/stimuli/complex_12_A_b.gif,self_paced,290,NA,NA,NA,trial,NA,complex,6,complex_dissimilar,images/stimuli/complex_12_A_b.gif,NA
NA,html-keyboard-response,123,392233,0.0-37.0-0.5,SS1649106438604,NA,NA,NA,null,NA,NA,NA,NA,NA,NA,NA,"<p><img src= images/blank.png width =""600"" height = ""600"" style=""position:fixed;top:50%; left:50%; transform: translate(-50%, -50%); border:5px solid black"">",NA,NA,NA,NA,NA,NA,NA,NA
NA,stimuli-presentation,124,394398,0.0-37.0-1.5,SS1649106438604,1250.8999999761581,NA,NA,32,500,1750.899999976158,images/stimuli/complex_09_A_a.gif,images/stimuli/complex_12_A_b.gif,self_paced,290,NA,NA,NA,trial,NA,complex,6,complex_dissimilar,images/stimuli/complex_09_A_a.gif,NA
NA,html-button-response,125,398336,0.0-38.0,SS1649106438604,3933.7999999523163,NA,NA,NA,NA,NA,NA,NA,NA,NA,NA,NA,1,memory_test,right,NA,NA,NA,NA,6
NA,instructions,126,403437,0.0-39.0,SS1649106438604,5098.599999904633,NA,NA,NA,NA,NA,NA,NA,NA,NA,"[{""page_index"":0,""viewing_time"":5098}]",NA,NA,NA,NA,NA,NA,NA,NA,NA
NA,instructions,127,420137,0.0-40.0,SS1649106438604,16695.800000071526,NA,NA,NA,NA,NA,NA,NA,NA,NA,"[{""page_index"":0,""viewing_time"":16695.399999976158}]",NA,NA,NA,NA,NA,NA,NA,NA,NA
NA,html-keyboard-response,128,421353,0.0-41.0-0.0,SS1649106438604,NA,NA,NA,null,NA,NA,NA,NA,NA,NA,NA,"<p><img src= images/blank.png width =""600"" height = ""600"" style=""position:fixed;top:50%; left:50%; transform: translate(-50%, -50%); border:5px solid black"">",NA,NA,NA,NA,NA,NA,NA,NA
NA,stimuli-presentation,129,423554,0.0-41.0-1.0,SS1649106438604,1290.2999999523163,NA,NA,32,500,1790.2999999523165,images/stimuli/complex_21_A_b.gif,images/stimuli/complex_18_A_b.gif,self_paced,990,NA,NA,NA,trial,NA,complex,7,complex_dissimilar,images/stimuli/complex_18_A_b.gif,NA
NA,html-keyboard-response,130,424624,0.0-41.0-0.1,SS1649106438604,NA,NA,NA,null,NA,NA,NA,NA,NA,NA,NA,"<p><img src= images/blank.png width =""600"" height = ""600"" style=""position:fixed;top:50%; left:50%; transform: translate(-50%, -50%); border:5px solid black"">",NA,NA,NA,NA,NA,NA,NA,NA
NA,stimuli-presentation,131,426037,0.0-41.0-1.1,SS1649106438604,506.60000002384186,NA,NA,32,500,1006.600000023842,images/stimuli/complex_21_A_b.gif,images/stimuli/complex_18_A_b.gif,self_paced,990,NA,NA,NA,trial,NA,complex,7,complex_dissimilar,images/stimuli/complex_18_A_b.gif,NA
NA,html-keyboard-response,132,427187,0.0-41.0-0.2,SS1649106438604,NA,NA,NA,null,NA,NA,NA,NA,NA,NA,NA,"<p><img src= images/blank.png width =""600"" height = ""600"" style=""position:fixed;top:50%; left:50%; transform: translate(-50%, -50%); border:5px solid black"">",NA,NA,NA,NA,NA,NA,NA,NA
NA,stimuli-presentation,133,428152,0.0-41.0-1.2,SS1649106438604,54.700000047683716,NA,NA,32,500,554.7000000476837,images/stimuli/complex_21_A_b.gif,images/stimuli/complex_18_A_b.gif,self_paced,990,NA,NA,NA,trial,NA,complex,7,complex_dissimilar,images/stimuli/complex_18_A_b.gif,NA
NA,html-keyboard-response,134,428963,0.0-41.0-0.3,SS1649106438604,NA,NA,NA,null,NA,NA,NA,NA,NA,NA,NA,"<p><img src= images/blank.png width =""600"" height = ""600"" style=""position:fixed;top:50%; left:50%; transform: translate(-50%, -50%); border:5px solid black"">",NA,NA,NA,NA,NA,NA,NA,NA
NA,stimuli-presentation,135,430061,0.0-41.0-1.3,SS1649106438604,191,NA,NA,32,500,691,images/stimuli/complex_21_A_b.gif,images/stimuli/complex_18_A_b.gif,self_paced,990,NA,NA,NA,trial,NA,complex,7,complex_dissimilar,images/stimuli/complex_18_A_b.gif,NA
NA,html-keyboard-response,136,431342,0.0-41.0-0.4,SS1649106438604,NA,NA,NA,null,NA,NA,NA,NA,NA,NA,NA,"<p><img src= images/blank.png width =""600"" height = ""600"" style=""position:fixed;top:50%; left:50%; transform: translate(-50%, -50%); border:5px solid black"">",NA,NA,NA,NA,NA,NA,NA,NA
NA,stimuli-presentation,137,433018,0.0-41.0-1.4,SS1649106438604,769.2999999523163,NA,NA,32,500,1269.2999999523165,images/stimuli/complex_21_A_b.gif,images/stimuli/complex_18_A_b.gif,self_paced,990,NA,NA,NA,trial,NA,complex,7,complex_dissimilar,images/stimuli/complex_18_A_b.gif,NA
NA,html-keyboard-response,138,433936,0.0-41.0-0.5,SS1649106438604,NA,NA,NA,null,NA,NA,NA,NA,NA,NA,NA,"<p><img src= images/blank.png width =""600"" height = ""600"" style=""position:fixed;top:50%; left:50%; transform: translate(-50%, -50%); border:5px solid black"">",NA,NA,NA,NA,NA,NA,NA,NA
NA,stimuli-presentation,139,435901,0.0-41.0-1.5,SS1649106438604,1056.2000000476837,NA,NA,32,500,1556.2000000476835,images/stimuli/complex_21_A_b.gif,images/stimuli/complex_18_A_b.gif,self_paced,990,NA,NA,NA,trial,NA,complex,7,complex_dissimilar,images/stimuli/complex_21_A_b.gif,NA
NA,html-button-response,140,442020,0.0-42.0,SS1649106438604,6116.699999928474,NA,NA,NA,NA,NA,NA,NA,NA,NA,NA,NA,0,memory_test,left,NA,NA,NA,NA,7
NA,instructions,141,445356,0.0-43.0,SS1649106438604,3333.399999976158,NA,NA,NA,NA,NA,NA,NA,NA,NA,"[{""page_index"":0,""viewing_time"":3333.1999999284744}]",NA,NA,NA,NA,NA,NA,NA,NA,NA
NA,instructions,142,486342,0.0-44.0,SS1649106438604,40984.60000002384,NA,NA,NA,NA,NA,NA,NA,NA,NA,"[{""page_index"":0,""viewing_time"":40984.39999997616}]",NA,NA,NA,NA,NA,NA,NA,NA,NA
TRUE,fullscreen,143,487348,0.0-45.0,SS1649106438604,NA,NA,NA,NA,NA,NA,NA,NA,NA,NA,NA,NA,NA,NA,NA,NA,NA,NA,NA,NA
TRUE,fullscreen,0,1981,0.0-0.0,SS1649107163440,NA,NA,NA,NA,NA,NA,NA,NA,NA,NA,NA,NA,NA,NA,NA,NA,NA,NA,NA,NA
NA,demog-age,1,5304,0.0-1.0,SS1649107163440,3316.600000023842,"{""subject_id"":""03""}",NA,NA,NA,NA,NA,NA,NA,NA,NA,NA,NA,NA,NA,NA,NA,NA,NA,NA
NA,stimuli-presentation,2,20107,0.0-2.0,SS1649107163440,13881.399999976158,NA,NA,32,500,14381.399999976158,null,null,self_paced,0,NA,NA,NA,NA,NA,NA,NA,NA,NA,NA
NA,instructions,3,26059,0.0-3.0,SS1649107163440,5949.600000023842,NA,NA,NA,NA,NA,NA,NA,NA,NA,"[{""page_index"":0,""viewing_time"":5948.5}]",NA,NA,NA,NA,NA,NA,NA,NA,NA
NA,stimuli-presentation,4,41467,0.0-4.0,SS1649107163440,14493.899999976158,NA,NA,32,500,14993.899999976158,null,null,self_paced,0,NA,NA,NA,NA,NA,NA,NA,NA,NA,NA
NA,instructions,5,44690,0.0-5.0,SS1649107163440,3221.1999999284744,NA,NA,NA,NA,NA,NA,NA,NA,NA,"[{""page_index"":0,""viewing_time"":3220.6999999284744}]",NA,NA,NA,NA,NA,NA,NA,NA,NA
NA,instructions,6,61734,0.0-6.0,SS1649107163440,17042.600000023842,NA,NA,NA,NA,NA,NA,NA,NA,NA,"[{""page_index"":0,""viewing_time"":17042.100000023842}]",NA,NA,NA,NA,NA,NA,NA,NA,NA
NA,html-keyboard-response,7,62645,0.0-7.0-0.0,SS1649107163440,NA,NA,NA,null,NA,NA,NA,NA,NA,NA,NA,"<p><img src= images/blank.png width =""600"" height = ""600"" style=""position:fixed;top:50%; left:50%; transform: translate(-50%, -50%); border:5px solid black"">",NA,NA,NA,NA,NA,NA,NA,NA
NA,stimuli-presentation,8,103903,0.0-7.0-1.0,SS1649107163440,40340.5,NA,NA,32,500,40840.5,images/stimuli/complex_17_A_a.gif,images/stimuli/complex_02_A_a.gif,self_paced,820,NA,NA,NA,NA,NA,NA,NA,NA,NA,NA
NA,html-keyboard-response,9,105185,0.0-7.0-0.1,SS1649107163440,NA,NA,NA,null,NA,NA,NA,NA,NA,NA,NA,"<p><img src= images/blank.png width =""600"" height = ""600"" style=""position:fixed;top:50%; left:50%; transform: translate(-50%, -50%); border:5px solid black"">",NA,NA,NA,NA,NA,NA,NA,NA
NA,stimuli-presentation,10,109812,0.0-7.0-1.1,SS1649107163440,3716.7000000476837,NA,NA,32,500,4216.700000047684,images/stimuli/complex_17_A_a.gif,images/stimuli/complex_02_A_a.gif,self_paced,820,NA,NA,NA,NA,NA,NA,NA,NA,NA,NA
NA,html-keyboard-response,11,111047,0.0-7.0-0.2,SS1649107163440,NA,NA,NA,null,NA,NA,NA,NA,NA,NA,NA,"<p><img src= images/blank.png width =""600"" height = ""600"" style=""position:fixed;top:50%; left:50%; transform: translate(-50%, -50%); border:5px solid black"">",NA,NA,NA,NA,NA,NA,NA,NA
NA,stimuli-presentation,12,112172,0.0-7.0-1.2,SS1649107163440,204.19999992847443,NA,NA,32,500,704.1999999284744,images/stimuli/complex_17_A_a.gif,images/stimuli/complex_02_A_a.gif,self_paced,820,NA,NA,NA,NA,NA,NA,NA,NA,NA,NA
NA,html-button-response,13,124867,0.0-8.0,SS1649107163440,12692.700000047684,NA,NA,NA,NA,NA,NA,NA,NA,NA,NA,NA,0,memory_practice,left,NA,NA,NA,NA,NA
NA,html-keyboard-response,14,125750,0.0-9.0-0.0,SS1649107163440,NA,NA,NA,null,NA,NA,NA,NA,NA,NA,NA,"<p><img src= images/blank.png width =""600"" height = ""600"" style=""position:fixed;top:50%; left:50%; transform: translate(-50%, -50%); border:5px solid black"">",NA,NA,NA,NA,NA,NA,NA,NA
NA,stimuli-presentation,15,132568,0.0-9.0-1.0,SS1649107163440,5909.5,NA,NA,32,500,6409.5,images/stimuli/complex_17_A_a.gif,images/stimuli/complex_02_A_a.gif,self_paced,210,NA,NA,NA,NA,NA,NA,NA,NA,NA,NA
NA,html-keyboard-response,16,133652,0.0-9.0-0.1,SS1649107163440,NA,NA,NA,null,NA,NA,NA,NA,NA,NA,NA,"<p><img src= images/blank.png width =""600"" height = ""600"" style=""position:fixed;top:50%; left:50%; transform: translate(-50%, -50%); border:5px solid black"">",NA,NA,NA,NA,NA,NA,NA,NA
NA,stimuli-presentation,17,137529,0.0-9.0-1.1,SS1649107163440,2958.399999976158,NA,NA,32,500,3458.399999976158,images/stimuli/complex_17_A_a.gif,images/stimuli/complex_02_A_a.gif,self_paced,210,NA,NA,NA,NA,NA,NA,NA,NA,NA,NA
NA,html-keyboard-response,18,138390,0.0-9.0-0.2,SS1649107163440,NA,NA,NA,null,NA,NA,NA,NA,NA,NA,NA,"<p><img src= images/blank.png width =""600"" height = ""600"" style=""position:fixed;top:50%; left:50%; transform: translate(-50%, -50%); border:5px solid black"">",NA,NA,NA,NA,NA,NA,NA,NA
NA,stimuli-presentation,19,140138,0.0-9.0-1.2,SS1649107163440,837.1000000238419,NA,NA,32,500,1337.100000023842,images/stimuli/complex_17_A_a.gif,images/stimuli/complex_02_A_a.gif,self_paced,210,NA,NA,NA,NA,NA,NA,NA,NA,NA,NA
NA,html-button-response,20,144395,0.0-10.0,SS1649107163440,4254.100000023842,NA,NA,NA,NA,NA,NA,NA,NA,NA,NA,NA,1,memory_practice,right,NA,NA,NA,NA,NA
NA,instructions,21,178292,0.0-11.0,SS1649107163440,33895.89999997616,NA,NA,NA,NA,NA,NA,NA,NA,NA,"[{""page_index"":0,""viewing_time"":33895.300000071526}]",NA,NA,NA,NA,NA,NA,NA,NA,NA
NA,stimuli-presentation,22,181626,0.0-12.0,SS1649107163440,2418,NA,NA,32,500,2918,null,null,self_paced,0,NA,NA,NA,NA,NA,NA,NA,NA,NA,NA
NA,html-keyboard-response,23,182922,0.0-13.0-0.0,SS1649107163440,NA,NA,NA,null,NA,NA,NA,NA,NA,NA,NA,"<p><img src= images/blank.png width =""600"" height = ""600"" style=""position:fixed;top:50%; left:50%; transform: translate(-50%, -50%); border:5px solid black"">",NA,NA,NA,NA,NA,NA,NA,NA
NA,stimuli-presentation,24,194689,0.0-13.0-1.0,SS1649107163440,10855.799999952316,NA,NA,32,500,11355.799999952316,images/stimuli/complex_06_A_b.gif,images/stimuli/complex_20_A_a.gif,self_paced,110,NA,NA,NA,trial,NA,complex,0,complex_dissimilar,images/stimuli/complex_20_A_a.gif,NA
NA,html-keyboard-response,25,195549,0.0-13.0-0.1,SS1649107163440,NA,NA,NA,null,NA,NA,NA,NA,NA,NA,NA,"<p><img src= images/blank.png width =""600"" height = ""600"" style=""position:fixed;top:50%; left:50%; transform: translate(-50%, -50%); border:5px solid black"">",NA,NA,NA,NA,NA,NA,NA,NA
NA,stimuli-presentation,26,197420,0.0-13.0-1.1,SS1649107163440,959.1999999284744,NA,NA,32,500,1459.1999999284744,images/stimuli/complex_06_A_b.gif,images/stimuli/complex_20_A_a.gif,self_paced,110,NA,NA,NA,trial,NA,complex,0,complex_dissimilar,images/stimuli/complex_20_A_a.gif,NA
NA,html-keyboard-response,27,198378,0.0-13.0-0.2,SS1649107163440,NA,NA,NA,null,NA,NA,NA,NA,NA,NA,NA,"<p><img src= images/blank.png width =""600"" height = ""600"" style=""position:fixed;top:50%; left:50%; transform: translate(-50%, -50%); border:5px solid black"">",NA,NA,NA,NA,NA,NA,NA,NA
NA,stimuli-presentation,28,199644,0.0-13.0-1.2,SS1649107163440,357.89999997615814,NA,NA,32,500,857.8999999761581,images/stimuli/complex_06_A_b.gif,images/stimuli/complex_20_A_a.gif,self_paced,110,NA,NA,NA,trial,NA,complex,0,complex_dissimilar,images/stimuli/complex_20_A_a.gif,NA
NA,html-keyboard-response,29,200554,0.0-13.0-0.3,SS1649107163440,NA,NA,NA,null,NA,NA,NA,NA,NA,NA,NA,"<p><img src= images/blank.png width =""600"" height = ""600"" style=""position:fixed;top:50%; left:50%; transform: translate(-50%, -50%); border:5px solid black"">",NA,NA,NA,NA,NA,NA,NA,NA
NA,stimuli-presentation,30,203195,0.0-13.0-1.3,SS1649107163440,1732.6000000238419,NA,NA,32,500,2232.600000023842,images/stimuli/complex_06_A_b.gif,images/stimuli/complex_20_A_a.gif,self_paced,110,NA,NA,NA,trial,NA,complex,0,complex_dissimilar,images/stimuli/complex_06_A_b.gif,NA
NA,html-keyboard-response,31,204036,0.0-13.0-0.4,SS1649107163440,NA,NA,NA,null,NA,NA,NA,NA,NA,NA,NA,"<p><img src= images/blank.png width =""600"" height = ""600"" style=""position:fixed;top:50%; left:50%; transform: translate(-50%, -50%); border:5px solid black"">",NA,NA,NA,NA,NA,NA,NA,NA
NA,stimuli-presentation,32,207920,0.0-13.0-1.4,SS1649107163440,2978.100000023842,NA,NA,32,500,3478.100000023842,images/stimuli/complex_06_A_b.gif,images/stimuli/complex_20_A_a.gif,self_paced,110,NA,NA,NA,trial,NA,complex,0,complex_dissimilar,images/stimuli/complex_20_A_a.gif,NA
NA,html-keyboard-response,33,208910,0.0-13.0-0.5,SS1649107163440,NA,NA,NA,null,NA,NA,NA,NA,NA,NA,NA,"<p><img src= images/blank.png width =""600"" height = ""600"" style=""position:fixed;top:50%; left:50%; transform: translate(-50%, -50%); border:5px solid black"">",NA,NA,NA,NA,NA,NA,NA,NA
NA,stimuli-presentation,34,211068,0.0-13.0-1.5,SS1649107163440,1236.4000000953674,NA,NA,32,500,1736.4000000953674,images/stimuli/complex_06_A_b.gif,images/stimuli/complex_20_A_a.gif,self_paced,110,NA,NA,NA,trial,NA,complex,0,complex_dissimilar,images/stimuli/complex_20_A_a.gif,NA
NA,html-button-response,35,214903,0.0-14.0,SS1649107163440,3836.100000023842,NA,NA,NA,NA,NA,NA,NA,NA,NA,NA,NA,1,memory_test,right,NA,NA,NA,NA,0
NA,instructions,36,217243,0.0-15.0,SS1649107163440,2338.899999976158,NA,NA,NA,NA,NA,NA,NA,NA,NA,"[{""page_index"":0,""viewing_time"":2338.399999976158}]",NA,NA,NA,NA,NA,NA,NA,NA,NA
NA,instructions,37,223787,0.0-16.0,SS1649107163440,6545.5,NA,NA,NA,NA,NA,NA,NA,NA,NA,"[{""page_index"":0,""viewing_time"":6544.799999952316}]",NA,NA,NA,NA,NA,NA,NA,NA,NA
NA,html-keyboard-response,38,224771,0.0-17.0-0.0,SS1649107163440,NA,NA,NA,null,NA,NA,NA,NA,NA,NA,NA,"<p><img src= images/blank.png width =""600"" height = ""600"" style=""position:fixed;top:50%; left:50%; transform: translate(-50%, -50%); border:5px solid black"">",NA,NA,NA,NA,NA,NA,NA,NA
NA,stimuli-presentation,39,228759,0.0-17.0-1.0,SS1649107163440,3069,NA,NA,32,500,3569,images/stimuli/complex_19_A_a.gif,images/stimuli/complex_11_A_b.gif,self_paced,760,NA,NA,NA,trial,NA,complex,1,complex_dissimilar,images/stimuli/complex_11_A_b.gif,NA
NA,html-keyboard-response,40,229852,0.0-17.0-0.1,SS1649107163440,NA,NA,NA,null,NA,NA,NA,NA,NA,NA,NA,"<p><img src= images/blank.png width =""600"" height = ""600"" style=""position:fixed;top:50%; left:50%; transform: translate(-50%, -50%); border:5px solid black"">",NA,NA,NA,NA,NA,NA,NA,NA
NA,stimuli-presentation,41,235051,0.0-17.0-1.1,SS1649107163440,4280.300000071526,NA,NA,32,500,4780.300000071526,images/stimuli/complex_19_A_a.gif,images/stimuli/complex_11_A_b.gif,self_paced,760,NA,NA,NA,trial,NA,complex,1,complex_dissimilar,images/stimuli/complex_19_A_a.gif,NA
NA,html-keyboard-response,42,235946,0.0-17.0-0.2,SS1649107163440,NA,NA,NA,null,NA,NA,NA,NA,NA,NA,NA,"<p><img src= images/blank.png width =""600"" height = ""600"" style=""position:fixed;top:50%; left:50%; transform: translate(-50%, -50%); border:5px solid black"">",NA,NA,NA,NA,NA,NA,NA,NA
NA,stimuli-presentation,43,237999,0.0-17.0-1.2,SS1649107163440,1131.6999999284744,NA,NA,32,500,1631.6999999284744,images/stimuli/complex_19_A_a.gif,images/stimuli/complex_11_A_b.gif,self_paced,760,NA,NA,NA,trial,NA,complex,1,complex_dissimilar,images/stimuli/complex_11_A_b.gif,NA
NA,html-keyboard-response,44,239050,0.0-17.0-0.3,SS1649107163440,NA,NA,NA,null,NA,NA,NA,NA,NA,NA,NA,"<p><img src= images/blank.png width =""600"" height = ""600"" style=""position:fixed;top:50%; left:50%; transform: translate(-50%, -50%); border:5px solid black"">",NA,NA,NA,NA,NA,NA,NA,NA
NA,stimuli-presentation,45,241368,0.0-17.0-1.3,SS1649107163440,1409.1000000238419,NA,NA,32,500,1909.100000023842,images/stimuli/complex_19_A_a.gif,images/stimuli/complex_11_A_b.gif,self_paced,760,NA,NA,NA,trial,NA,complex,1,complex_dissimilar,images/stimuli/complex_11_A_b.gif,NA
NA,html-keyboard-response,46,242498,0.0-17.0-0.4,SS1649107163440,NA,NA,NA,null,NA,NA,NA,NA,NA,NA,NA,"<p><img src= images/blank.png width =""600"" height = ""600"" style=""position:fixed;top:50%; left:50%; transform: translate(-50%, -50%); border:5px solid black"">",NA,NA,NA,NA,NA,NA,NA,NA
NA,stimuli-presentation,47,243746,0.0-17.0-1.4,SS1649107163440,333.10000002384186,NA,NA,32,500,833.1000000238419,images/stimuli/complex_19_A_a.gif,images/stimuli/complex_11_A_b.gif,self_paced,760,NA,NA,NA,trial,NA,complex,1,complex_dissimilar,images/stimuli/complex_11_A_b.gif,NA
NA,html-keyboard-response,48,244831,0.0-17.0-0.5,SS1649107163440,NA,NA,NA,null,NA,NA,NA,NA,NA,NA,NA,"<p><img src= images/blank.png width =""600"" height = ""600"" style=""position:fixed;top:50%; left:50%; transform: translate(-50%, -50%); border:5px solid black"">",NA,NA,NA,NA,NA,NA,NA,NA
NA,stimuli-presentation,49,246345,0.0-17.0-1.5,SS1649107163440,600.2999999523163,NA,NA,32,500,1100.2999999523165,images/stimuli/complex_19_A_a.gif,images/stimuli/complex_11_A_b.gif,self_paced,760,NA,NA,NA,trial,NA,complex,1,complex_dissimilar,images/stimuli/complex_11_A_b.gif,NA
NA,html-button-response,50,254850,0.0-18.0,SS1649107163440,8502.100000023842,NA,NA,NA,NA,NA,NA,NA,NA,NA,NA,NA,1,memory_test,right,NA,NA,NA,NA,1
NA,instructions,51,256540,0.0-19.0,SS1649107163440,1688.5,NA,NA,NA,NA,NA,NA,NA,NA,NA,"[{""page_index"":0,""viewing_time"":1688.2000000476837}]",NA,NA,NA,NA,NA,NA,NA,NA,NA
NA,instructions,52,286259,0.0-20.0,SS1649107163440,29717.100000023842,NA,NA,NA,NA,NA,NA,NA,NA,NA,"[{""page_index"":0,""viewing_time"":29716.5}]",NA,NA,NA,NA,NA,NA,NA,NA,NA
NA,html-keyboard-response,53,287147,0.0-21.0-0.0,SS1649107163440,NA,NA,NA,null,NA,NA,NA,NA,NA,NA,NA,"<p><img src= images/blank.png width =""600"" height = ""600"" style=""position:fixed;top:50%; left:50%; transform: translate(-50%, -50%); border:5px solid black"">",NA,NA,NA,NA,NA,NA,NA,NA
NA,stimuli-presentation,54,290229,0.0-21.0-1.0,SS1649107163440,2165.100000023842,NA,NA,32,500,2665.100000023842,images/stimuli/complex_21_A_b.gif,images/stimuli/complex_04_A_b.gif,self_paced,230,NA,NA,NA,trial,NA,complex,2,complex_dissimilar,images/stimuli/complex_04_A_b.gif,NA
NA,html-keyboard-response,55,291477,0.0-21.0-0.1,SS1649107163440,NA,NA,NA,null,NA,NA,NA,NA,NA,NA,NA,"<p><img src= images/blank.png width =""600"" height = ""600"" style=""position:fixed;top:50%; left:50%; transform: translate(-50%, -50%); border:5px solid black"">",NA,NA,NA,NA,NA,NA,NA,NA
NA,stimuli-presentation,56,293749,0.0-21.0-1.1,SS1649107163440,1361.9000000953674,NA,NA,32,500,1861.9000000953672,images/stimuli/complex_21_A_b.gif,images/stimuli/complex_04_A_b.gif,self_paced,230,NA,NA,NA,trial,NA,complex,2,complex_dissimilar,images/stimuli/complex_04_A_b.gif,NA
NA,html-keyboard-response,57,294960,0.0-21.0-0.2,SS1649107163440,NA,NA,NA,null,NA,NA,NA,NA,NA,NA,NA,"<p><img src= images/blank.png width =""600"" height = ""600"" style=""position:fixed;top:50%; left:50%; transform: translate(-50%, -50%); border:5px solid black"">",NA,NA,NA,NA,NA,NA,NA,NA
NA,stimuli-presentation,58,295884,0.0-21.0-1.2,SS1649107163440,5,NA,NA,32,500,505,images/stimuli/complex_21_A_b.gif,images/stimuli/complex_04_A_b.gif,self_paced,230,NA,NA,NA,trial,NA,complex,2,complex_dissimilar,images/stimuli/complex_04_A_b.gif,NA
NA,html-keyboard-response,59,296987,0.0-21.0-0.3,SS1649107163440,NA,NA,NA,null,NA,NA,NA,NA,NA,NA,NA,"<p><img src= images/blank.png width =""600"" height = ""600"" style=""position:fixed;top:50%; left:50%; transform: translate(-50%, -50%); border:5px solid black"">",NA,NA,NA,NA,NA,NA,NA,NA
NA,stimuli-presentation,60,297987,0.0-21.0-1.3,SS1649107163440,92.89999997615814,NA,NA,32,500,592.8999999761581,images/stimuli/complex_21_A_b.gif,images/stimuli/complex_04_A_b.gif,self_paced,230,NA,NA,NA,trial,NA,complex,2,complex_dissimilar,images/stimuli/complex_04_A_b.gif,NA
NA,html-keyboard-response,61,299258,0.0-21.0-0.4,SS1649107163440,NA,NA,NA,null,NA,NA,NA,NA,NA,NA,NA,"<p><img src= images/blank.png width =""600"" height = ""600"" style=""position:fixed;top:50%; left:50%; transform: translate(-50%, -50%); border:5px solid black"">",NA,NA,NA,NA,NA,NA,NA,NA
NA,stimuli-presentation,62,301352,0.0-21.0-1.4,SS1649107163440,1180.5999999046326,NA,NA,32,500,1680.5999999046326,images/stimuli/complex_21_A_b.gif,images/stimuli/complex_04_A_b.gif,self_paced,230,NA,NA,NA,trial,NA,complex,2,complex_dissimilar,images/stimuli/complex_04_A_b.gif,NA
NA,html-keyboard-response,63,302304,0.0-21.0-0.5,SS1649107163440,NA,NA,NA,null,NA,NA,NA,NA,NA,NA,NA,"<p><img src= images/blank.png width =""600"" height = ""600"" style=""position:fixed;top:50%; left:50%; transform: translate(-50%, -50%); border:5px solid black"">",NA,NA,NA,NA,NA,NA,NA,NA
NA,stimuli-presentation,64,304725,0.0-21.0-1.5,SS1649107163440,1504.1999999284744,NA,NA,32,500,2004.1999999284744,images/stimuli/complex_21_A_b.gif,images/stimuli/complex_04_A_b.gif,self_paced,230,NA,NA,NA,trial,NA,complex,2,complex_dissimilar,images/stimuli/complex_21_A_b.gif,NA
NA,html-button-response,65,309437,0.0-22.0,SS1649107163440,4707.100000023842,NA,NA,NA,NA,NA,NA,NA,NA,NA,NA,NA,1,memory_test,right,NA,NA,NA,NA,2
NA,instructions,66,312229,0.0-23.0,SS1649107163440,2789.6999999284744,NA,NA,NA,NA,NA,NA,NA,NA,NA,"[{""page_index"":0,""viewing_time"":2789.1999999284744}]",NA,NA,NA,NA,NA,NA,NA,NA,NA
NA,instructions,67,359343,0.0-24.0,SS1649107163440,47112,NA,NA,NA,NA,NA,NA,NA,NA,NA,"[{""page_index"":0,""viewing_time"":47111.5}]",NA,NA,NA,NA,NA,NA,NA,NA,NA
NA,html-keyboard-response,68,360278,0.0-25.0-0.0,SS1649107163440,NA,NA,NA,null,NA,NA,NA,NA,NA,NA,NA,"<p><img src= images/blank.png width =""600"" height = ""600"" style=""position:fixed;top:50%; left:50%; transform: translate(-50%, -50%); border:5px solid black"">",NA,NA,NA,NA,NA,NA,NA,NA
NA,stimuli-presentation,69,364661,0.0-25.0-1.0,SS1649107163440,3466,NA,NA,32,500,3966,images/stimuli/complex_14_A_b.gif,images/stimuli/complex_23_A_a.gif,self_paced,310,NA,NA,NA,trial,NA,complex,3,complex_dissimilar,images/stimuli/complex_23_A_a.gif,NA
NA,html-keyboard-response,70,365635,0.0-25.0-0.1,SS1649107163440,NA,NA,NA,null,NA,NA,NA,NA,NA,NA,NA,"<p><img src= images/blank.png width =""600"" height = ""600"" style=""position:fixed;top:50%; left:50%; transform: translate(-50%, -50%); border:5px solid black"">",NA,NA,NA,NA,NA,NA,NA,NA
NA,stimuli-presentation,71,367065,0.0-25.0-1.1,SS1649107163440,507.7000000476837,NA,NA,32,500,1007.7000000476836,images/stimuli/complex_14_A_b.gif,images/stimuli/complex_23_A_a.gif,self_paced,310,NA,NA,NA,trial,NA,complex,3,complex_dissimilar,images/stimuli/complex_23_A_a.gif,NA
NA,html-keyboard-response,72,368074,0.0-25.0-0.2,SS1649107163440,NA,NA,NA,null,NA,NA,NA,NA,NA,NA,NA,"<p><img src= images/blank.png width =""600"" height = ""600"" style=""position:fixed;top:50%; left:50%; transform: translate(-50%, -50%); border:5px solid black"">",NA,NA,NA,NA,NA,NA,NA,NA
NA,stimuli-presentation,73,371315,0.0-25.0-1.2,SS1649107163440,2327.7999999523163,NA,NA,32,500,2827.7999999523163,images/stimuli/complex_14_A_b.gif,images/stimuli/complex_23_A_a.gif,self_paced,310,NA,NA,NA,trial,NA,complex,3,complex_dissimilar,images/stimuli/complex_23_A_a.gif,NA
NA,html-keyboard-response,74,372363,0.0-25.0-0.3,SS1649107163440,NA,NA,NA,null,NA,NA,NA,NA,NA,NA,NA,"<p><img src= images/blank.png width =""600"" height = ""600"" style=""position:fixed;top:50%; left:50%; transform: translate(-50%, -50%); border:5px solid black"">",NA,NA,NA,NA,NA,NA,NA,NA
NA,stimuli-presentation,75,373855,0.0-25.0-1.3,SS1649107163440,575.1000000238419,NA,NA,32,500,1075.100000023842,images/stimuli/complex_14_A_b.gif,images/stimuli/complex_23_A_a.gif,self_paced,310,NA,NA,NA,trial,NA,complex,3,complex_dissimilar,images/stimuli/complex_14_A_b.gif,NA
NA,html-keyboard-response,76,375023,0.0-25.0-0.4,SS1649107163440,NA,NA,NA,null,NA,NA,NA,NA,NA,NA,NA,"<p><img src= images/blank.png width =""600"" height = ""600"" style=""position:fixed;top:50%; left:50%; transform: translate(-50%, -50%); border:5px solid black"">",NA,NA,NA,NA,NA,NA,NA,NA
NA,stimuli-presentation,77,377742,0.0-25.0-1.4,SS1649107163440,1810.9000000953674,NA,NA,32,500,2310.900000095367,images/stimuli/complex_14_A_b.gif,images/stimuli/complex_23_A_a.gif,self_paced,310,NA,NA,NA,trial,NA,complex,3,complex_dissimilar,images/stimuli/complex_23_A_a.gif,NA
NA,html-keyboard-response,78,378863,0.0-25.0-0.5,SS1649107163440,NA,NA,NA,null,NA,NA,NA,NA,NA,NA,NA,"<p><img src= images/blank.png width =""600"" height = ""600"" style=""position:fixed;top:50%; left:50%; transform: translate(-50%, -50%); border:5px solid black"">",NA,NA,NA,NA,NA,NA,NA,NA
NA,stimuli-presentation,79,381569,0.0-25.0-1.5,SS1649107163440,1789.1000000238419,NA,NA,32,500,2289.100000023842,images/stimuli/complex_14_A_b.gif,images/stimuli/complex_23_A_a.gif,self_paced,310,NA,NA,NA,trial,NA,complex,3,complex_dissimilar,images/stimuli/complex_23_A_a.gif,NA
NA,html-button-response,80,384736,0.0-26.0,SS1649107163440,3152.100000023842,NA,NA,NA,NA,NA,NA,NA,NA,NA,NA,NA,1,memory_test,right,NA,NA,NA,NA,3
NA,instructions,81,387241,0.0-27.0,SS1649107163440,2502.2999999523163,NA,NA,NA,NA,NA,NA,NA,NA,NA,"[{""page_index"":0,""viewing_time"":2501.899999976158}]",NA,NA,NA,NA,NA,NA,NA,NA,NA
NA,instructions,82,404775,0.0-28.0,SS1649107163440,17531.5,NA,NA,NA,NA,NA,NA,NA,NA,NA,"[{""page_index"":0,""viewing_time"":17530.700000047684}]",NA,NA,NA,NA,NA,NA,NA,NA,NA
NA,html-keyboard-response,83,405976,0.0-29.0-0.0,SS1649107163440,NA,NA,NA,null,NA,NA,NA,NA,NA,NA,NA,"<p><img src= images/blank.png width =""600"" height = ""600"" style=""position:fixed;top:50%; left:50%; transform: translate(-50%, -50%); border:5px solid black"">",NA,NA,NA,NA,NA,NA,NA,NA
NA,stimuli-presentation,84,408333,0.0-29.0-1.0,SS1649107163440,1439.5,NA,NA,32,500,1939.5,images/stimuli/complex_07_A_b.gif,images/stimuli/complex_01_A_b.gif,self_paced,300,NA,NA,NA,trial,NA,complex,4,complex_dissimilar,images/stimuli/complex_01_A_b.gif,NA
NA,html-keyboard-response,85,409261,0.0-29.0-0.1,SS1649107163440,NA,NA,NA,null,NA,NA,NA,NA,NA,NA,NA,"<p><img src= images/blank.png width =""600"" height = ""600"" style=""position:fixed;top:50%; left:50%; transform: translate(-50%, -50%); border:5px solid black"">",NA,NA,NA,NA,NA,NA,NA,NA
NA,stimuli-presentation,86,410559,0.0-29.0-1.1,SS1649107163440,389.5,NA,NA,32,500,889.5,images/stimuli/complex_07_A_b.gif,images/stimuli/complex_01_A_b.gif,self_paced,300,NA,NA,NA,trial,NA,complex,4,complex_dissimilar,images/stimuli/complex_07_A_b.gif,NA
NA,html-keyboard-response,87,411845,0.0-29.0-0.2,SS1649107163440,NA,NA,NA,null,NA,NA,NA,NA,NA,NA,NA,"<p><img src= images/blank.png width =""600"" height = ""600"" style=""position:fixed;top:50%; left:50%; transform: translate(-50%, -50%); border:5px solid black"">",NA,NA,NA,NA,NA,NA,NA,NA
NA,stimuli-presentation,88,413015,0.0-29.0-1.2,SS1649107163440,255.29999995231628,NA,NA,32,500,755.2999999523163,images/stimuli/complex_07_A_b.gif,images/stimuli/complex_01_A_b.gif,self_paced,300,NA,NA,NA,trial,NA,complex,4,complex_dissimilar,images/stimuli/complex_01_A_b.gif,NA
NA,html-keyboard-response,89,414196,0.0-29.0-0.3,SS1649107163440,NA,NA,NA,null,NA,NA,NA,NA,NA,NA,NA,"<p><img src= images/blank.png width =""600"" height = ""600"" style=""position:fixed;top:50%; left:50%; transform: translate(-50%, -50%); border:5px solid black"">",NA,NA,NA,NA,NA,NA,NA,NA
NA,stimuli-presentation,90,415850,0.0-29.0-1.3,SS1649107163440,746.3999999761581,NA,NA,32,500,1246.399999976158,images/stimuli/complex_07_A_b.gif,images/stimuli/complex_01_A_b.gif,self_paced,300,NA,NA,NA,trial,NA,complex,4,complex_dissimilar,images/stimuli/complex_01_A_b.gif,NA
NA,html-keyboard-response,91,416668,0.0-29.0-0.4,SS1649107163440,NA,NA,NA,null,NA,NA,NA,NA,NA,NA,NA,"<p><img src= images/blank.png width =""600"" height = ""600"" style=""position:fixed;top:50%; left:50%; transform: translate(-50%, -50%); border:5px solid black"">",NA,NA,NA,NA,NA,NA,NA,NA
NA,stimuli-presentation,92,418210,0.0-29.0-1.4,SS1649107163440,631.6000000238419,NA,NA,32,500,1131.600000023842,images/stimuli/complex_07_A_b.gif,images/stimuli/complex_01_A_b.gif,self_paced,300,NA,NA,NA,trial,NA,complex,4,complex_dissimilar,images/stimuli/complex_01_A_b.gif,NA
NA,html-keyboard-response,93,419043,0.0-29.0-0.5,SS1649107163440,NA,NA,NA,null,NA,NA,NA,NA,NA,NA,NA,"<p><img src= images/blank.png width =""600"" height = ""600"" style=""position:fixed;top:50%; left:50%; transform: translate(-50%, -50%); border:5px solid black"">",NA,NA,NA,NA,NA,NA,NA,NA
NA,stimuli-presentation,94,420745,0.0-29.0-1.5,SS1649107163440,787.6000000238419,NA,NA,32,500,1287.600000023842,images/stimuli/complex_07_A_b.gif,images/stimuli/complex_01_A_b.gif,self_paced,300,NA,NA,NA,trial,NA,complex,4,complex_dissimilar,images/stimuli/complex_01_A_b.gif,NA
NA,html-button-response,95,424027,0.0-30.0,SS1649107163440,3278.2999999523163,NA,NA,NA,NA,NA,NA,NA,NA,NA,NA,NA,1,memory_test,right,NA,NA,NA,NA,4
NA,instructions,96,430796,0.0-31.0,SS1649107163440,6766.5,NA,NA,NA,NA,NA,NA,NA,NA,NA,"[{""page_index"":0,""viewing_time"":6765.800000071526}]",NA,NA,NA,NA,NA,NA,NA,NA,NA
NA,instructions,97,451939,0.0-32.0,SS1649107163440,21140.299999952316,NA,NA,NA,NA,NA,NA,NA,NA,NA,"[{""page_index"":0,""viewing_time"":21139.799999952316}]",NA,NA,NA,NA,NA,NA,NA,NA,NA
NA,html-keyboard-response,98,453052,0.0-33.0-0.0,SS1649107163440,NA,NA,NA,null,NA,NA,NA,NA,NA,NA,NA,"<p><img src= images/blank.png width =""600"" height = ""600"" style=""position:fixed;top:50%; left:50%; transform: translate(-50%, -50%); border:5px solid black"">",NA,NA,NA,NA,NA,NA,NA,NA
NA,stimuli-presentation,99,455884,0.0-33.0-1.0,SS1649107163440,1916.7999999523163,NA,NA,32,500,2416.7999999523163,images/stimuli/complex_08_A_b.gif,images/stimuli/complex_24_A_a.gif,self_paced,310,NA,NA,NA,trial,NA,complex,5,complex_dissimilar,images/stimuli/complex_24_A_a.gif,NA
NA,html-keyboard-response,100,456947,0.0-33.0-0.1,SS1649107163440,NA,NA,NA,null,NA,NA,NA,NA,NA,NA,NA,"<p><img src= images/blank.png width =""600"" height = ""600"" style=""position:fixed;top:50%; left:50%; transform: translate(-50%, -50%); border:5px solid black"">",NA,NA,NA,NA,NA,NA,NA,NA
NA,stimuli-presentation,101,458535,0.0-33.0-1.1,SS1649107163440,681.2999999523163,NA,NA,32,500,1181.2999999523165,images/stimuli/complex_08_A_b.gif,images/stimuli/complex_24_A_a.gif,self_paced,310,NA,NA,NA,trial,NA,complex,5,complex_dissimilar,images/stimuli/complex_24_A_a.gif,NA
NA,html-keyboard-response,102,459565,0.0-33.0-0.2,SS1649107163440,NA,NA,NA,null,NA,NA,NA,NA,NA,NA,NA,"<p><img src= images/blank.png width =""600"" height = ""600"" style=""position:fixed;top:50%; left:50%; transform: translate(-50%, -50%); border:5px solid black"">",NA,NA,NA,NA,NA,NA,NA,NA
NA,stimuli-presentation,103,460696,0.0-33.0-1.2,SS1649107163440,217,NA,NA,32,500,717,images/stimuli/complex_08_A_b.gif,images/stimuli/complex_24_A_a.gif,self_paced,310,NA,NA,NA,trial,NA,complex,5,complex_dissimilar,images/stimuli/complex_24_A_a.gif,NA
NA,html-keyboard-response,104,461681,0.0-33.0-0.3,SS1649107163440,NA,NA,NA,null,NA,NA,NA,NA,NA,NA,NA,"<p><img src= images/blank.png width =""600"" height = ""600"" style=""position:fixed;top:50%; left:50%; transform: translate(-50%, -50%); border:5px solid black"">",NA,NA,NA,NA,NA,NA,NA,NA
NA,stimuli-presentation,105,462694,0.0-33.0-1.3,SS1649107163440,104.60000002384186,NA,NA,32,500,604.6000000238419,images/stimuli/complex_08_A_b.gif,images/stimuli/complex_24_A_a.gif,self_paced,310,NA,NA,NA,trial,NA,complex,5,complex_dissimilar,images/stimuli/complex_24_A_a.gif,NA
NA,html-keyboard-response,106,463795,0.0-33.0-0.4,SS1649107163440,NA,NA,NA,null,NA,NA,NA,NA,NA,NA,NA,"<p><img src= images/blank.png width =""600"" height = ""600"" style=""position:fixed;top:50%; left:50%; transform: translate(-50%, -50%); border:5px solid black"">",NA,NA,NA,NA,NA,NA,NA,NA
NA,stimuli-presentation,107,464737,0.0-33.0-1.4,SS1649107163440,34.299999952316284,NA,NA,32,500,534.2999999523163,images/stimuli/complex_08_A_b.gif,images/stimuli/complex_24_A_a.gif,self_paced,310,NA,NA,NA,trial,NA,complex,5,complex_dissimilar,images/stimuli/complex_24_A_a.gif,NA
NA,html-keyboard-response,108,465566,0.0-33.0-0.5,SS1649107163440,NA,NA,NA,null,NA,NA,NA,NA,NA,NA,NA,"<p><img src= images/blank.png width =""600"" height = ""600"" style=""position:fixed;top:50%; left:50%; transform: translate(-50%, -50%); border:5px solid black"">",NA,NA,NA,NA,NA,NA,NA,NA
NA,stimuli-presentation,109,466560,0.0-33.0-1.5,SS1649107163440,67.19999992847443,NA,NA,32,500,567.1999999284744,images/stimuli/complex_08_A_b.gif,images/stimuli/complex_24_A_a.gif,self_paced,310,NA,NA,NA,trial,NA,complex,5,complex_dissimilar,images/stimuli/complex_24_A_a.gif,NA
NA,html-button-response,110,471845,0.0-34.0,SS1649107163440,5274.200000047684,NA,NA,NA,NA,NA,NA,NA,NA,NA,NA,NA,1,memory_test,right,NA,NA,NA,NA,5
NA,instructions,111,474373,0.0-35.0,SS1649107163440,2524,NA,NA,NA,NA,NA,NA,NA,NA,NA,"[{""page_index"":0,""viewing_time"":2523.8000000715256}]",NA,NA,NA,NA,NA,NA,NA,NA,NA
NA,instructions,112,485291,0.0-36.0,SS1649107163440,10916.400000095367,NA,NA,NA,NA,NA,NA,NA,NA,NA,"[{""page_index"":0,""viewing_time"":10915.800000071526}]",NA,NA,NA,NA,NA,NA,NA,NA,NA
NA,html-keyboard-response,113,486108,0.0-37.0-0.0,SS1649107163440,NA,NA,NA,null,NA,NA,NA,NA,NA,NA,NA,"<p><img src= images/blank.png width =""600"" height = ""600"" style=""position:fixed;top:50%; left:50%; transform: translate(-50%, -50%); border:5px solid black"">",NA,NA,NA,NA,NA,NA,NA,NA
NA,stimuli-presentation,114,488652,0.0-37.0-1.0,SS1649107163440,1626.7000000476837,NA,NA,32,500,2126.7000000476837,images/stimuli/complex_22_A_a.gif,images/stimuli/complex_05_A_a.gif,self_paced,740,NA,NA,NA,trial,NA,complex,6,complex_dissimilar,images/stimuli/complex_05_A_a.gif,NA
NA,html-keyboard-response,115,489777,0.0-37.0-0.1,SS1649107163440,NA,NA,NA,null,NA,NA,NA,NA,NA,NA,NA,"<p><img src= images/blank.png width =""600"" height = ""600"" style=""position:fixed;top:50%; left:50%; transform: translate(-50%, -50%); border:5px solid black"">",NA,NA,NA,NA,NA,NA,NA,NA
NA,stimuli-presentation,116,491139,0.0-37.0-1.1,SS1649107163440,450.39999997615814,NA,NA,32,500,950.399999976158,images/stimuli/complex_22_A_a.gif,images/stimuli/complex_05_A_a.gif,self_paced,740,NA,NA,NA,trial,NA,complex,6,complex_dissimilar,images/stimuli/complex_05_A_a.gif,NA
NA,html-keyboard-response,117,492107,0.0-37.0-0.2,SS1649107163440,NA,NA,NA,null,NA,NA,NA,NA,NA,NA,NA,"<p><img src= images/blank.png width =""600"" height = ""600"" style=""position:fixed;top:50%; left:50%; transform: translate(-50%, -50%); border:5px solid black"">",NA,NA,NA,NA,NA,NA,NA,NA
NA,stimuli-presentation,118,493144,0.0-37.0-1.2,SS1649107163440,119.29999995231628,NA,NA,32,500,619.2999999523163,images/stimuli/complex_22_A_a.gif,images/stimuli/complex_05_A_a.gif,self_paced,740,NA,NA,NA,trial,NA,complex,6,complex_dissimilar,images/stimuli/complex_05_A_a.gif,NA
NA,html-keyboard-response,119,494242,0.0-37.0-0.3,SS1649107163440,NA,NA,NA,null,NA,NA,NA,NA,NA,NA,NA,"<p><img src= images/blank.png width =""600"" height = ""600"" style=""position:fixed;top:50%; left:50%; transform: translate(-50%, -50%); border:5px solid black"">",NA,NA,NA,NA,NA,NA,NA,NA
NA,stimuli-presentation,120,495907,0.0-37.0-1.3,SS1649107163440,754,NA,NA,32,500,1254,images/stimuli/complex_22_A_a.gif,images/stimuli/complex_05_A_a.gif,self_paced,740,NA,NA,NA,trial,NA,complex,6,complex_dissimilar,images/stimuli/complex_05_A_a.gif,NA
NA,html-keyboard-response,121,496781,0.0-37.0-0.4,SS1649107163440,NA,NA,NA,null,NA,NA,NA,NA,NA,NA,NA,"<p><img src= images/blank.png width =""600"" height = ""600"" style=""position:fixed;top:50%; left:50%; transform: translate(-50%, -50%); border:5px solid black"">",NA,NA,NA,NA,NA,NA,NA,NA
NA,stimuli-presentation,122,497899,0.0-37.0-1.4,SS1649107163440,204.90000009536743,NA,NA,32,500,704.9000000953674,images/stimuli/complex_22_A_a.gif,images/stimuli/complex_05_A_a.gif,self_paced,740,NA,NA,NA,trial,NA,complex,6,complex_dissimilar,images/stimuli/complex_05_A_a.gif,NA
NA,html-keyboard-response,123,498709,0.0-37.0-0.5,SS1649107163440,NA,NA,NA,null,NA,NA,NA,NA,NA,NA,NA,"<p><img src= images/blank.png width =""600"" height = ""600"" style=""position:fixed;top:50%; left:50%; transform: translate(-50%, -50%); border:5px solid black"">",NA,NA,NA,NA,NA,NA,NA,NA
NA,stimuli-presentation,124,500488,0.0-37.0-1.5,SS1649107163440,862.1000000238419,NA,NA,32,500,1362.100000023842,images/stimuli/complex_22_A_a.gif,images/stimuli/complex_05_A_a.gif,self_paced,740,NA,NA,NA,trial,NA,complex,6,complex_dissimilar,images/stimuli/complex_22_A_a.gif,NA
NA,html-button-response,125,503899,0.0-38.0,SS1649107163440,3406.8000000715256,NA,NA,NA,NA,NA,NA,NA,NA,NA,NA,NA,1,memory_test,right,NA,NA,NA,NA,6
NA,instructions,126,506111,0.0-39.0,SS1649107163440,2208.7999999523163,NA,NA,NA,NA,NA,NA,NA,NA,NA,"[{""page_index"":0,""viewing_time"":2208.399999976158}]",NA,NA,NA,NA,NA,NA,NA,NA,NA
NA,instructions,127,533923,0.0-40.0,SS1649107163440,27808.300000071526,NA,NA,NA,NA,NA,NA,NA,NA,NA,"[{""page_index"":0,""viewing_time"":27807.600000023842}]",NA,NA,NA,NA,NA,NA,NA,NA,NA
NA,html-keyboard-response,128,535072,0.0-41.0-0.0,SS1649107163440,NA,NA,NA,null,NA,NA,NA,NA,NA,NA,NA,"<p><img src= images/blank.png width =""600"" height = ""600"" style=""position:fixed;top:50%; left:50%; transform: translate(-50%, -50%); border:5px solid black"">",NA,NA,NA,NA,NA,NA,NA,NA
NA,stimuli-presentation,129,536938,0.0-41.0-1.0,SS1649107163440,948.5,NA,NA,32,500,1448.5,images/stimuli/complex_17_A_a.gif,images/stimuli/complex_02_A_a.gif,self_paced,570,NA,NA,NA,trial,NA,complex,7,complex_dissimilar,images/stimuli/complex_02_A_a.gif,NA
NA,html-keyboard-response,130,538164,0.0-41.0-0.1,SS1649107163440,NA,NA,NA,null,NA,NA,NA,NA,NA,NA,NA,"<p><img src= images/blank.png width =""600"" height = ""600"" style=""position:fixed;top:50%; left:50%; transform: translate(-50%, -50%); border:5px solid black"">",NA,NA,NA,NA,NA,NA,NA,NA
NA,stimuli-presentation,131,539146,0.0-41.0-1.1,SS1649107163440,73.09999990463257,NA,NA,32,500,573.0999999046326,images/stimuli/complex_17_A_a.gif,images/stimuli/complex_02_A_a.gif,self_paced,570,NA,NA,NA,trial,NA,complex,7,complex_dissimilar,images/stimuli/complex_02_A_a.gif,NA
NA,html-keyboard-response,132,540256,0.0-41.0-0.2,SS1649107163440,NA,NA,NA,null,NA,NA,NA,NA,NA,NA,NA,"<p><img src= images/blank.png width =""600"" height = ""600"" style=""position:fixed;top:50%; left:50%; transform: translate(-50%, -50%); border:5px solid black"">",NA,NA,NA,NA,NA,NA,NA,NA
NA,stimuli-presentation,133,541657,0.0-41.0-1.2,SS1649107163440,482.2999999523163,NA,NA,32,500,982.2999999523164,images/stimuli/complex_17_A_a.gif,images/stimuli/complex_02_A_a.gif,self_paced,570,NA,NA,NA,trial,NA,complex,7,complex_dissimilar,images/stimuli/complex_02_A_a.gif,NA
NA,html-keyboard-response,134,542839,0.0-41.0-0.3,SS1649107163440,NA,NA,NA,null,NA,NA,NA,NA,NA,NA,NA,"<p><img src= images/blank.png width =""600"" height = ""600"" style=""position:fixed;top:50%; left:50%; transform: translate(-50%, -50%); border:5px solid black"">",NA,NA,NA,NA,NA,NA,NA,NA
NA,stimuli-presentation,135,543839,0.0-41.0-1.3,SS1649107163440,86,NA,NA,32,500,586,images/stimuli/complex_17_A_a.gif,images/stimuli/complex_02_A_a.gif,self_paced,570,NA,NA,NA,trial,NA,complex,7,complex_dissimilar,images/stimuli/complex_02_A_a.gif,NA
NA,html-keyboard-response,136,544956,0.0-41.0-0.4,SS1649107163440,NA,NA,NA,null,NA,NA,NA,NA,NA,NA,NA,"<p><img src= images/blank.png width =""600"" height = ""600"" style=""position:fixed;top:50%; left:50%; transform: translate(-50%, -50%); border:5px solid black"">",NA,NA,NA,NA,NA,NA,NA,NA
NA,stimuli-presentation,137,546492,0.0-41.0-1.4,SS1649107163440,622.7000000476837,NA,NA,32,500,1122.7000000476835,images/stimuli/complex_17_A_a.gif,images/stimuli/complex_02_A_a.gif,self_paced,570,NA,NA,NA,trial,NA,complex,7,complex_dissimilar,images/stimuli/complex_02_A_a.gif,NA
NA,html-keyboard-response,138,547540,0.0-41.0-0.5,SS1649107163440,NA,NA,NA,null,NA,NA,NA,NA,NA,NA,NA,"<p><img src= images/blank.png width =""600"" height = ""600"" style=""position:fixed;top:50%; left:50%; transform: translate(-50%, -50%); border:5px solid black"">",NA,NA,NA,NA,NA,NA,NA,NA
NA,stimuli-presentation,139,548649,0.0-41.0-1.5,SS1649107163440,188.40000009536743,NA,NA,32,500,688.4000000953674,images/stimuli/complex_17_A_a.gif,images/stimuli/complex_02_A_a.gif,self_paced,570,NA,NA,NA,trial,NA,complex,7,complex_dissimilar,images/stimuli/complex_02_A_a.gif,NA
NA,html-button-response,140,558371,0.0-42.0,SS1649107163440,9717,NA,NA,NA,NA,NA,NA,NA,NA,NA,NA,NA,0,memory_test,left,NA,NA,NA,NA,7
NA,instructions,141,562601,0.0-43.0,SS1649107163440,4226.200000047684,NA,NA,NA,NA,NA,NA,NA,NA,NA,"[{""page_index"":0,""viewing_time"":4225.299999952316}]",NA,NA,NA,NA,NA,NA,NA,NA,NA
TRUE,fullscreen,0,2357,0.0-0.0,SS1649108043408,NA,NA,NA,NA,NA,NA,NA,NA,NA,NA,NA,NA,NA,NA,NA,NA,NA,NA,NA,NA
NA,demog-age,1,7642,0.0-1.0,SS1649108043408,5278.699999928474,"{""subject_id"":""04""}",NA,NA,NA,NA,NA,NA,NA,NA,NA,NA,NA,NA,NA,NA,NA,NA,NA,NA
NA,stimuli-presentation,2,22099,0.0-2.0,SS1649108043408,13537.700000047684,NA,NA,32,500,14037.700000047684,null,null,self_paced,0,NA,NA,NA,NA,NA,NA,NA,NA,NA,NA
NA,instructions,3,38836,0.0-3.0,SS1649108043408,16734.200000047684,NA,NA,NA,NA,NA,NA,NA,NA,NA,"[{""page_index"":0,""viewing_time"":16733.299999952316}]",NA,NA,NA,NA,NA,NA,NA,NA,NA
NA,stimuli-presentation,4,53717,0.0-4.0,SS1649108043408,13968.299999952316,NA,NA,32,500,14468.299999952316,null,null,self_paced,0,NA,NA,NA,NA,NA,NA,NA,NA,NA,NA
NA,instructions,5,57139,0.0-5.0,SS1649108043408,3419.600000023842,NA,NA,NA,NA,NA,NA,NA,NA,NA,"[{""page_index"":0,""viewing_time"":3419.2999999523163}]",NA,NA,NA,NA,NA,NA,NA,NA,NA
NA,instructions,6,75669,0.0-6.0,SS1649108043408,18528.800000071526,NA,NA,NA,NA,NA,NA,NA,NA,NA,"[{""page_index"":0,""viewing_time"":18528.5}]",NA,NA,NA,NA,NA,NA,NA,NA,NA
NA,html-keyboard-response,7,76748,0.0-7.0-0.0,SS1649108043408,NA,NA,NA,null,NA,NA,NA,NA,NA,NA,NA,"<p><img src= images/blank.png width =""600"" height = ""600"" style=""position:fixed;top:50%; left:50%; transform: translate(-50%, -50%); border:5px solid black"">",NA,NA,NA,NA,NA,NA,NA,NA
NA,stimuli-presentation,8,86652,0.0-7.0-1.0,SS1649108043408,8982.299999952316,NA,NA,32,500,9482.299999952316,images/stimuli/complex_20_A_b.gif,images/stimuli/complex_22_A_b.gif,self_paced,660,NA,NA,NA,NA,NA,NA,NA,NA,NA,NA
NA,html-keyboard-response,9,87799,0.0-7.0-0.1,SS1649108043408,NA,NA,NA,null,NA,NA,NA,NA,NA,NA,NA,"<p><img src= images/blank.png width =""600"" height = ""600"" style=""position:fixed;top:50%; left:50%; transform: translate(-50%, -50%); border:5px solid black"">",NA,NA,NA,NA,NA,NA,NA,NA
NA,stimuli-presentation,10,91814,0.0-7.0-1.1,SS1649108043408,3101.100000023842,NA,NA,32,500,3601.100000023842,images/stimuli/complex_20_A_b.gif,images/stimuli/complex_22_A_b.gif,self_paced,660,NA,NA,NA,NA,NA,NA,NA,NA,NA,NA
NA,html-keyboard-response,11,92918,0.0-7.0-0.2,SS1649108043408,NA,NA,NA,null,NA,NA,NA,NA,NA,NA,NA,"<p><img src= images/blank.png width =""600"" height = ""600"" style=""position:fixed;top:50%; left:50%; transform: translate(-50%, -50%); border:5px solid black"">",NA,NA,NA,NA,NA,NA,NA,NA
NA,stimuli-presentation,12,94198,0.0-7.0-1.2,SS1649108043408,361.6999999284744,NA,NA,32,500,861.6999999284744,images/stimuli/complex_20_A_b.gif,images/stimuli/complex_22_A_b.gif,self_paced,660,NA,NA,NA,NA,NA,NA,NA,NA,NA,NA
NA,html-button-response,13,100243,0.0-8.0,SS1649108043408,6041.400000095367,NA,NA,NA,NA,NA,NA,NA,NA,NA,NA,NA,0,memory_practice,left,NA,NA,NA,NA,NA
NA,html-keyboard-response,14,101451,0.0-9.0-0.0,SS1649108043408,NA,NA,NA,null,NA,NA,NA,NA,NA,NA,NA,"<p><img src= images/blank.png width =""600"" height = ""600"" style=""position:fixed;top:50%; left:50%; transform: translate(-50%, -50%); border:5px solid black"">",NA,NA,NA,NA,NA,NA,NA,NA
NA,stimuli-presentation,15,106070,0.0-9.0-1.0,SS1649108043408,3700.2000000476837,NA,NA,32,500,4200.200000047684,images/stimuli/complex_20_A_b.gif,images/stimuli/complex_22_A_b.gif,self_paced,280,NA,NA,NA,NA,NA,NA,NA,NA,NA,NA
NA,html-keyboard-response,16,107185,0.0-9.0-0.1,SS1649108043408,NA,NA,NA,null,NA,NA,NA,NA,NA,NA,NA,"<p><img src= images/blank.png width =""600"" height = ""600"" style=""position:fixed;top:50%; left:50%; transform: translate(-50%, -50%); border:5px solid black"">",NA,NA,NA,NA,NA,NA,NA,NA
NA,stimuli-presentation,17,109243,0.0-9.0-1.1,SS1649108043408,1138.7999999523163,NA,NA,32,500,1638.7999999523165,images/stimuli/complex_20_A_b.gif,images/stimuli/complex_22_A_b.gif,self_paced,280,NA,NA,NA,NA,NA,NA,NA,NA,NA,NA
NA,html-keyboard-response,18,110176,0.0-9.0-0.2,SS1649108043408,NA,NA,NA,null,NA,NA,NA,NA,NA,NA,NA,"<p><img src= images/blank.png width =""600"" height = ""600"" style=""position:fixed;top:50%; left:50%; transform: translate(-50%, -50%); border:5px solid black"">",NA,NA,NA,NA,NA,NA,NA,NA
NA,stimuli-presentation,19,112450,0.0-9.0-1.2,SS1649108043408,1365,NA,NA,32,500,1865,images/stimuli/complex_20_A_b.gif,images/stimuli/complex_22_A_b.gif,self_paced,280,NA,NA,NA,NA,NA,NA,NA,NA,NA,NA
NA,html-button-response,20,119469,0.0-10.0,SS1649108043408,7016.300000071526,NA,NA,NA,NA,NA,NA,NA,NA,NA,NA,NA,1,memory_practice,right,NA,NA,NA,NA,NA
NA,instructions,21,145532,0.0-11.0,SS1649108043408,26061.5,NA,NA,NA,NA,NA,NA,NA,NA,NA,"[{""page_index"":0,""viewing_time"":26060.5}]",NA,NA,NA,NA,NA,NA,NA,NA,NA
NA,stimuli-presentation,22,153596,0.0-12.0,SS1649108043408,7150.600000023842,NA,NA,32,500,7650.600000023842,null,null,self_paced,0,NA,NA,NA,NA,NA,NA,NA,NA,NA,NA
NA,html-keyboard-response,23,154533,0.0-13.0-0.0,SS1649108043408,NA,NA,NA,null,NA,NA,NA,NA,NA,NA,NA,"<p><img src= images/blank.png width =""600"" height = ""600"" style=""position:fixed;top:50%; left:50%; transform: translate(-50%, -50%); border:5px solid black"">",NA,NA,NA,NA,NA,NA,NA,NA
NA,stimuli-presentation,24,158132,0.0-13.0-1.0,SS1649108043408,2682.600000023842,NA,NA,32,500,3182.600000023842,images/stimuli/complex_12_A_a.gif,images/stimuli/complex_14_A_b.gif,self_paced,680,NA,NA,NA,trial,NA,complex,0,complex_dissimilar,images/stimuli/complex_14_A_b.gif,NA
NA,html-keyboard-response,25,159353,0.0-13.0-0.1,SS1649108043408,NA,NA,NA,null,NA,NA,NA,NA,NA,NA,NA,"<p><img src= images/blank.png width =""600"" height = ""600"" style=""position:fixed;top:50%; left:50%; transform: translate(-50%, -50%); border:5px solid black"">",NA,NA,NA,NA,NA,NA,NA,NA
NA,stimuli-presentation,26,163228,0.0-13.0-1.1,SS1649108043408,2966.100000023842,NA,NA,32,500,3466.100000023842,images/stimuli/complex_12_A_a.gif,images/stimuli/complex_14_A_b.gif,self_paced,680,NA,NA,NA,trial,NA,complex,0,complex_dissimilar,images/stimuli/complex_14_A_b.gif,NA
NA,html-keyboard-response,27,164250,0.0-13.0-0.2,SS1649108043408,NA,NA,NA,null,NA,NA,NA,NA,NA,NA,NA,"<p><img src= images/blank.png width =""600"" height = ""600"" style=""position:fixed;top:50%; left:50%; transform: translate(-50%, -50%); border:5px solid black"">",NA,NA,NA,NA,NA,NA,NA,NA
NA,stimuli-presentation,28,167115,0.0-13.0-1.2,SS1649108043408,1946.6000000238419,NA,NA,32,500,2446.600000023842,images/stimuli/complex_12_A_a.gif,images/stimuli/complex_14_A_b.gif,self_paced,680,NA,NA,NA,trial,NA,complex,0,complex_dissimilar,images/stimuli/complex_14_A_b.gif,NA
NA,html-keyboard-response,29,167993,0.0-13.0-0.3,SS1649108043408,NA,NA,NA,null,NA,NA,NA,NA,NA,NA,NA,"<p><img src= images/blank.png width =""600"" height = ""600"" style=""position:fixed;top:50%; left:50%; transform: translate(-50%, -50%); border:5px solid black"">",NA,NA,NA,NA,NA,NA,NA,NA
NA,stimuli-presentation,30,170939,0.0-13.0-1.3,SS1649108043408,2029.4000000953674,NA,NA,32,500,2529.400000095367,images/stimuli/complex_12_A_a.gif,images/stimuli/complex_14_A_b.gif,self_paced,680,NA,NA,NA,trial,NA,complex,0,complex_dissimilar,images/stimuli/complex_14_A_b.gif,NA
NA,html-keyboard-response,31,172147,0.0-13.0-0.4,SS1649108043408,NA,NA,NA,null,NA,NA,NA,NA,NA,NA,NA,"<p><img src= images/blank.png width =""600"" height = ""600"" style=""position:fixed;top:50%; left:50%; transform: translate(-50%, -50%); border:5px solid black"">",NA,NA,NA,NA,NA,NA,NA,NA
NA,stimuli-presentation,32,174606,0.0-13.0-1.4,SS1649108043408,1542,NA,NA,32,500,2042,images/stimuli/complex_12_A_a.gif,images/stimuli/complex_14_A_b.gif,self_paced,680,NA,NA,NA,trial,NA,complex,0,complex_dissimilar,images/stimuli/complex_14_A_b.gif,NA
NA,html-keyboard-response,33,175589,0.0-13.0-0.5,SS1649108043408,NA,NA,NA,null,NA,NA,NA,NA,NA,NA,NA,"<p><img src= images/blank.png width =""600"" height = ""600"" style=""position:fixed;top:50%; left:50%; transform: translate(-50%, -50%); border:5px solid black"">",NA,NA,NA,NA,NA,NA,NA,NA
NA,stimuli-presentation,34,181107,0.0-13.0-1.5,SS1649108043408,4607.600000023842,NA,NA,32,500,5107.600000023842,images/stimuli/complex_12_A_a.gif,images/stimuli/complex_14_A_b.gif,self_paced,680,NA,NA,NA,trial,NA,complex,0,complex_dissimilar,images/stimuli/complex_12_A_a.gif,NA
NA,html-button-response,35,186912,0.0-14.0,SS1649108043408,5803.200000047684,NA,NA,NA,NA,NA,NA,NA,NA,NA,NA,NA,0,memory_test,left,NA,NA,NA,NA,0
NA,instructions,36,192153,0.0-15.0,SS1649108043408,5238.100000023842,NA,NA,NA,NA,NA,NA,NA,NA,NA,"[{""page_index"":0,""viewing_time"":5237.799999952316}]",NA,NA,NA,NA,NA,NA,NA,NA,NA
NA,instructions,37,200960,0.0-16.0,SS1649108043408,8805.800000071526,NA,NA,NA,NA,NA,NA,NA,NA,NA,"[{""page_index"":0,""viewing_time"":8804.700000047684}]",NA,NA,NA,NA,NA,NA,NA,NA,NA
NA,html-keyboard-response,38,201965,0.0-17.0-0.0,SS1649108043408,NA,NA,NA,null,NA,NA,NA,NA,NA,NA,NA,"<p><img src= images/blank.png width =""600"" height = ""600"" style=""position:fixed;top:50%; left:50%; transform: translate(-50%, -50%); border:5px solid black"">",NA,NA,NA,NA,NA,NA,NA,NA
NA,stimuli-presentation,39,208730,0.0-17.0-1.0,SS1649108043408,5847.200000047684,NA,NA,32,500,6347.200000047684,images/stimuli/complex_18_A_b.gif,images/stimuli/complex_07_A_a.gif,self_paced,710,NA,NA,NA,trial,NA,complex,1,complex_dissimilar,images/stimuli/complex_07_A_a.gif,NA
NA,html-keyboard-response,40,209989,0.0-17.0-0.1,SS1649108043408,NA,NA,NA,null,NA,NA,NA,NA,NA,NA,NA,"<p><img src= images/blank.png width =""600"" height = ""600"" style=""position:fixed;top:50%; left:50%; transform: translate(-50%, -50%); border:5px solid black"">",NA,NA,NA,NA,NA,NA,NA,NA
NA,stimuli-presentation,41,211000,0.0-17.0-1.1,SS1649108043408,92.89999997615814,NA,NA,32,500,592.8999999761581,images/stimuli/complex_18_A_b.gif,images/stimuli/complex_07_A_a.gif,self_paced,710,NA,NA,NA,trial,NA,complex,1,complex_dissimilar,images/stimuli/complex_07_A_a.gif,NA
NA,html-keyboard-response,42,212151,0.0-17.0-0.2,SS1649108043408,NA,NA,NA,null,NA,NA,NA,NA,NA,NA,NA,"<p><img src= images/blank.png width =""600"" height = ""600"" style=""position:fixed;top:50%; left:50%; transform: translate(-50%, -50%); border:5px solid black"">",NA,NA,NA,NA,NA,NA,NA,NA
NA,stimuli-presentation,43,213202,0.0-17.0-1.2,SS1649108043408,140.90000009536743,NA,NA,32,500,640.9000000953674,images/stimuli/complex_18_A_b.gif,images/stimuli/complex_07_A_a.gif,self_paced,710,NA,NA,NA,trial,NA,complex,1,complex_dissimilar,images/stimuli/complex_07_A_a.gif,NA
NA,html-keyboard-response,44,214106,0.0-17.0-0.3,SS1649108043408,NA,NA,NA,null,NA,NA,NA,NA,NA,NA,NA,"<p><img src= images/blank.png width =""600"" height = ""600"" style=""position:fixed;top:50%; left:50%; transform: translate(-50%, -50%); border:5px solid black"">",NA,NA,NA,NA,NA,NA,NA,NA
NA,stimuli-presentation,45,215321,0.0-17.0-1.3,SS1649108043408,307.10000002384186,NA,NA,32,500,807.1000000238419,images/stimuli/complex_18_A_b.gif,images/stimuli/complex_07_A_a.gif,self_paced,710,NA,NA,NA,trial,NA,complex,1,complex_dissimilar,images/stimuli/complex_07_A_a.gif,NA
NA,html-keyboard-response,46,216536,0.0-17.0-0.4,SS1649108043408,NA,NA,NA,null,NA,NA,NA,NA,NA,NA,NA,"<p><img src= images/blank.png width =""600"" height = ""600"" style=""position:fixed;top:50%; left:50%; transform: translate(-50%, -50%); border:5px solid black"">",NA,NA,NA,NA,NA,NA,NA,NA
NA,stimuli-presentation,47,217781,0.0-17.0-1.4,SS1649108043408,327.6999999284744,NA,NA,32,500,827.6999999284744,images/stimuli/complex_18_A_b.gif,images/stimuli/complex_07_A_a.gif,self_paced,710,NA,NA,NA,trial,NA,complex,1,complex_dissimilar,images/stimuli/complex_07_A_a.gif,NA
NA,html-keyboard-response,48,219081,0.0-17.0-0.5,SS1649108043408,NA,NA,NA,null,NA,NA,NA,NA,NA,NA,NA,"<p><img src= images/blank.png width =""600"" height = ""600"" style=""position:fixed;top:50%; left:50%; transform: translate(-50%, -50%); border:5px solid black"">",NA,NA,NA,NA,NA,NA,NA,NA
NA,stimuli-presentation,49,222120,0.0-17.0-1.5,SS1649108043408,2125.1999999284744,NA,NA,32,500,2625.1999999284744,images/stimuli/complex_18_A_b.gif,images/stimuli/complex_07_A_a.gif,self_paced,710,NA,NA,NA,trial,NA,complex,1,complex_dissimilar,images/stimuli/complex_07_A_a.gif,NA
NA,html-button-response,50,225430,0.0-18.0,SS1649108043408,3302.5,NA,NA,NA,NA,NA,NA,NA,NA,NA,NA,NA,0,memory_test,left,NA,NA,NA,NA,1
NA,instructions,51,228816,0.0-19.0,SS1649108043408,3380.5,NA,NA,NA,NA,NA,NA,NA,NA,NA,"[{""page_index"":0,""viewing_time"":3380.2999999523163}]",NA,NA,NA,NA,NA,NA,NA,NA,NA
NA,instructions,52,236863,0.0-20.0,SS1649108043408,8039.399999976158,NA,NA,NA,NA,NA,NA,NA,NA,NA,"[{""page_index"":0,""viewing_time"":8039}]",NA,NA,NA,NA,NA,NA,NA,NA,NA
NA,html-keyboard-response,53,238021,0.0-21.0-0.0,SS1649108043408,NA,NA,NA,null,NA,NA,NA,NA,NA,NA,NA,"<p><img src= images/blank.png width =""600"" height = ""600"" style=""position:fixed;top:50%; left:50%; transform: translate(-50%, -50%); border:5px solid black"">",NA,NA,NA,NA,NA,NA,NA,NA
NA,stimuli-presentation,54,241845,0.0-21.0-1.0,SS1649108043408,2905.100000023842,NA,NA,32,500,3405.100000023842,images/stimuli/complex_17_A_b.gif,images/stimuli/complex_08_A_a.gif,self_paced,540,NA,NA,NA,trial,NA,complex,2,complex_dissimilar,images/stimuli/complex_08_A_a.gif,NA
NA,html-keyboard-response,55,242895,0.0-21.0-0.1,SS1649108043408,NA,NA,NA,null,NA,NA,NA,NA,NA,NA,NA,"<p><img src= images/blank.png width =""600"" height = ""600"" style=""position:fixed;top:50%; left:50%; transform: translate(-50%, -50%); border:5px solid black"">",NA,NA,NA,NA,NA,NA,NA,NA
NA,stimuli-presentation,56,248038,0.0-21.0-1.1,SS1649108043408,4232.799999952316,NA,NA,32,500,4732.799999952316,images/stimuli/complex_17_A_b.gif,images/stimuli/complex_08_A_a.gif,self_paced,540,NA,NA,NA,trial,NA,complex,2,complex_dissimilar,images/stimuli/complex_17_A_b.gif,NA
NA,html-keyboard-response,57,249089,0.0-21.0-0.2,SS1649108043408,NA,NA,NA,null,NA,NA,NA,NA,NA,NA,NA,"<p><img src= images/blank.png width =""600"" height = ""600"" style=""position:fixed;top:50%; left:50%; transform: translate(-50%, -50%); border:5px solid black"">",NA,NA,NA,NA,NA,NA,NA,NA
NA,stimuli-presentation,58,252930,0.0-21.0-1.2,SS1649108043408,2924.399999976158,NA,NA,32,500,3424.399999976158,images/stimuli/complex_17_A_b.gif,images/stimuli/complex_08_A_a.gif,self_paced,540,NA,NA,NA,trial,NA,complex,2,complex_dissimilar,images/stimuli/complex_08_A_a.gif,NA
NA,html-keyboard-response,59,253926,0.0-21.0-0.3,SS1649108043408,NA,NA,NA,null,NA,NA,NA,NA,NA,NA,NA,"<p><img src= images/blank.png width =""600"" height = ""600"" style=""position:fixed;top:50%; left:50%; transform: translate(-50%, -50%); border:5px solid black"">",NA,NA,NA,NA,NA,NA,NA,NA
NA,stimuli-presentation,60,255707,0.0-21.0-1.3,SS1649108043408,870.2000000476837,NA,NA,32,500,1370.2000000476835,images/stimuli/complex_17_A_b.gif,images/stimuli/complex_08_A_a.gif,self_paced,540,NA,NA,NA,trial,NA,complex,2,complex_dissimilar,images/stimuli/complex_08_A_a.gif,NA
NA,html-keyboard-response,61,256678,0.0-21.0-0.4,SS1649108043408,NA,NA,NA,null,NA,NA,NA,NA,NA,NA,NA,"<p><img src= images/blank.png width =""600"" height = ""600"" style=""position:fixed;top:50%; left:50%; transform: translate(-50%, -50%); border:5px solid black"">",NA,NA,NA,NA,NA,NA,NA,NA
NA,stimuli-presentation,62,259350,0.0-21.0-1.4,SS1649108043408,1756.1000000238419,NA,NA,32,500,2256.100000023842,images/stimuli/complex_17_A_b.gif,images/stimuli/complex_08_A_a.gif,self_paced,540,NA,NA,NA,trial,NA,complex,2,complex_dissimilar,images/stimuli/complex_08_A_a.gif,NA
NA,html-keyboard-response,63,260365,0.0-21.0-0.5,SS1649108043408,NA,NA,NA,null,NA,NA,NA,NA,NA,NA,NA,"<p><img src= images/blank.png width =""600"" height = ""600"" style=""position:fixed;top:50%; left:50%; transform: translate(-50%, -50%); border:5px solid black"">",NA,NA,NA,NA,NA,NA,NA,NA
NA,stimuli-presentation,64,264300,0.0-21.0-1.5,SS1649108043408,3026.7000000476837,NA,NA,32,500,3526.7000000476837,images/stimuli/complex_17_A_b.gif,images/stimuli/complex_08_A_a.gif,self_paced,540,NA,NA,NA,trial,NA,complex,2,complex_dissimilar,images/stimuli/complex_08_A_a.gif,NA
NA,html-button-response,65,268020,0.0-22.0,SS1649108043408,3717.2000000476837,NA,NA,NA,NA,NA,NA,NA,NA,NA,NA,NA,0,memory_test,left,NA,NA,NA,NA,2
NA,instructions,66,271322,0.0-23.0,SS1649108043408,3298.7000000476837,NA,NA,NA,NA,NA,NA,NA,NA,NA,"[{""page_index"":0,""viewing_time"":3298.3000000715256}]",NA,NA,NA,NA,NA,NA,NA,NA,NA
NA,instructions,67,280184,0.0-24.0,SS1649108043408,8858.100000023842,NA,NA,NA,NA,NA,NA,NA,NA,NA,"[{""page_index"":0,""viewing_time"":8857.5}]",NA,NA,NA,NA,NA,NA,NA,NA,NA
NA,html-keyboard-response,68,281465,0.0-25.0-0.0,SS1649108043408,NA,NA,NA,null,NA,NA,NA,NA,NA,NA,NA,"<p><img src= images/blank.png width =""600"" height = ""600"" style=""position:fixed;top:50%; left:50%; transform: translate(-50%, -50%); border:5px solid black"">",NA,NA,NA,NA,NA,NA,NA,NA
NA,stimuli-presentation,69,285946,0.0-25.0-1.0,SS1649108043408,3565.2000000476837,NA,NA,32,500,4065.200000047684,images/stimuli/complex_04_A_b.gif,images/stimuli/complex_05_A_b.gif,self_paced,910,NA,NA,NA,trial,NA,complex,3,complex_dissimilar,images/stimuli/complex_05_A_b.gif,NA
NA,html-keyboard-response,70,286850,0.0-25.0-0.1,SS1649108043408,NA,NA,NA,null,NA,NA,NA,NA,NA,NA,NA,"<p><img src= images/blank.png width =""600"" height = ""600"" style=""position:fixed;top:50%; left:50%; transform: translate(-50%, -50%); border:5px solid black"">",NA,NA,NA,NA,NA,NA,NA,NA
NA,stimuli-presentation,71,288563,0.0-25.0-1.1,SS1649108043408,797.7000000476837,NA,NA,32,500,1297.7000000476835,images/stimuli/complex_04_A_b.gif,images/stimuli/complex_05_A_b.gif,self_paced,910,NA,NA,NA,trial,NA,complex,3,complex_dissimilar,images/stimuli/complex_05_A_b.gif,NA
NA,html-keyboard-response,72,289769,0.0-25.0-0.2,SS1649108043408,NA,NA,NA,null,NA,NA,NA,NA,NA,NA,NA,"<p><img src= images/blank.png width =""600"" height = ""600"" style=""position:fixed;top:50%; left:50%; transform: translate(-50%, -50%); border:5px solid black"">",NA,NA,NA,NA,NA,NA,NA,NA
NA,stimuli-presentation,73,291712,0.0-25.0-1.2,SS1649108043408,1032.1000000238419,NA,NA,32,500,1532.100000023842,images/stimuli/complex_04_A_b.gif,images/stimuli/complex_05_A_b.gif,self_paced,910,NA,NA,NA,trial,NA,complex,3,complex_dissimilar,images/stimuli/complex_05_A_b.gif,NA
NA,html-keyboard-response,74,292533,0.0-25.0-0.3,SS1649108043408,NA,NA,NA,null,NA,NA,NA,NA,NA,NA,NA,"<p><img src= images/blank.png width =""600"" height = ""600"" style=""position:fixed;top:50%; left:50%; transform: translate(-50%, -50%); border:5px solid black"">",NA,NA,NA,NA,NA,NA,NA,NA
NA,stimuli-presentation,75,294947,0.0-25.0-1.3,SS1649108043408,1494.1000000238419,NA,NA,32,500,1994.100000023842,images/stimuli/complex_04_A_b.gif,images/stimuli/complex_05_A_b.gif,self_paced,910,NA,NA,NA,trial,NA,complex,3,complex_dissimilar,images/stimuli/complex_05_A_b.gif,NA
NA,html-keyboard-response,76,295781,0.0-25.0-0.4,SS1649108043408,NA,NA,NA,null,NA,NA,NA,NA,NA,NA,NA,"<p><img src= images/blank.png width =""600"" height = ""600"" style=""position:fixed;top:50%; left:50%; transform: translate(-50%, -50%); border:5px solid black"">",NA,NA,NA,NA,NA,NA,NA,NA
NA,stimuli-presentation,77,297762,0.0-25.0-1.4,SS1649108043408,1067.6000000238419,NA,NA,32,500,1567.600000023842,images/stimuli/complex_04_A_b.gif,images/stimuli/complex_05_A_b.gif,self_paced,910,NA,NA,NA,trial,NA,complex,3,complex_dissimilar,images/stimuli/complex_05_A_b.gif,NA
NA,html-keyboard-response,78,298693,0.0-25.0-0.5,SS1649108043408,NA,NA,NA,null,NA,NA,NA,NA,NA,NA,NA,"<p><img src= images/blank.png width =""600"" height = ""600"" style=""position:fixed;top:50%; left:50%; transform: translate(-50%, -50%); border:5px solid black"">",NA,NA,NA,NA,NA,NA,NA,NA
NA,stimuli-presentation,79,300185,0.0-25.0-1.5,SS1649108043408,573.3999999761581,NA,NA,32,500,1073.399999976158,images/stimuli/complex_04_A_b.gif,images/stimuli/complex_05_A_b.gif,self_paced,910,NA,NA,NA,trial,NA,complex,3,complex_dissimilar,images/stimuli/complex_05_A_b.gif,NA
NA,html-button-response,80,303008,0.0-26.0,SS1649108043408,2817.7999999523163,NA,NA,NA,NA,NA,NA,NA,NA,NA,NA,NA,0,memory_test,left,NA,NA,NA,NA,3
NA,instructions,81,306792,0.0-27.0,SS1649108043408,3781.600000023842,NA,NA,NA,NA,NA,NA,NA,NA,NA,"[{""page_index"":0,""viewing_time"":3781.100000023842}]",NA,NA,NA,NA,NA,NA,NA,NA,NA
NA,instructions,82,320689,0.0-28.0,SS1649108043408,13894.099999904633,NA,NA,NA,NA,NA,NA,NA,NA,NA,"[{""page_index"":0,""viewing_time"":13893.599999904633}]",NA,NA,NA,NA,NA,NA,NA,NA,NA
NA,html-keyboard-response,83,321528,0.0-29.0-0.0,SS1649108043408,NA,NA,NA,null,NA,NA,NA,NA,NA,NA,NA,"<p><img src= images/blank.png width =""600"" height = ""600"" style=""position:fixed;top:50%; left:50%; transform: translate(-50%, -50%); border:5px solid black"">",NA,NA,NA,NA,NA,NA,NA,NA
NA,stimuli-presentation,84,324846,0.0-29.0-1.0,SS1649108043408,2404.600000023842,NA,NA,32,500,2904.600000023842,images/stimuli/complex_11_A_a.gif,images/stimuli/complex_10_A_b.gif,self_paced,790,NA,NA,NA,trial,NA,complex,4,complex_dissimilar,images/stimuli/complex_10_A_b.gif,NA
NA,html-keyboard-response,85,325882,0.0-29.0-0.1,SS1649108043408,NA,NA,NA,null,NA,NA,NA,NA,NA,NA,NA,"<p><img src= images/blank.png width =""600"" height = ""600"" style=""position:fixed;top:50%; left:50%; transform: translate(-50%, -50%); border:5px solid black"">",NA,NA,NA,NA,NA,NA,NA,NA
NA,stimuli-presentation,86,327301,0.0-29.0-1.1,SS1649108043408,507.10000002384186,NA,NA,32,500,1007.100000023842,images/stimuli/complex_11_A_a.gif,images/stimuli/complex_10_A_b.gif,self_paced,790,NA,NA,NA,trial,NA,complex,4,complex_dissimilar,images/stimuli/complex_10_A_b.gif,NA
NA,html-keyboard-response,87,328613,0.0-29.0-0.2,SS1649108043408,NA,NA,NA,null,NA,NA,NA,NA,NA,NA,NA,"<p><img src= images/blank.png width =""600"" height = ""600"" style=""position:fixed;top:50%; left:50%; transform: translate(-50%, -50%); border:5px solid black"">",NA,NA,NA,NA,NA,NA,NA,NA
NA,stimuli-presentation,88,333307,0.0-29.0-1.2,SS1649108043408,3775,NA,NA,32,500,4275,images/stimuli/complex_11_A_a.gif,images/stimuli/complex_10_A_b.gif,self_paced,790,NA,NA,NA,trial,NA,complex,4,complex_dissimilar,images/stimuli/complex_10_A_b.gif,NA
NA,html-keyboard-response,89,334211,0.0-29.0-0.3,SS1649108043408,NA,NA,NA,null,NA,NA,NA,NA,NA,NA,NA,"<p><img src= images/blank.png width =""600"" height = ""600"" style=""position:fixed;top:50%; left:50%; transform: translate(-50%, -50%); border:5px solid black"">",NA,NA,NA,NA,NA,NA,NA,NA
NA,stimuli-presentation,90,338393,0.0-29.0-1.3,SS1649108043408,3263.899999976158,NA,NA,32,500,3763.899999976158,images/stimuli/complex_11_A_a.gif,images/stimuli/complex_10_A_b.gif,self_paced,790,NA,NA,NA,trial,NA,complex,4,complex_dissimilar,images/stimuli/complex_10_A_b.gif,NA
NA,html-keyboard-response,91,339610,0.0-29.0-0.4,SS1649108043408,NA,NA,NA,null,NA,NA,NA,NA,NA,NA,NA,"<p><img src= images/blank.png width =""600"" height = ""600"" style=""position:fixed;top:50%; left:50%; transform: translate(-50%, -50%); border:5px solid black"">",NA,NA,NA,NA,NA,NA,NA,NA
NA,stimuli-presentation,92,341448,0.0-29.0-1.4,SS1649108043408,921,NA,NA,32,500,1421,images/stimuli/complex_11_A_a.gif,images/stimuli/complex_10_A_b.gif,self_paced,790,NA,NA,NA,trial,NA,complex,4,complex_dissimilar,images/stimuli/complex_10_A_b.gif,NA
NA,html-keyboard-response,93,342512,0.0-29.0-0.5,SS1649108043408,NA,NA,NA,null,NA,NA,NA,NA,NA,NA,NA,"<p><img src= images/blank.png width =""600"" height = ""600"" style=""position:fixed;top:50%; left:50%; transform: translate(-50%, -50%); border:5px solid black"">",NA,NA,NA,NA,NA,NA,NA,NA
NA,stimuli-presentation,94,345134,0.0-29.0-1.5,SS1649108043408,1710.9000000953674,NA,NA,32,500,2210.900000095367,images/stimuli/complex_11_A_a.gif,images/stimuli/complex_10_A_b.gif,self_paced,790,NA,NA,NA,trial,NA,complex,4,complex_dissimilar,images/stimuli/complex_11_A_a.gif,NA
NA,html-button-response,95,348470,0.0-30.0,SS1649108043408,3331.5,NA,NA,NA,NA,NA,NA,NA,NA,NA,NA,NA,1,memory_test,right,NA,NA,NA,NA,4
NA,instructions,96,353425,0.0-31.0,SS1649108043408,4952.300000071526,NA,NA,NA,NA,NA,NA,NA,NA,NA,"[{""page_index"":0,""viewing_time"":4951.800000071526}]",NA,NA,NA,NA,NA,NA,NA,NA,NA
NA,instructions,97,376623,0.0-32.0,SS1649108043408,23193.399999976158,NA,NA,NA,NA,NA,NA,NA,NA,NA,"[{""page_index"":0,""viewing_time"":23193.100000023842}]",NA,NA,NA,NA,NA,NA,NA,NA,NA
NA,html-keyboard-response,98,377507,0.0-33.0-0.0,SS1649108043408,NA,NA,NA,null,NA,NA,NA,NA,NA,NA,NA,"<p><img src= images/blank.png width =""600"" height = ""600"" style=""position:fixed;top:50%; left:50%; transform: translate(-50%, -50%); border:5px solid black"">",NA,NA,NA,NA,NA,NA,NA,NA
NA,stimuli-presentation,99,381555,0.0-33.0-1.0,SS1649108043408,3132.6999999284744,NA,NA,32,500,3632.6999999284744,images/stimuli/complex_15_A_b.gif,images/stimuli/complex_21_A_a.gif,self_paced,710,NA,NA,NA,trial,NA,complex,5,complex_dissimilar,images/stimuli/complex_21_A_a.gif,NA
NA,html-keyboard-response,100,382362,0.0-33.0-0.1,SS1649108043408,NA,NA,NA,null,NA,NA,NA,NA,NA,NA,NA,"<p><img src= images/blank.png width =""600"" height = ""600"" style=""position:fixed;top:50%; left:50%; transform: translate(-50%, -50%); border:5px solid black"">",NA,NA,NA,NA,NA,NA,NA,NA
NA,stimuli-presentation,101,384454,0.0-33.0-1.1,SS1649108043408,1181.7999999523163,NA,NA,32,500,1681.7999999523165,images/stimuli/complex_15_A_b.gif,images/stimuli/complex_21_A_a.gif,self_paced,710,NA,NA,NA,trial,NA,complex,5,complex_dissimilar,images/stimuli/complex_21_A_a.gif,NA
NA,html-keyboard-response,102,385620,0.0-33.0-0.2,SS1649108043408,NA,NA,NA,null,NA,NA,NA,NA,NA,NA,NA,"<p><img src= images/blank.png width =""600"" height = ""600"" style=""position:fixed;top:50%; left:50%; transform: translate(-50%, -50%); border:5px solid black"">",NA,NA,NA,NA,NA,NA,NA,NA
NA,stimuli-presentation,103,386950,0.0-33.0-1.2,SS1649108043408,414.7000000476837,NA,NA,32,500,914.7000000476836,images/stimuli/complex_15_A_b.gif,images/stimuli/complex_21_A_a.gif,self_paced,710,NA,NA,NA,trial,NA,complex,5,complex_dissimilar,images/stimuli/complex_21_A_a.gif,NA
NA,html-keyboard-response,104,388226,0.0-33.0-0.3,SS1649108043408,NA,NA,NA,null,NA,NA,NA,NA,NA,NA,NA,"<p><img src= images/blank.png width =""600"" height = ""600"" style=""position:fixed;top:50%; left:50%; transform: translate(-50%, -50%); border:5px solid black"">",NA,NA,NA,NA,NA,NA,NA,NA
NA,stimuli-presentation,105,389968,0.0-33.0-1.3,SS1649108043408,833.5,NA,NA,32,500,1333.5,images/stimuli/complex_15_A_b.gif,images/stimuli/complex_21_A_a.gif,self_paced,710,NA,NA,NA,trial,NA,complex,5,complex_dissimilar,images/stimuli/complex_15_A_b.gif,NA
NA,html-keyboard-response,106,391080,0.0-33.0-0.4,SS1649108043408,NA,NA,NA,null,NA,NA,NA,NA,NA,NA,NA,"<p><img src= images/blank.png width =""600"" height = ""600"" style=""position:fixed;top:50%; left:50%; transform: translate(-50%, -50%); border:5px solid black"">",NA,NA,NA,NA,NA,NA,NA,NA
NA,stimuli-presentation,107,392799,0.0-33.0-1.4,SS1649108043408,804.7000000476837,NA,NA,32,500,1304.7000000476835,images/stimuli/complex_15_A_b.gif,images/stimuli/complex_21_A_a.gif,self_paced,710,NA,NA,NA,trial,NA,complex,5,complex_dissimilar,images/stimuli/complex_21_A_a.gif,NA
NA,html-keyboard-response,108,393694,0.0-33.0-0.5,SS1649108043408,NA,NA,NA,null,NA,NA,NA,NA,NA,NA,NA,"<p><img src= images/blank.png width =""600"" height = ""600"" style=""position:fixed;top:50%; left:50%; transform: translate(-50%, -50%); border:5px solid black"">",NA,NA,NA,NA,NA,NA,NA,NA
NA,stimuli-presentation,109,395139,0.0-33.0-1.5,SS1649108043408,535.7999999523163,NA,NA,32,500,1035.7999999523165,images/stimuli/complex_15_A_b.gif,images/stimuli/complex_21_A_a.gif,self_paced,710,NA,NA,NA,trial,NA,complex,5,complex_dissimilar,images/stimuli/complex_21_A_a.gif,NA
NA,html-button-response,110,397438,0.0-34.0,SS1649108043408,2295.2000000476837,NA,NA,NA,NA,NA,NA,NA,NA,NA,NA,NA,1,memory_test,right,NA,NA,NA,NA,5
