view_history,rt,trial_type,trial_index,time_elapsed,internal_node_id,subject,success,responses,stimulus,button_pressed,trial_stimulus,key_press,minimum_viewing_duration,trial_looking_time,block_deviant,block_background,exposure_type,forced_exposure_time,version,block_number,block_type,stimulus_type,stimulus_displayed,memory_block_index,memory_block_answer,memory_options_left,memory_options_right,question_order
"[{""page_index"":0,""viewing_time"":46734.70000001788},{""page_index"":1,""viewing_time"":9995.399999976158},{""page_index"":2,""viewing_time"":24383.600000023842},{""page_index"":3,""viewing_time"":22092.899999976158}]",103207.90000000596,instructions,0,103301,0.0-0.0,SS1630688655716,NA,NA,NA,NA,NA,NA,NA,NA,NA,NA,NA,NA,NA,NA,NA,NA,NA,NA,NA,NA,NA,NA
NA,NA,fullscreen,1,109534,0.0-1.0,SS1630688655716,TRUE,NA,NA,NA,NA,NA,NA,NA,NA,NA,NA,NA,NA,NA,NA,NA,NA,NA,NA,NA,NA,NA
"[{""page_index"":0,""viewing_time"":8097.5},{""page_index"":1,""viewing_time"":26602.20000001788},{""page_index"":2,""viewing_time"":8497.699999988079},{""page_index"":3,""viewing_time"":56047.59999999404},{""page_index"":4,""viewing_time"":30200.40000000596}]",129446,instructions,2,238978,0.0-2.0,SS1630688655716,NA,NA,NA,NA,NA,NA,NA,NA,NA,NA,NA,NA,NA,NA,NA,NA,NA,NA,NA,NA,NA,NA
NA,13943.5,demog-age,3,252931,0.0-3.0,SS1630688655716,NA,"{""redcap_id"":""oc664""}",NA,NA,NA,NA,NA,NA,NA,NA,NA,NA,NA,NA,NA,NA,NA,NA,NA,NA,NA,NA
NA,16791.30000001192,html-button-response,4,269725,0.0-4.0,SS1630688655716,NA,NA,"<p><img src= images/seemore.gif width =""400"" height = ""400""</p>",0,NA,NA,NA,NA,NA,NA,NA,NA,NA,NA,NA,NA,NA,NA,NA,NA,NA,NA
NA,20086.19999998808,stimuli-presentation,5,290727,0.0-5.0-0.0,SS1630688655716,NA,NA,NA,NA,NA,32,500,20586.19999998808,null,null,self_paced,0,NA,NA,NA,NA,NA,NA,NA,NA,NA,NA
"[{""page_index"":0,""viewing_time"":5340.200000017881}]",5340.5999999940395,instructions,6,296074,0.0-5.0-1.0,SS1630688655716,NA,NA,NA,NA,NA,NA,NA,NA,NA,NA,NA,NA,NA,NA,NA,NA,NA,NA,NA,NA,NA,NA
NA,33298.5,stimuli-presentation,7,330285,0.0-5.0-2.0,SS1630688655716,NA,NA,NA,NA,NA,32,500,33798.5,null,null,self_paced,0,NA,NA,NA,NA,NA,NA,NA,NA,NA,NA
"[{""page_index"":0,""viewing_time"":4685.799999982119}]",4686.399999976158,instructions,8,334973,0.0-5.0-3.0,SS1630688655716,NA,NA,NA,NA,NA,NA,NA,NA,NA,NA,NA,NA,NA,NA,NA,NA,NA,NA,NA,NA,NA,NA
"[{""page_index"":0,""viewing_time"":16948.90000000596}]",16950,instructions,9,351925,0.0-5.0-4.0,SS1630688655716,NA,NA,NA,NA,NA,NA,NA,NA,NA,NA,NA,NA,NA,NA,NA,NA,NA,NA,NA,NA,NA,NA
NA,null,html-keyboard-response,10,352882,0.0-5.0-5.0-0.0,SS1630688655716,NA,NA,"<p><img src= images/blank.png width =""600"" height = ""600"" style=""position:fixed;top:50%; left:50%; transform: translate(-50%, -50%); border:5px solid black"">",NA,NA,null,NA,NA,NA,NA,NA,NA,NA,NA,NA,NA,NA,NA,NA,NA,NA,NA
NA,19371.19999998808,stimuli-presentation,11,373175,0.0-5.0-5.0-1.0,SS1630688655716,NA,NA,NA,NA,NA,32,500,19871.19999998808,images/stimuli/complex_01_A_b.gif,images/stimuli/complex_13_A_b.gif,self_paced,330,NA,NA,NA,NA,NA,NA,NA,NA,NA,NA
NA,null,html-keyboard-response,12,374401,0.0-5.0-5.0-0.1,SS1630688655716,NA,NA,"<p><img src= images/blank.png width =""600"" height = ""600"" style=""position:fixed;top:50%; left:50%; transform: translate(-50%, -50%); border:5px solid black"">",NA,NA,null,NA,NA,NA,NA,NA,NA,NA,NA,NA,NA,NA,NA,NA,NA,NA,NA
NA,6556.5999999940395,stimuli-presentation,13,381878,0.0-5.0-5.0-1.1,SS1630688655716,NA,NA,NA,NA,NA,32,500,7056.5999999940395,images/stimuli/complex_01_A_b.gif,images/stimuli/complex_13_A_b.gif,self_paced,330,NA,NA,NA,NA,NA,NA,NA,NA,NA,NA
NA,null,html-keyboard-response,14,383075,0.0-5.0-5.0-0.2,SS1630688655716,NA,NA,"<p><img src= images/blank.png width =""600"" height = ""600"" style=""position:fixed;top:50%; left:50%; transform: translate(-50%, -50%); border:5px solid black"">",NA,NA,null,NA,NA,NA,NA,NA,NA,NA,NA,NA,NA,NA,NA,NA,NA,NA,NA
NA,2101.699999988079,stimuli-presentation,15,386096,0.0-5.0-5.0-1.2,SS1630688655716,NA,NA,NA,NA,NA,32,500,2601.699999988079,images/stimuli/complex_01_A_b.gif,images/stimuli/complex_13_A_b.gif,self_paced,330,NA,NA,NA,NA,NA,NA,NA,NA,NA,NA
NA,18223.20000001788,html-button-response,16,404322,0.0-5.0-6.0,SS1630688655716,NA,NA,NA,1,NA,NA,NA,NA,NA,NA,NA,NA,NA,NA,NA,NA,NA,NA,NA,NA,NA,NA
"[{""page_index"":0,""viewing_time"":11645.200000017881}]",11645.800000011921,instructions,17,415970,0.0-5.0-7.0,SS1630688655716,NA,NA,NA,NA,NA,NA,NA,NA,NA,NA,NA,NA,NA,NA,NA,NA,NA,NA,NA,NA,NA,NA
NA,6082.0999999940395,stimuli-presentation,18,422974,0.0-5.0-8.0,SS1630688655716,NA,NA,NA,NA,NA,32,500,6582.0999999940395,null,null,self_paced,0,NA,NA,NA,NA,NA,NA,NA,NA,NA,NA
NA,null,html-keyboard-response,19,424153,0.0-5.0-9.0-0.0,SS1630688655716,NA,NA,"<p><img src= images/blank.png width =""600"" height = ""600"" style=""position:fixed;top:50%; left:50%; transform: translate(-50%, -50%); border:5px solid black"">",NA,NA,null,NA,NA,NA,NA,NA,NA,NA,NA,NA,NA,NA,NA,NA,NA,NA,NA
NA,17106.69999998808,stimuli-presentation,20,442182,0.0-5.0-9.0-1.0,SS1630688655716,NA,NA,NA,NA,NA,32,500,17606.69999998808,images/stimuli/complex_18_A_b.gif,images/stimuli/complex_23_A_b.gif,self_paced,540,complex,0,complex_dissimilar,trial,images/stimuli/complex_23_A_b.gif,NA,NA,NA,NA,NA
NA,null,html-keyboard-response,21,443240,0.0-5.0-9.0-0.1,SS1630688655716,NA,NA,"<p><img src= images/blank.png width =""600"" height = ""600"" style=""position:fixed;top:50%; left:50%; transform: translate(-50%, -50%); border:5px solid black"">",NA,NA,null,NA,NA,NA,NA,NA,NA,NA,NA,NA,NA,NA,NA,NA,NA,NA,NA
NA,1057.199999988079,stimuli-presentation,22,445216,0.0-5.0-9.0-1.1,SS1630688655716,NA,NA,NA,NA,NA,32,500,1557.199999988079,images/stimuli/complex_18_A_b.gif,images/stimuli/complex_23_A_b.gif,self_paced,540,complex,0,complex_dissimilar,trial,images/stimuli/complex_23_A_b.gif,NA,NA,NA,NA,NA
NA,null,html-keyboard-response,23,446221,0.0-5.0-9.0-0.2,SS1630688655716,NA,NA,"<p><img src= images/blank.png width =""600"" height = ""600"" style=""position:fixed;top:50%; left:50%; transform: translate(-50%, -50%); border:5px solid black"">",NA,NA,null,NA,NA,NA,NA,NA,NA,NA,NA,NA,NA,NA,NA,NA,NA,NA,NA
NA,165.90000000596046,stimuli-presentation,24,447304,0.0-5.0-9.0-1.2,SS1630688655716,NA,NA,NA,NA,NA,32,500,665.9000000059605,images/stimuli/complex_18_A_b.gif,images/stimuli/complex_23_A_b.gif,self_paced,540,complex,0,complex_dissimilar,trial,images/stimuli/complex_23_A_b.gif,NA,NA,NA,NA,NA
NA,null,html-keyboard-response,25,448349,0.0-5.0-9.0-0.3,SS1630688655716,NA,NA,"<p><img src= images/blank.png width =""600"" height = ""600"" style=""position:fixed;top:50%; left:50%; transform: translate(-50%, -50%); border:5px solid black"">",NA,NA,null,NA,NA,NA,NA,NA,NA,NA,NA,NA,NA,NA,NA,NA,NA,NA,NA
NA,1140.199999988079,stimuli-presentation,26,450407,0.0-5.0-9.0-1.3,SS1630688655716,NA,NA,NA,NA,NA,32,500,1640.199999988079,images/stimuli/complex_18_A_b.gif,images/stimuli/complex_23_A_b.gif,self_paced,540,complex,0,complex_dissimilar,trial,images/stimuli/complex_23_A_b.gif,NA,NA,NA,NA,NA
NA,null,html-keyboard-response,27,451650,0.0-5.0-9.0-0.4,SS1630688655716,NA,NA,"<p><img src= images/blank.png width =""600"" height = ""600"" style=""position:fixed;top:50%; left:50%; transform: translate(-50%, -50%); border:5px solid black"">",NA,NA,null,NA,NA,NA,NA,NA,NA,NA,NA,NA,NA,NA,NA,NA,NA,NA,NA
NA,338.90000000596046,stimuli-presentation,28,452906,0.0-5.0-9.0-1.4,SS1630688655716,NA,NA,NA,NA,NA,32,500,838.9000000059605,images/stimuli/complex_18_A_b.gif,images/stimuli/complex_23_A_b.gif,self_paced,540,complex,0,complex_dissimilar,trial,images/stimuli/complex_23_A_b.gif,NA,NA,NA,NA,NA
NA,15956.300000011921,html-button-response,29,468866,0.0-5.0-10.0,SS1630688655716,NA,NA,NA,0,NA,NA,NA,NA,NA,NA,NA,NA,NA,NA,NA,memory_test,NA,0,NA,images/stimuli/complex_22_A_b.gif,images/stimuli/complex_23_A_b.gif,NA
"[{""page_index"":0,""viewing_time"":7793.9000000059605}]",7794.4000000059605,instructions,30,476667,0.0-5.0-11.0,SS1630688655716,NA,NA,NA,NA,NA,NA,NA,NA,NA,NA,NA,NA,NA,NA,NA,NA,NA,NA,NA,NA,NA,NA
NA,null,html-keyboard-response,31,477875,0.0-5.0-12.0-0.0,SS1630688655716,NA,NA,"<p><img src= images/blank.png width =""600"" height = ""600"" style=""position:fixed;top:50%; left:50%; transform: translate(-50%, -50%); border:5px solid black"">",NA,NA,null,NA,NA,NA,NA,NA,NA,NA,NA,NA,NA,NA,NA,NA,NA,NA,NA
NA,37134.29999998212,stimuli-presentation,32,515929,0.0-5.0-12.0-1.0,SS1630688655716,NA,NA,NA,NA,NA,32,500,37634.29999998212,images/stimuli/complex_19_A_b.gif,images/stimuli/complex_05_A_b.gif,self_paced,320,complex,1,complex_dissimilar,trial,images/stimuli/complex_05_A_b.gif,NA,NA,NA,NA,NA
NA,null,html-keyboard-response,33,517047,0.0-5.0-12.0-0.1,SS1630688655716,NA,NA,"<p><img src= images/blank.png width =""600"" height = ""600"" style=""position:fixed;top:50%; left:50%; transform: translate(-50%, -50%); border:5px solid black"">",NA,NA,null,NA,NA,NA,NA,NA,NA,NA,NA,NA,NA,NA,NA,NA,NA,NA,NA
NA,1769.5,stimuli-presentation,34,519733,0.0-5.0-12.0-1.1,SS1630688655716,NA,NA,NA,NA,NA,32,500,2269.5,images/stimuli/complex_19_A_b.gif,images/stimuli/complex_05_A_b.gif,self_paced,320,complex,1,complex_dissimilar,trial,images/stimuli/complex_05_A_b.gif,NA,NA,NA,NA,NA
NA,null,html-keyboard-response,35,520799,0.0-5.0-12.0-0.2,SS1630688655716,NA,NA,"<p><img src= images/blank.png width =""600"" height = ""600"" style=""position:fixed;top:50%; left:50%; transform: translate(-50%, -50%); border:5px solid black"">",NA,NA,null,NA,NA,NA,NA,NA,NA,NA,NA,NA,NA,NA,NA,NA,NA,NA,NA
NA,308.69999998807907,stimuli-presentation,36,522019,0.0-5.0-12.0-1.2,SS1630688655716,NA,NA,NA,NA,NA,32,500,808.6999999880791,images/stimuli/complex_19_A_b.gif,images/stimuli/complex_05_A_b.gif,self_paced,320,complex,1,complex_dissimilar,trial,images/stimuli/complex_19_A_b.gif,NA,NA,NA,NA,NA
NA,null,html-keyboard-response,37,522931,0.0-5.0-12.0-0.3,SS1630688655716,NA,NA,"<p><img src= images/blank.png width =""600"" height = ""600"" style=""position:fixed;top:50%; left:50%; transform: translate(-50%, -50%); border:5px solid black"">",NA,NA,null,NA,NA,NA,NA,NA,NA,NA,NA,NA,NA,NA,NA,NA,NA,NA,NA
NA,471,stimuli-presentation,38,524321,0.0-5.0-12.0-1.3,SS1630688655716,NA,NA,NA,NA,NA,32,500,971,images/stimuli/complex_19_A_b.gif,images/stimuli/complex_05_A_b.gif,self_paced,320,complex,1,complex_dissimilar,trial,images/stimuli/complex_05_A_b.gif,NA,NA,NA,NA,NA
NA,null,html-keyboard-response,39,525457,0.0-5.0-12.0-0.4,SS1630688655716,NA,NA,"<p><img src= images/blank.png width =""600"" height = ""600"" style=""position:fixed;top:50%; left:50%; transform: translate(-50%, -50%); border:5px solid black"">",NA,NA,null,NA,NA,NA,NA,NA,NA,NA,NA,NA,NA,NA,NA,NA,NA,NA,NA
NA,488.59999999403954,stimuli-presentation,40,526861,0.0-5.0-12.0-1.4,SS1630688655716,NA,NA,NA,NA,NA,32,500,988.5999999940395,images/stimuli/complex_19_A_b.gif,images/stimuli/complex_05_A_b.gif,self_paced,320,complex,1,complex_dissimilar,trial,images/stimuli/complex_19_A_b.gif,NA,NA,NA,NA,NA
NA,null,html-keyboard-response,41,527917,0.0-5.0-12.0-0.5,SS1630688655716,NA,NA,"<p><img src= images/blank.png width =""600"" height = ""600"" style=""position:fixed;top:50%; left:50%; transform: translate(-50%, -50%); border:5px solid black"">",NA,NA,null,NA,NA,NA,NA,NA,NA,NA,NA,NA,NA,NA,NA,NA,NA,NA,NA
NA,575.3000000119209,stimuli-presentation,42,529404,0.0-5.0-12.0-1.5,SS1630688655716,NA,NA,NA,NA,NA,32,500,1075.300000011921,images/stimuli/complex_19_A_b.gif,images/stimuli/complex_05_A_b.gif,self_paced,320,complex,1,complex_dissimilar,trial,images/stimuli/complex_05_A_b.gif,NA,NA,NA,NA,NA
NA,15399,html-button-response,43,544812,0.0-5.0-13.0,SS1630688655716,NA,NA,NA,0,NA,NA,NA,NA,NA,NA,NA,NA,NA,NA,NA,memory_test,NA,1,NA,images/stimuli/complex_03_A_b.gif,images/stimuli/complex_19_A_b.gif,NA
"[{""page_index"":0,""viewing_time"":7595.700000017881}]",7596.4000000059605,instructions,44,552413,0.0-5.0-14.0,SS1630688655716,NA,NA,NA,NA,NA,NA,NA,NA,NA,NA,NA,NA,NA,NA,NA,NA,NA,NA,NA,NA,NA,NA
NA,null,html-keyboard-response,45,553661,0.0-5.0-15.0-0.0,SS1630688655716,NA,NA,"<p><img src= images/blank.png width =""600"" height = ""600"" style=""position:fixed;top:50%; left:50%; transform: translate(-50%, -50%); border:5px solid black"">",NA,NA,null,NA,NA,NA,NA,NA,NA,NA,NA,NA,NA,NA,NA,NA,NA,NA,NA
NA,16855.09999999404,stimuli-presentation,46,571438,0.0-5.0-15.0-1.0,SS1630688655716,NA,NA,NA,NA,NA,32,500,17355.09999999404,images/stimuli/complex_24_A_b.gif,images/stimuli/complex_08_A_a.gif,self_paced,210,complex,2,complex_dissimilar,trial,images/stimuli/complex_08_A_a.gif,NA,NA,NA,NA,NA
NA,null,html-keyboard-response,47,572703,0.0-5.0-15.0-0.1,SS1630688655716,NA,NA,"<p><img src= images/blank.png width =""600"" height = ""600"" style=""position:fixed;top:50%; left:50%; transform: translate(-50%, -50%); border:5px solid black"">",NA,NA,null,NA,NA,NA,NA,NA,NA,NA,NA,NA,NA,NA,NA,NA,NA,NA,NA
NA,1262,stimuli-presentation,48,574881,0.0-5.0-15.0-1.1,SS1630688655716,NA,NA,NA,NA,NA,32,500,1762,images/stimuli/complex_24_A_b.gif,images/stimuli/complex_08_A_a.gif,self_paced,210,complex,2,complex_dissimilar,trial,images/stimuli/complex_08_A_a.gif,NA,NA,NA,NA,NA
NA,null,html-keyboard-response,49,575943,0.0-5.0-15.0-0.2,SS1630688655716,NA,NA,"<p><img src= images/blank.png width =""600"" height = ""600"" style=""position:fixed;top:50%; left:50%; transform: translate(-50%, -50%); border:5px solid black"">",NA,NA,null,NA,NA,NA,NA,NA,NA,NA,NA,NA,NA,NA,NA,NA,NA,NA,NA
NA,330.7999999821186,stimuli-presentation,50,577185,0.0-5.0-15.0-1.2,SS1630688655716,NA,NA,NA,NA,NA,32,500,830.7999999821186,images/stimuli/complex_24_A_b.gif,images/stimuli/complex_08_A_a.gif,self_paced,210,complex,2,complex_dissimilar,trial,images/stimuli/complex_08_A_a.gif,NA,NA,NA,NA,NA
NA,null,html-keyboard-response,51,578372,0.0-5.0-15.0-0.3,SS1630688655716,NA,NA,"<p><img src= images/blank.png width =""600"" height = ""600"" style=""position:fixed;top:50%; left:50%; transform: translate(-50%, -50%); border:5px solid black"">",NA,NA,null,NA,NA,NA,NA,NA,NA,NA,NA,NA,NA,NA,NA,NA,NA,NA,NA
NA,35.900000005960464,stimuli-presentation,52,579327,0.0-5.0-15.0-1.3,SS1630688655716,NA,NA,NA,NA,NA,32,500,535.9000000059605,images/stimuli/complex_24_A_b.gif,images/stimuli/complex_08_A_a.gif,self_paced,210,complex,2,complex_dissimilar,trial,images/stimuli/complex_08_A_a.gif,NA,NA,NA,NA,NA
NA,10677.5,html-button-response,53,590011,0.0-5.0-16.0,SS1630688655716,NA,NA,NA,1,NA,NA,NA,NA,NA,NA,NA,NA,NA,NA,NA,memory_test,NA,2,NA,images/stimuli/complex_09_A_a.gif,images/stimuli/complex_08_A_a.gif,NA
"[{""page_index"":0,""viewing_time"":8042.800000011921}]",8043.5999999940395,instructions,54,598061,0.0-5.0-17.0,SS1630688655716,NA,NA,NA,NA,NA,NA,NA,NA,NA,NA,NA,NA,NA,NA,NA,NA,NA,NA,NA,NA,NA,NA
NA,null,html-keyboard-response,55,599253,0.0-5.0-18.0-0.0,SS1630688655716,NA,NA,"<p><img src= images/blank.png width =""600"" height = ""600"" style=""position:fixed;top:50%; left:50%; transform: translate(-50%, -50%); border:5px solid black"">",NA,NA,null,NA,NA,NA,NA,NA,NA,NA,NA,NA,NA,NA,NA,NA,NA,NA,NA
NA,12542.800000011921,stimuli-presentation,56,612719,0.0-5.0-18.0-1.0,SS1630688655716,NA,NA,NA,NA,NA,32,500,13042.800000011921,images/stimuli/complex_10_A_a.gif,images/stimuli/complex_06_A_b.gif,self_paced,340,complex,3,complex_dissimilar,trial,images/stimuli/complex_06_A_b.gif,NA,NA,NA,NA,NA
NA,null,html-keyboard-response,57,613716,0.0-5.0-18.0-0.1,SS1630688655716,NA,NA,"<p><img src= images/blank.png width =""600"" height = ""600"" style=""position:fixed;top:50%; left:50%; transform: translate(-50%, -50%); border:5px solid black"">",NA,NA,null,NA,NA,NA,NA,NA,NA,NA,NA,NA,NA,NA,NA,NA,NA,NA,NA
NA,1373.5999999940395,stimuli-presentation,58,616013,0.0-5.0-18.0-1.1,SS1630688655716,NA,NA,NA,NA,NA,32,500,1873.5999999940395,images/stimuli/complex_10_A_a.gif,images/stimuli/complex_06_A_b.gif,self_paced,340,complex,3,complex_dissimilar,trial,images/stimuli/complex_06_A_b.gif,NA,NA,NA,NA,NA
NA,null,html-keyboard-response,59,617114,0.0-5.0-18.0-0.2,SS1630688655716,NA,NA,"<p><img src= images/blank.png width =""600"" height = ""600"" style=""position:fixed;top:50%; left:50%; transform: translate(-50%, -50%); border:5px solid black"">",NA,NA,null,NA,NA,NA,NA,NA,NA,NA,NA,NA,NA,NA,NA,NA,NA,NA,NA
NA,523,stimuli-presentation,60,618559,0.0-5.0-18.0-1.2,SS1630688655716,NA,NA,NA,NA,NA,32,500,1023,images/stimuli/complex_10_A_a.gif,images/stimuli/complex_06_A_b.gif,self_paced,340,complex,3,complex_dissimilar,trial,images/stimuli/complex_06_A_b.gif,NA,NA,NA,NA,NA
NA,null,html-keyboard-response,61,619388,0.0-5.0-18.0-0.3,SS1630688655716,NA,NA,"<p><img src= images/blank.png width =""600"" height = ""600"" style=""position:fixed;top:50%; left:50%; transform: translate(-50%, -50%); border:5px solid black"">",NA,NA,null,NA,NA,NA,NA,NA,NA,NA,NA,NA,NA,NA,NA,NA,NA,NA,NA
NA,595.0999999940395,stimuli-presentation,62,620903,0.0-5.0-18.0-1.3,SS1630688655716,NA,NA,NA,NA,NA,32,500,1095.0999999940395,images/stimuli/complex_10_A_a.gif,images/stimuli/complex_06_A_b.gif,self_paced,340,complex,3,complex_dissimilar,trial,images/stimuli/complex_06_A_b.gif,NA,NA,NA,NA,NA
NA,null,html-keyboard-response,63,621828,0.0-5.0-18.0-0.4,SS1630688655716,NA,NA,"<p><img src= images/blank.png width =""600"" height = ""600"" style=""position:fixed;top:50%; left:50%; transform: translate(-50%, -50%); border:5px solid black"">",NA,NA,null,NA,NA,NA,NA,NA,NA,NA,NA,NA,NA,NA,NA,NA,NA,NA,NA
NA,774.9000000059605,stimuli-presentation,64,623521,0.0-5.0-18.0-1.4,SS1630688655716,NA,NA,NA,NA,NA,32,500,1274.9000000059605,images/stimuli/complex_10_A_a.gif,images/stimuli/complex_06_A_b.gif,self_paced,340,complex,3,complex_dissimilar,trial,images/stimuli/complex_06_A_b.gif,NA,NA,NA,NA,NA
NA,null,html-keyboard-response,65,624366,0.0-5.0-18.0-0.5,SS1630688655716,NA,NA,"<p><img src= images/blank.png width =""600"" height = ""600"" style=""position:fixed;top:50%; left:50%; transform: translate(-50%, -50%); border:5px solid black"">",NA,NA,null,NA,NA,NA,NA,NA,NA,NA,NA,NA,NA,NA,NA,NA,NA,NA,NA
NA,810.4000000059605,stimuli-presentation,66,626091,0.0-5.0-18.0-1.5,SS1630688655716,NA,NA,NA,NA,NA,32,500,1310.4000000059605,images/stimuli/complex_10_A_a.gif,images/stimuli/complex_06_A_b.gif,self_paced,340,complex,3,complex_dissimilar,trial,images/stimuli/complex_06_A_b.gif,NA,NA,NA,NA,NA
NA,20209.20000001788,html-button-response,67,646307,0.0-5.0-19.0,SS1630688655716,NA,NA,NA,0,NA,NA,NA,NA,NA,NA,NA,NA,NA,NA,NA,memory_test,NA,3,NA,images/stimuli/complex_06_A_b.gif,images/stimuli/complex_14_A_a.gif,NA
"[{""page_index"":0,""viewing_time"":8737.59999999404}]",8738.5,instructions,68,655058,0.0-5.0-20.0,SS1630688655716,NA,NA,NA,NA,NA,NA,NA,NA,NA,NA,NA,NA,NA,NA,NA,NA,NA,NA,NA,NA,NA,NA
NA,null,html-keyboard-response,69,655880,0.0-5.0-21.0-0.0,SS1630688655716,NA,NA,"<p><img src= images/blank.png width =""600"" height = ""600"" style=""position:fixed;top:50%; left:50%; transform: translate(-50%, -50%); border:5px solid black"">",NA,NA,null,NA,NA,NA,NA,NA,NA,NA,NA,NA,NA,NA,NA,NA,NA,NA,NA
NA,8553.800000011921,stimuli-presentation,70,665353,0.0-5.0-21.0-1.0,SS1630688655716,NA,NA,NA,NA,NA,32,500,9053.800000011921,images/stimuli/complex_16_A_a.gif,images/stimuli/complex_21_A_b.gif,self_paced,840,complex,4,complex_dissimilar,trial,images/stimuli/complex_21_A_b.gif,NA,NA,NA,NA,NA
NA,null,html-keyboard-response,71,666505,0.0-5.0-21.0-0.1,SS1630688655716,NA,NA,"<p><img src= images/blank.png width =""600"" height = ""600"" style=""position:fixed;top:50%; left:50%; transform: translate(-50%, -50%); border:5px solid black"">",NA,NA,null,NA,NA,NA,NA,NA,NA,NA,NA,NA,NA,NA,NA,NA,NA,NA,NA
NA,1514.0999999940395,stimuli-presentation,72,668937,0.0-5.0-21.0-1.1,SS1630688655716,NA,NA,NA,NA,NA,32,500,2014.0999999940395,images/stimuli/complex_16_A_a.gif,images/stimuli/complex_21_A_b.gif,self_paced,840,complex,4,complex_dissimilar,trial,images/stimuli/complex_21_A_b.gif,NA,NA,NA,NA,NA
NA,null,html-keyboard-response,73,669813,0.0-5.0-21.0-0.2,SS1630688655716,NA,NA,"<p><img src= images/blank.png width =""600"" height = ""600"" style=""position:fixed;top:50%; left:50%; transform: translate(-50%, -50%); border:5px solid black"">",NA,NA,null,NA,NA,NA,NA,NA,NA,NA,NA,NA,NA,NA,NA,NA,NA,NA,NA
NA,1023.7000000178814,stimuli-presentation,74,671752,0.0-5.0-21.0-1.2,SS1630688655716,NA,NA,NA,NA,NA,32,500,1523.7000000178814,images/stimuli/complex_16_A_a.gif,images/stimuli/complex_21_A_b.gif,self_paced,840,complex,4,complex_dissimilar,trial,images/stimuli/complex_21_A_b.gif,NA,NA,NA,NA,NA
NA,null,html-keyboard-response,75,673006,0.0-5.0-21.0-0.3,SS1630688655716,NA,NA,"<p><img src= images/blank.png width =""600"" height = ""600"" style=""position:fixed;top:50%; left:50%; transform: translate(-50%, -50%); border:5px solid black"">",NA,NA,null,NA,NA,NA,NA,NA,NA,NA,NA,NA,NA,NA,NA,NA,NA,NA,NA
NA,587.9000000059605,stimuli-presentation,76,674523,0.0-5.0-21.0-1.3,SS1630688655716,NA,NA,NA,NA,NA,32,500,1087.9000000059605,images/stimuli/complex_16_A_a.gif,images/stimuli/complex_21_A_b.gif,self_paced,840,complex,4,complex_dissimilar,trial,images/stimuli/complex_21_A_b.gif,NA,NA,NA,NA,NA
NA,null,html-keyboard-response,77,675384,0.0-5.0-21.0-0.4,SS1630688655716,NA,NA,"<p><img src= images/blank.png width =""600"" height = ""600"" style=""position:fixed;top:50%; left:50%; transform: translate(-50%, -50%); border:5px solid black"">",NA,NA,null,NA,NA,NA,NA,NA,NA,NA,NA,NA,NA,NA,NA,NA,NA,NA,NA
NA,5481.9000000059605,stimuli-presentation,78,681783,0.0-5.0-21.0-1.4,SS1630688655716,NA,NA,NA,NA,NA,32,500,5981.9000000059605,images/stimuli/complex_16_A_a.gif,images/stimuli/complex_21_A_b.gif,self_paced,840,complex,4,complex_dissimilar,trial,images/stimuli/complex_16_A_a.gif,NA,NA,NA,NA,NA
NA,null,html-keyboard-response,79,682849,0.0-5.0-21.0-0.5,SS1630688655716,NA,NA,"<p><img src= images/blank.png width =""600"" height = ""600"" style=""position:fixed;top:50%; left:50%; transform: translate(-50%, -50%); border:5px solid black"">",NA,NA,null,NA,NA,NA,NA,NA,NA,NA,NA,NA,NA,NA,NA,NA,NA,NA,NA
NA,388.90000000596046,stimuli-presentation,80,684163,0.0-5.0-21.0-1.5,SS1630688655716,NA,NA,NA,NA,NA,32,500,888.9000000059605,images/stimuli/complex_16_A_a.gif,images/stimuli/complex_21_A_b.gif,self_paced,840,complex,4,complex_dissimilar,trial,images/stimuli/complex_16_A_a.gif,NA,NA,NA,NA,NA
NA,16382.200000017881,html-button-response,81,700555,0.0-5.0-22.0,SS1630688655716,NA,NA,NA,1,NA,NA,NA,NA,NA,NA,NA,NA,NA,NA,NA,memory_test,NA,4,NA,images/stimuli/complex_17_A_b.gif,images/stimuli/complex_21_A_b.gif,NA
"[{""page_index"":0,""viewing_time"":8091.800000011921}]",8092.699999988079,instructions,82,708656,0.0-5.0-23.0,SS1630688655716,NA,NA,NA,NA,NA,NA,NA,NA,NA,NA,NA,NA,NA,NA,NA,NA,NA,NA,NA,NA,NA,NA
NA,null,html-keyboard-response,83,709963,0.0-5.0-24.0-0.0,SS1630688655716,NA,NA,"<p><img src= images/blank.png width =""600"" height = ""600"" style=""position:fixed;top:50%; left:50%; transform: translate(-50%, -50%); border:5px solid black"">",NA,NA,null,NA,NA,NA,NA,NA,NA,NA,NA,NA,NA,NA,NA,NA,NA,NA,NA
NA,7908.199999988079,stimuli-presentation,84,718811,0.0-5.0-24.0-1.0,SS1630688655716,NA,NA,NA,NA,NA,32,500,8408.199999988079,images/stimuli/complex_04_A_b.gif,images/stimuli/complex_15_A_b.gif,self_paced,100,complex,5,complex_dissimilar,trial,images/stimuli/complex_15_A_b.gif,NA,NA,NA,NA,NA
NA,null,html-keyboard-response,85,719737,0.0-5.0-24.0-0.1,SS1630688655716,NA,NA,"<p><img src= images/blank.png width =""600"" height = ""600"" style=""position:fixed;top:50%; left:50%; transform: translate(-50%, -50%); border:5px solid black"">",NA,NA,null,NA,NA,NA,NA,NA,NA,NA,NA,NA,NA,NA,NA,NA,NA,NA,NA
NA,1009.1000000238419,stimuli-presentation,86,721670,0.0-5.0-24.0-1.1,SS1630688655716,NA,NA,NA,NA,NA,32,500,1509.1000000238419,images/stimuli/complex_04_A_b.gif,images/stimuli/complex_15_A_b.gif,self_paced,100,complex,5,complex_dissimilar,trial,images/stimuli/complex_15_A_b.gif,NA,NA,NA,NA,NA
NA,null,html-keyboard-response,87,722576,0.0-5.0-24.0-0.2,SS1630688655716,NA,NA,"<p><img src= images/blank.png width =""600"" height = ""600"" style=""position:fixed;top:50%; left:50%; transform: translate(-50%, -50%); border:5px solid black"">",NA,NA,null,NA,NA,NA,NA,NA,NA,NA,NA,NA,NA,NA,NA,NA,NA,NA,NA
NA,264.5,stimuli-presentation,88,723758,0.0-5.0-24.0-1.2,SS1630688655716,NA,NA,NA,NA,NA,32,500,764.5,images/stimuli/complex_04_A_b.gif,images/stimuli/complex_15_A_b.gif,self_paced,100,complex,5,complex_dissimilar,trial,images/stimuli/complex_15_A_b.gif,NA,NA,NA,NA,NA
NA,null,html-keyboard-response,89,724667,0.0-5.0-24.0-0.3,SS1630688655716,NA,NA,"<p><img src= images/blank.png width =""600"" height = ""600"" style=""position:fixed;top:50%; left:50%; transform: translate(-50%, -50%); border:5px solid black"">",NA,NA,null,NA,NA,NA,NA,NA,NA,NA,NA,NA,NA,NA,NA,NA,NA,NA,NA
NA,20496.59999999404,stimuli-presentation,90,746084,0.0-5.0-24.0-1.3,SS1630688655716,NA,NA,NA,NA,NA,32,500,20996.59999999404,images/stimuli/complex_04_A_b.gif,images/stimuli/complex_15_A_b.gif,self_paced,100,complex,5,complex_dissimilar,trial,images/stimuli/complex_04_A_b.gif,NA,NA,NA,NA,NA
NA,14054.09999999404,html-button-response,91,760153,0.0-5.0-25.0,SS1630688655716,NA,NA,NA,1,NA,NA,NA,NA,NA,NA,NA,NA,NA,NA,NA,memory_test,NA,5,NA,images/stimuli/complex_04_A_b.gif,images/stimuli/complex_07_A_b.gif,NA
"[{""page_index"":0,""viewing_time"":8990.299999982119}]",8990.699999988079,instructions,92,769152,0.0-5.0-26.0,SS1630688655716,NA,NA,NA,NA,NA,NA,NA,NA,NA,NA,NA,NA,NA,NA,NA,NA,NA,NA,NA,NA,NA,NA
NA,null,html-keyboard-response,93,770031,0.0-5.0-27.0-0.0,SS1630688655716,NA,NA,"<p><img src= images/blank.png width =""600"" height = ""600"" style=""position:fixed;top:50%; left:50%; transform: translate(-50%, -50%); border:5px solid black"">",NA,NA,null,NA,NA,NA,NA,NA,NA,NA,NA,NA,NA,NA,NA,NA,NA,NA,NA
NA,7786.300000011921,stimuli-presentation,94,778734,0.0-5.0-27.0-1.0,SS1630688655716,NA,NA,NA,NA,NA,32,500,8286.300000011921,images/stimuli/complex_12_A_a.gif,images/stimuli/complex_02_A_a.gif,self_paced,510,complex,6,complex_dissimilar,trial,images/stimuli/complex_02_A_a.gif,NA,NA,NA,NA,NA
NA,null,html-keyboard-response,95,779737,0.0-5.0-27.0-0.1,SS1630688655716,NA,NA,"<p><img src= images/blank.png width =""600"" height = ""600"" style=""position:fixed;top:50%; left:50%; transform: translate(-50%, -50%); border:5px solid black"">",NA,NA,null,NA,NA,NA,NA,NA,NA,NA,NA,NA,NA,NA,NA,NA,NA,NA,NA
NA,795.9000000059605,stimuli-presentation,96,781454,0.0-5.0-27.0-1.1,SS1630688655716,NA,NA,NA,NA,NA,32,500,1295.9000000059605,images/stimuli/complex_12_A_a.gif,images/stimuli/complex_02_A_a.gif,self_paced,510,complex,6,complex_dissimilar,trial,images/stimuli/complex_02_A_a.gif,NA,NA,NA,NA,NA
NA,null,html-keyboard-response,97,782626,0.0-5.0-27.0-0.2,SS1630688655716,NA,NA,"<p><img src= images/blank.png width =""600"" height = ""600"" style=""position:fixed;top:50%; left:50%; transform: translate(-50%, -50%); border:5px solid black"">",NA,NA,null,NA,NA,NA,NA,NA,NA,NA,NA,NA,NA,NA,NA,NA,NA,NA,NA
NA,3389.5999999940395,stimuli-presentation,98,786936,0.0-5.0-27.0-1.2,SS1630688655716,NA,NA,NA,NA,NA,32,500,3889.5999999940395,images/stimuli/complex_12_A_a.gif,images/stimuli/complex_02_A_a.gif,self_paced,510,complex,6,complex_dissimilar,trial,images/stimuli/complex_02_A_a.gif,NA,NA,NA,NA,NA
NA,null,html-keyboard-response,99,787789,0.0-5.0-27.0-0.3,SS1630688655716,NA,NA,"<p><img src= images/blank.png width =""600"" height = ""600"" style=""position:fixed;top:50%; left:50%; transform: translate(-50%, -50%); border:5px solid black"">",NA,NA,null,NA,NA,NA,NA,NA,NA,NA,NA,NA,NA,NA,NA,NA,NA,NA,NA
NA,409.59999999403954,stimuli-presentation,100,789118,0.0-5.0-27.0-1.3,SS1630688655716,NA,NA,NA,NA,NA,32,500,909.5999999940395,images/stimuli/complex_12_A_a.gif,images/stimuli/complex_02_A_a.gif,self_paced,510,complex,6,complex_dissimilar,trial,images/stimuli/complex_02_A_a.gif,NA,NA,NA,NA,NA
NA,null,html-keyboard-response,101,790304,0.0-5.0-27.0-0.4,SS1630688655716,NA,NA,"<p><img src= images/blank.png width =""600"" height = ""600"" style=""position:fixed;top:50%; left:50%; transform: translate(-50%, -50%); border:5px solid black"">",NA,NA,null,NA,NA,NA,NA,NA,NA,NA,NA,NA,NA,NA,NA,NA,NA,NA,NA
NA,6674.5,stimuli-presentation,102,797894,0.0-5.0-27.0-1.4,SS1630688655716,NA,NA,NA,NA,NA,32,500,7174.5,images/stimuli/complex_12_A_a.gif,images/stimuli/complex_02_A_a.gif,self_paced,510,complex,6,complex_dissimilar,trial,images/stimuli/complex_12_A_a.gif,NA,NA,NA,NA,NA
NA,null,html-keyboard-response,103,798787,0.0-5.0-27.0-0.5,SS1630688655716,NA,NA,"<p><img src= images/blank.png width =""600"" height = ""600"" style=""position:fixed;top:50%; left:50%; transform: translate(-50%, -50%); border:5px solid black"">",NA,NA,null,NA,NA,NA,NA,NA,NA,NA,NA,NA,NA,NA,NA,NA,NA,NA,NA
NA,780.1999999880791,stimuli-presentation,104,800493,0.0-5.0-27.0-1.5,SS1630688655716,NA,NA,NA,NA,NA,32,500,1280.199999988079,images/stimuli/complex_12_A_a.gif,images/stimuli/complex_02_A_a.gif,self_paced,510,complex,6,complex_dissimilar,trial,images/stimuli/complex_12_A_a.gif,NA,NA,NA,NA,NA
NA,18891.30000001192,html-button-response,105,819401,0.0-5.0-28.0,SS1630688655716,NA,NA,NA,1,NA,NA,NA,NA,NA,NA,NA,NA,NA,NA,NA,memory_test,NA,6,NA,images/stimuli/complex_12_A_a.gif,images/stimuli/complex_11_A_a.gif,NA
"[{""page_index"":0,""viewing_time"":9083.59999999404}]",9084.40000000596,instructions,106,828500,0.0-5.0-29.0,SS1630688655716,NA,NA,NA,NA,NA,NA,NA,NA,NA,NA,NA,NA,NA,NA,NA,NA,NA,NA,NA,NA,NA,NA
NA,null,html-keyboard-response,107,829623,0.0-5.0-30.0-0.0,SS1630688655716,NA,NA,"<p><img src= images/blank.png width =""600"" height = ""600"" style=""position:fixed;top:50%; left:50%; transform: translate(-50%, -50%); border:5px solid black"">",NA,NA,null,NA,NA,NA,NA,NA,NA,NA,NA,NA,NA,NA,NA,NA,NA,NA,NA
NA,6432.300000011921,stimuli-presentation,108,836975,0.0-5.0-30.0-1.0,SS1630688655716,NA,NA,NA,NA,NA,32,500,6932.300000011921,images/stimuli/complex_01_A_b.gif,images/stimuli/complex_13_A_b.gif,self_paced,630,complex,7,complex_dissimilar,trial,images/stimuli/complex_13_A_b.gif,NA,NA,NA,NA,NA
NA,null,html-keyboard-response,109,838185,0.0-5.0-30.0-0.1,SS1630688655716,NA,NA,"<p><img src= images/blank.png width =""600"" height = ""600"" style=""position:fixed;top:50%; left:50%; transform: translate(-50%, -50%); border:5px solid black"">",NA,NA,null,NA,NA,NA,NA,NA,NA,NA,NA,NA,NA,NA,NA,NA,NA,NA,NA
NA,223.19999998807907,stimuli-presentation,110,839332,0.0-5.0-30.0-1.1,SS1630688655716,NA,NA,NA,NA,NA,32,500,723.1999999880791,images/stimuli/complex_01_A_b.gif,images/stimuli/complex_13_A_b.gif,self_paced,630,complex,7,complex_dissimilar,trial,images/stimuli/complex_13_A_b.gif,NA,NA,NA,NA,NA
NA,null,html-keyboard-response,111,840178,0.0-5.0-30.0-0.2,SS1630688655716,NA,NA,"<p><img src= images/blank.png width =""600"" height = ""600"" style=""position:fixed;top:50%; left:50%; transform: translate(-50%, -50%); border:5px solid black"">",NA,NA,null,NA,NA,NA,NA,NA,NA,NA,NA,NA,NA,NA,NA,NA,NA,NA,NA
NA,105.59999999403954,stimuli-presentation,112,841198,0.0-5.0-30.0-1.2,SS1630688655716,NA,NA,NA,NA,NA,32,500,605.5999999940395,images/stimuli/complex_01_A_b.gif,images/stimuli/complex_13_A_b.gif,self_paced,630,complex,7,complex_dissimilar,trial,images/stimuli/complex_13_A_b.gif,NA,NA,NA,NA,NA
NA,null,html-keyboard-response,113,842141,0.0-5.0-30.0-0.3,SS1630688655716,NA,NA,"<p><img src= images/blank.png width =""600"" height = ""600"" style=""position:fixed;top:50%; left:50%; transform: translate(-50%, -50%); border:5px solid black"">",NA,NA,null,NA,NA,NA,NA,NA,NA,NA,NA,NA,NA,NA,NA,NA,NA,NA,NA
NA,258.2999999821186,stimuli-presentation,114,843313,0.0-5.0-30.0-1.3,SS1630688655716,NA,NA,NA,NA,NA,32,500,758.2999999821186,images/stimuli/complex_01_A_b.gif,images/stimuli/complex_13_A_b.gif,self_paced,630,complex,7,complex_dissimilar,trial,images/stimuli/complex_13_A_b.gif,NA,NA,NA,NA,NA
NA,null,html-keyboard-response,115,844610,0.0-5.0-30.0-0.4,SS1630688655716,NA,NA,"<p><img src= images/blank.png width =""600"" height = ""600"" style=""position:fixed;top:50%; left:50%; transform: translate(-50%, -50%); border:5px solid black"">",NA,NA,null,NA,NA,NA,NA,NA,NA,NA,NA,NA,NA,NA,NA,NA,NA,NA,NA
NA,78.40000000596046,stimuli-presentation,116,845609,0.0-5.0-30.0-1.4,SS1630688655716,NA,NA,NA,NA,NA,32,500,578.4000000059605,images/stimuli/complex_01_A_b.gif,images/stimuli/complex_13_A_b.gif,self_paced,630,complex,7,complex_dissimilar,trial,images/stimuli/complex_13_A_b.gif,NA,NA,NA,NA,NA
NA,11869,html-button-response,117,857498,0.0-5.0-31.0,SS1630688655716,NA,NA,NA,0,NA,NA,NA,NA,NA,NA,NA,NA,NA,NA,NA,memory_test,NA,7,NA,images/stimuli/complex_13_A_b.gif,images/stimuli/complex_20_A_a.gif,NA
"[{""page_index"":0,""viewing_time"":6385.5999999940395}]",6386.5,instructions,118,863898,0.0-5.0-32.0,SS1630688655716,NA,NA,NA,NA,NA,NA,NA,NA,NA,NA,NA,NA,NA,NA,NA,NA,NA,NA,NA,NA,NA,NA
NA,NA,fullscreen,119,864911,0.0-7.0,SS1630688655716,TRUE,NA,NA,NA,NA,NA,NA,NA,NA,NA,NA,NA,NA,NA,NA,NA,NA,NA,NA,NA,NA,NA
"[{""page_index"":0,""viewing_time"":5224.9000000059605}]",5225.300000011921,instructions,120,870147,0.0-8.0,SS1630688655716,NA,NA,NA,NA,NA,NA,NA,NA,NA,NA,NA,NA,NA,NA,NA,NA,NA,NA,NA,NA,NA,NA
NA,49046.80000001192,demog-gender-and-education,121,919202,0.0-9.0,SS1630688655716,NA,"{""education"":""Master's Degree""}",NA,NA,NA,NA,NA,NA,NA,NA,NA,NA,NA,NA,NA,NA,NA,NA,NA,NA,NA,[0]
"[{""page_index"":0,""viewing_time"":70416},{""page_index"":1,""viewing_time"":5717.099999904633},{""page_index"":2,""viewing_time"":25149.200000047684},{""page_index"":3,""viewing_time"":14372.899999856949}]",115658.59999990463,instructions,0,115673,0.0-0.0,SS1630690420733,NA,NA,NA,NA,NA,NA,NA,NA,NA,NA,NA,NA,NA,NA,NA,NA,NA,NA,NA,NA,NA,NA
NA,NA,fullscreen,1,119688,0.0-1.0,SS1630690420733,TRUE,NA,NA,NA,NA,NA,NA,NA,NA,NA,NA,NA,NA,NA,NA,NA,NA,NA,NA,NA,NA,NA
"[{""page_index"":0,""viewing_time"":9527.700000047684},{""page_index"":1,""viewing_time"":26461.5},{""page_index"":2,""viewing_time"":35629.89999985695},{""page_index"":3,""viewing_time"":1533.1000001430511},{""page_index"":4,""viewing_time"":26267.39999985695}]",99420.20000004768,instructions,2,219126,0.0-2.0,SS1630690420733,NA,NA,NA,NA,NA,NA,NA,NA,NA,NA,NA,NA,NA,NA,NA,NA,NA,NA,NA,NA,NA,NA
NA,12551.400000095367,demog-age,3,231697,0.0-3.0,SS1630690420733,NA,"{""redcap_id"":""od071""}",NA,NA,NA,NA,NA,NA,NA,NA,NA,NA,NA,NA,NA,NA,NA,NA,NA,NA,NA,NA
NA,17673.799999952316,html-button-response,4,249382,0.0-4.0,SS1630690420733,NA,NA,"<p><img src= images/seemore.gif width =""400"" height = ""400""</p>",0,NA,NA,NA,NA,NA,NA,NA,NA,NA,NA,NA,NA,NA,NA,NA,NA,NA,NA
NA,16163.900000095367,stimuli-presentation,5,266596,0.0-5.0-0.0,SS1630690420733,NA,NA,NA,NA,NA,32,500,16663.900000095367,null,null,self_paced,0,NA,NA,NA,NA,NA,NA,NA,NA,NA,NA
"[{""page_index"":0,""viewing_time"":8897.399999856949}]",8898.599999904633,instructions,6,275506,0.0-5.0-1.0,SS1630690420733,NA,NA,NA,NA,NA,NA,NA,NA,NA,NA,NA,NA,NA,NA,NA,NA,NA,NA,NA,NA,NA,NA
NA,11299.099999904633,stimuli-presentation,7,287968,0.0-5.0-2.0,SS1630690420733,NA,NA,NA,NA,NA,32,500,11799.099999904633,null,null,self_paced,0,NA,NA,NA,NA,NA,NA,NA,NA,NA,NA
"[{""page_index"":0,""viewing_time"":3832}]",3837.2000000476837,instructions,8,291826,0.0-5.0-3.0,SS1630690420733,NA,NA,NA,NA,NA,NA,NA,NA,NA,NA,NA,NA,NA,NA,NA,NA,NA,NA,NA,NA,NA,NA
"[{""page_index"":0,""viewing_time"":16357.299999952316}]",16358.100000143051,instructions,9,308194,0.0-5.0-4.0,SS1630690420733,NA,NA,NA,NA,NA,NA,NA,NA,NA,NA,NA,NA,NA,NA,NA,NA,NA,NA,NA,NA,NA,NA
NA,null,html-keyboard-response,10,309378,0.0-5.0-5.0-0.0,SS1630690420733,NA,NA,"<p><img src= images/blank.png width =""600"" height = ""600"" style=""position:fixed;top:50%; left:50%; transform: translate(-50%, -50%); border:5px solid black"">",NA,NA,null,NA,NA,NA,NA,NA,NA,NA,NA,NA,NA,NA,NA,NA,NA,NA,NA
NA,6963.099999904633,stimuli-presentation,11,317309,0.0-5.0-5.0-1.0,SS1630690420733,NA,NA,NA,NA,NA,32,500,7463.099999904633,images/stimuli/complex_16_A_a.gif,images/stimuli/complex_20_A_a.gif,self_paced,690,NA,NA,NA,NA,NA,NA,NA,NA,NA,NA
NA,null,html-keyboard-response,12,318190,0.0-5.0-5.0-0.1,SS1630690420733,NA,NA,"<p><img src= images/blank.png width =""600"" height = ""600"" style=""position:fixed;top:50%; left:50%; transform: translate(-50%, -50%); border:5px solid black"">",NA,NA,null,NA,NA,NA,NA,NA,NA,NA,NA,NA,NA,NA,NA,NA,NA,NA,NA
NA,30559.299999952316,stimuli-presentation,13,349720,0.0-5.0-5.0-1.1,SS1630690420733,NA,NA,NA,NA,NA,32,500,31059.299999952316,images/stimuli/complex_16_A_a.gif,images/stimuli/complex_20_A_a.gif,self_paced,690,NA,NA,NA,NA,NA,NA,NA,NA,NA,NA
NA,null,html-keyboard-response,14,350925,0.0-5.0-5.0-0.2,SS1630690420733,NA,NA,"<p><img src= images/blank.png width =""600"" height = ""600"" style=""position:fixed;top:50%; left:50%; transform: translate(-50%, -50%); border:5px solid black"">",NA,NA,null,NA,NA,NA,NA,NA,NA,NA,NA,NA,NA,NA,NA,NA,NA,NA,NA
NA,38423.60000014305,stimuli-presentation,15,390337,0.0-5.0-5.0-1.2,SS1630690420733,NA,NA,NA,NA,NA,32,500,38923.60000014305,images/stimuli/complex_16_A_a.gif,images/stimuli/complex_20_A_a.gif,self_paced,690,NA,NA,NA,NA,NA,NA,NA,NA,NA,NA
NA,16160.899999856949,html-button-response,16,406539,0.0-5.0-6.0,SS1630690420733,NA,NA,NA,1,NA,NA,NA,NA,NA,NA,NA,NA,NA,NA,NA,NA,NA,NA,NA,NA,NA,NA
"[{""page_index"":0,""viewing_time"":40295.39999985695}]",40296.39999985695,instructions,17,446838,0.0-5.0-7.0,SS1630690420733,NA,NA,NA,NA,NA,NA,NA,NA,NA,NA,NA,NA,NA,NA,NA,NA,NA,NA,NA,NA,NA,NA
NA,6779.100000143051,stimuli-presentation,18,455008,0.0-5.0-8.0,SS1630690420733,NA,NA,NA,NA,NA,32,500,7279.100000143051,null,null,self_paced,0,NA,NA,NA,NA,NA,NA,NA,NA,NA,NA
NA,null,html-keyboard-response,19,455964,0.0-5.0-9.0-0.0,SS1630690420733,NA,NA,"<p><img src= images/blank.png width =""600"" height = ""600"" style=""position:fixed;top:50%; left:50%; transform: translate(-50%, -50%); border:5px solid black"">",NA,NA,null,NA,NA,NA,NA,NA,NA,NA,NA,NA,NA,NA,NA,NA,NA,NA,NA
NA,5422.599999904633,stimuli-presentation,20,462453,0.0-5.0-9.0-1.0,SS1630690420733,NA,NA,NA,NA,NA,32,500,5922.599999904633,images/stimuli/complex_02_A_a.gif,images/stimuli/complex_18_A_a.gif,self_paced,660,complex,0,complex_dissimilar,trial,images/stimuli/complex_18_A_a.gif,NA,NA,NA,NA,NA
NA,null,html-keyboard-response,21,463450,0.0-5.0-9.0-0.1,SS1630690420733,NA,NA,"<p><img src= images/blank.png width =""600"" height = ""600"" style=""position:fixed;top:50%; left:50%; transform: translate(-50%, -50%); border:5px solid black"">",NA,NA,null,NA,NA,NA,NA,NA,NA,NA,NA,NA,NA,NA,NA,NA,NA,NA,NA
NA,7337.5,stimuli-presentation,22,471773,0.0-5.0-9.0-1.1,SS1630690420733,NA,NA,NA,NA,NA,32,500,7837.5,images/stimuli/complex_02_A_a.gif,images/stimuli/complex_18_A_a.gif,self_paced,660,complex,0,complex_dissimilar,trial,images/stimuli/complex_18_A_a.gif,NA,NA,NA,NA,NA
NA,null,html-keyboard-response,23,472804,0.0-5.0-9.0-0.2,SS1630690420733,NA,NA,"<p><img src= images/blank.png width =""600"" height = ""600"" style=""position:fixed;top:50%; left:50%; transform: translate(-50%, -50%); border:5px solid black"">",NA,NA,null,NA,NA,NA,NA,NA,NA,NA,NA,NA,NA,NA,NA,NA,NA,NA,NA
NA,2993.600000143051,stimuli-presentation,24,476848,0.0-5.0-9.0-1.2,SS1630690420733,NA,NA,NA,NA,NA,32,500,3493.600000143051,images/stimuli/complex_02_A_a.gif,images/stimuli/complex_18_A_a.gif,self_paced,660,complex,0,complex_dissimilar,trial,images/stimuli/complex_18_A_a.gif,NA,NA,NA,NA,NA
NA,null,html-keyboard-response,25,477679,0.0-5.0-9.0-0.3,SS1630690420733,NA,NA,"<p><img src= images/blank.png width =""600"" height = ""600"" style=""position:fixed;top:50%; left:50%; transform: translate(-50%, -50%); border:5px solid black"">",NA,NA,null,NA,NA,NA,NA,NA,NA,NA,NA,NA,NA,NA,NA,NA,NA,NA,NA
NA,6206.300000190735,stimuli-presentation,26,484836,0.0-5.0-9.0-1.3,SS1630690420733,NA,NA,NA,NA,NA,32,500,6706.300000190735,images/stimuli/complex_02_A_a.gif,images/stimuli/complex_18_A_a.gif,self_paced,660,complex,0,complex_dissimilar,trial,images/stimuli/complex_18_A_a.gif,NA,NA,NA,NA,NA
NA,null,html-keyboard-response,27,485908,0.0-5.0-9.0-0.4,SS1630690420733,NA,NA,"<p><img src= images/blank.png width =""600"" height = ""600"" style=""position:fixed;top:50%; left:50%; transform: translate(-50%, -50%); border:5px solid black"">",NA,NA,null,NA,NA,NA,NA,NA,NA,NA,NA,NA,NA,NA,NA,NA,NA,NA,NA
NA,1102.7000000476837,stimuli-presentation,28,487966,0.0-5.0-9.0-1.4,SS1630690420733,NA,NA,NA,NA,NA,32,500,1602.7000000476837,images/stimuli/complex_02_A_a.gif,images/stimuli/complex_18_A_a.gif,self_paced,660,complex,0,complex_dissimilar,trial,images/stimuli/complex_18_A_a.gif,NA,NA,NA,NA,NA
NA,null,html-keyboard-response,29,488834,0.0-5.0-9.0-0.5,SS1630690420733,NA,NA,"<p><img src= images/blank.png width =""600"" height = ""600"" style=""position:fixed;top:50%; left:50%; transform: translate(-50%, -50%); border:5px solid black"">",NA,NA,null,NA,NA,NA,NA,NA,NA,NA,NA,NA,NA,NA,NA,NA,NA,NA,NA
NA,3168,stimuli-presentation,30,492984,0.0-5.0-9.0-1.5,SS1630690420733,NA,NA,NA,NA,NA,32,500,3668,images/stimuli/complex_02_A_a.gif,images/stimuli/complex_18_A_a.gif,self_paced,660,complex,0,complex_dissimilar,trial,images/stimuli/complex_02_A_a.gif,NA,NA,NA,NA,NA
NA,35103.09999990463,html-button-response,31,528119,0.0-5.0-10.0,SS1630690420733,NA,NA,NA,1,NA,NA,NA,NA,NA,NA,NA,NA,NA,NA,NA,memory_test,NA,0,NA,images/stimuli/complex_14_A_a.gif,images/stimuli/complex_18_A_a.gif,NA
"[{""page_index"":0,""viewing_time"":8553.700000047684}]",8554.700000047684,instructions,32,536683,0.0-5.0-11.0,SS1630690420733,NA,NA,NA,NA,NA,NA,NA,NA,NA,NA,NA,NA,NA,NA,NA,NA,NA,NA,NA,NA,NA,NA
NA,null,html-keyboard-response,33,537924,0.0-5.0-12.0-0.0,SS1630690420733,NA,NA,"<p><img src= images/blank.png width =""600"" height = ""600"" style=""position:fixed;top:50%; left:50%; transform: translate(-50%, -50%); border:5px solid black"">",NA,NA,null,NA,NA,NA,NA,NA,NA,NA,NA,NA,NA,NA,NA,NA,NA,NA,NA
NA,5102.299999952316,stimuli-presentation,34,543998,0.0-5.0-12.0-1.0,SS1630690420733,NA,NA,NA,NA,NA,32,500,5602.299999952316,images/stimuli/complex_21_A_a.gif,images/stimuli/complex_17_A_a.gif,self_paced,890,complex,1,complex_dissimilar,trial,images/stimuli/complex_17_A_a.gif,NA,NA,NA,NA,NA
NA,null,html-keyboard-response,35,545188,0.0-5.0-12.0-0.1,SS1630690420733,NA,NA,"<p><img src= images/blank.png width =""600"" height = ""600"" style=""position:fixed;top:50%; left:50%; transform: translate(-50%, -50%); border:5px solid black"">",NA,NA,null,NA,NA,NA,NA,NA,NA,NA,NA,NA,NA,NA,NA,NA,NA,NA,NA
NA,828.3999998569489,stimuli-presentation,36,546964,0.0-5.0-12.0-1.1,SS1630690420733,NA,NA,NA,NA,NA,32,500,1328.3999998569489,images/stimuli/complex_21_A_a.gif,images/stimuli/complex_17_A_a.gif,self_paced,890,complex,1,complex_dissimilar,trial,images/stimuli/complex_17_A_a.gif,NA,NA,NA,NA,NA
NA,null,html-keyboard-response,37,548129,0.0-5.0-12.0-0.2,SS1630690420733,NA,NA,"<p><img src= images/blank.png width =""600"" height = ""600"" style=""position:fixed;top:50%; left:50%; transform: translate(-50%, -50%); border:5px solid black"">",NA,NA,null,NA,NA,NA,NA,NA,NA,NA,NA,NA,NA,NA,NA,NA,NA,NA,NA
NA,2666.9000000953674,stimuli-presentation,38,551728,0.0-5.0-12.0-1.2,SS1630690420733,NA,NA,NA,NA,NA,32,500,3166.9000000953674,images/stimuli/complex_21_A_a.gif,images/stimuli/complex_17_A_a.gif,self_paced,890,complex,1,complex_dissimilar,trial,images/stimuli/complex_21_A_a.gif,NA,NA,NA,NA,NA
NA,null,html-keyboard-response,39,552765,0.0-5.0-12.0-0.3,SS1630690420733,NA,NA,"<p><img src= images/blank.png width =""600"" height = ""600"" style=""position:fixed;top:50%; left:50%; transform: translate(-50%, -50%); border:5px solid black"">",NA,NA,null,NA,NA,NA,NA,NA,NA,NA,NA,NA,NA,NA,NA,NA,NA,NA,NA
NA,3017.9000000953674,stimuli-presentation,40,556761,0.0-5.0-12.0-1.3,SS1630690420733,NA,NA,NA,NA,NA,32,500,3517.9000000953674,images/stimuli/complex_21_A_a.gif,images/stimuli/complex_17_A_a.gif,self_paced,890,complex,1,complex_dissimilar,trial,images/stimuli/complex_17_A_a.gif,NA,NA,NA,NA,NA
NA,null,html-keyboard-response,41,558058,0.0-5.0-12.0-0.4,SS1630690420733,NA,NA,"<p><img src= images/blank.png width =""600"" height = ""600"" style=""position:fixed;top:50%; left:50%; transform: translate(-50%, -50%); border:5px solid black"">",NA,NA,null,NA,NA,NA,NA,NA,NA,NA,NA,NA,NA,NA,NA,NA,NA,NA,NA
NA,2211.399999856949,stimuli-presentation,42,561244,0.0-5.0-12.0-1.4,SS1630690420733,NA,NA,NA,NA,NA,32,500,2711.399999856949,images/stimuli/complex_21_A_a.gif,images/stimuli/complex_17_A_a.gif,self_paced,890,complex,1,complex_dissimilar,trial,images/stimuli/complex_17_A_a.gif,NA,NA,NA,NA,NA
NA,null,html-keyboard-response,43,562547,0.0-5.0-12.0-0.5,SS1630690420733,NA,NA,"<p><img src= images/blank.png width =""600"" height = ""600"" style=""position:fixed;top:50%; left:50%; transform: translate(-50%, -50%); border:5px solid black"">",NA,NA,null,NA,NA,NA,NA,NA,NA,NA,NA,NA,NA,NA,NA,NA,NA,NA,NA
NA,1347.6000001430511,stimuli-presentation,44,564846,0.0-5.0-12.0-1.5,SS1630690420733,NA,NA,NA,NA,NA,32,500,1847.6000001430511,images/stimuli/complex_21_A_a.gif,images/stimuli/complex_17_A_a.gif,self_paced,890,complex,1,complex_dissimilar,trial,images/stimuli/complex_17_A_a.gif,NA,NA,NA,NA,NA
NA,24083.5,html-button-response,45,588934,0.0-5.0-13.0,SS1630690420733,NA,NA,NA,0,NA,NA,NA,NA,NA,NA,NA,NA,NA,NA,NA,memory_test,NA,1,NA,images/stimuli/complex_23_A_a.gif,images/stimuli/complex_17_A_a.gif,NA
"[{""page_index"":0,""viewing_time"":9182.899999856949}]",9184.399999856949,instructions,46,598123,0.0-5.0-14.0,SS1630690420733,NA,NA,NA,NA,NA,NA,NA,NA,NA,NA,NA,NA,NA,NA,NA,NA,NA,NA,NA,NA,NA,NA
NA,null,html-keyboard-response,47,599329,0.0-5.0-15.0-0.0,SS1630690420733,NA,NA,"<p><img src= images/blank.png width =""600"" height = ""600"" style=""position:fixed;top:50%; left:50%; transform: translate(-50%, -50%); border:5px solid black"">",NA,NA,null,NA,NA,NA,NA,NA,NA,NA,NA,NA,NA,NA,NA,NA,NA,NA,NA
NA,6153,stimuli-presentation,48,606446,0.0-5.0-15.0-1.0,SS1630690420733,NA,NA,NA,NA,NA,32,500,6653,images/stimuli/complex_24_A_b.gif,images/stimuli/complex_08_A_a.gif,self_paced,840,complex,2,complex_dissimilar,trial,images/stimuli/complex_08_A_a.gif,NA,NA,NA,NA,NA
NA,null,html-keyboard-response,49,607356,0.0-5.0-15.0-0.1,SS1630690420733,NA,NA,"<p><img src= images/blank.png width =""600"" height = ""600"" style=""position:fixed;top:50%; left:50%; transform: translate(-50%, -50%); border:5px solid black"">",NA,NA,null,NA,NA,NA,NA,NA,NA,NA,NA,NA,NA,NA,NA,NA,NA,NA,NA
NA,1236.6000001430511,stimuli-presentation,50,609607,0.0-5.0-15.0-1.1,SS1630690420733,NA,NA,NA,NA,NA,32,500,1736.6000001430511,images/stimuli/complex_24_A_b.gif,images/stimuli/complex_08_A_a.gif,self_paced,840,complex,2,complex_dissimilar,trial,images/stimuli/complex_08_A_a.gif,NA,NA,NA,NA,NA
NA,null,html-keyboard-response,51,610471,0.0-5.0-15.0-0.2,SS1630690420733,NA,NA,"<p><img src= images/blank.png width =""600"" height = ""600"" style=""position:fixed;top:50%; left:50%; transform: translate(-50%, -50%); border:5px solid black"">",NA,NA,null,NA,NA,NA,NA,NA,NA,NA,NA,NA,NA,NA,NA,NA,NA,NA,NA
NA,1571.7000000476837,stimuli-presentation,52,612969,0.0-5.0-15.0-1.2,SS1630690420733,NA,NA,NA,NA,NA,32,500,2071.7000000476837,images/stimuli/complex_24_A_b.gif,images/stimuli/complex_08_A_a.gif,self_paced,840,complex,2,complex_dissimilar,trial,images/stimuli/complex_24_A_b.gif,NA,NA,NA,NA,NA
NA,null,html-keyboard-response,53,613979,0.0-5.0-15.0-0.3,SS1630690420733,NA,NA,"<p><img src= images/blank.png width =""600"" height = ""600"" style=""position:fixed;top:50%; left:50%; transform: translate(-50%, -50%); border:5px solid black"">",NA,NA,null,NA,NA,NA,NA,NA,NA,NA,NA,NA,NA,NA,NA,NA,NA,NA,NA
NA,540.7000000476837,stimuli-presentation,54,615462,0.0-5.0-15.0-1.3,SS1630690420733,NA,NA,NA,NA,NA,32,500,1040.7000000476837,images/stimuli/complex_24_A_b.gif,images/stimuli/complex_08_A_a.gif,self_paced,840,complex,2,complex_dissimilar,trial,images/stimuli/complex_24_A_b.gif,NA,NA,NA,NA,NA
NA,14092.799999952316,html-button-response,55,629560,0.0-5.0-16.0,SS1630690420733,NA,NA,NA,0,NA,NA,NA,NA,NA,NA,NA,NA,NA,NA,NA,memory_test,NA,2,NA,images/stimuli/complex_15_A_b.gif,images/stimuli/complex_08_A_a.gif,NA
"[{""page_index"":0,""viewing_time"":7866.799999952316}]",7868.299999952316,instructions,56,637433,0.0-5.0-17.0,SS1630690420733,NA,NA,NA,NA,NA,NA,NA,NA,NA,NA,NA,NA,NA,NA,NA,NA,NA,NA,NA,NA,NA,NA
NA,null,html-keyboard-response,57,638331,0.0-5.0-18.0-0.0,SS1630690420733,NA,NA,"<p><img src= images/blank.png width =""600"" height = ""600"" style=""position:fixed;top:50%; left:50%; transform: translate(-50%, -50%); border:5px solid black"">",NA,NA,null,NA,NA,NA,NA,NA,NA,NA,NA,NA,NA,NA,NA,NA,NA,NA,NA
NA,2373.5999999046326,stimuli-presentation,58,641655,0.0-5.0-18.0-1.0,SS1630690420733,NA,NA,NA,NA,NA,32,500,2873.5999999046326,images/stimuli/complex_19_A_b.gif,images/stimuli/complex_03_A_b.gif,self_paced,550,complex,3,complex_dissimilar,trial,images/stimuli/complex_03_A_b.gif,NA,NA,NA,NA,NA
NA,null,html-keyboard-response,59,642857,0.0-5.0-18.0-0.1,SS1630690420733,NA,NA,"<p><img src= images/blank.png width =""600"" height = ""600"" style=""position:fixed;top:50%; left:50%; transform: translate(-50%, -50%); border:5px solid black"">",NA,NA,null,NA,NA,NA,NA,NA,NA,NA,NA,NA,NA,NA,NA,NA,NA,NA,NA
NA,793,stimuli-presentation,60,644602,0.0-5.0-18.0-1.1,SS1630690420733,NA,NA,NA,NA,NA,32,500,1293,images/stimuli/complex_19_A_b.gif,images/stimuli/complex_03_A_b.gif,self_paced,550,complex,3,complex_dissimilar,trial,images/stimuli/complex_03_A_b.gif,NA,NA,NA,NA,NA
NA,null,html-keyboard-response,61,645891,0.0-5.0-18.0-0.2,SS1630690420733,NA,NA,"<p><img src= images/blank.png width =""600"" height = ""600"" style=""position:fixed;top:50%; left:50%; transform: translate(-50%, -50%); border:5px solid black"">",NA,NA,null,NA,NA,NA,NA,NA,NA,NA,NA,NA,NA,NA,NA,NA,NA,NA,NA
NA,513.3000001907349,stimuli-presentation,62,647520,0.0-5.0-18.0-1.2,SS1630690420733,NA,NA,NA,NA,NA,32,500,1013.3000001907349,images/stimuli/complex_19_A_b.gif,images/stimuli/complex_03_A_b.gif,self_paced,550,complex,3,complex_dissimilar,trial,images/stimuli/complex_03_A_b.gif,NA,NA,NA,NA,NA
NA,null,html-keyboard-response,63,648419,0.0-5.0-18.0-0.3,SS1630690420733,NA,NA,"<p><img src= images/blank.png width =""600"" height = ""600"" style=""position:fixed;top:50%; left:50%; transform: translate(-50%, -50%); border:5px solid black"">",NA,NA,null,NA,NA,NA,NA,NA,NA,NA,NA,NA,NA,NA,NA,NA,NA,NA,NA
NA,1061.2000000476837,stimuli-presentation,64,650447,0.0-5.0-18.0-1.3,SS1630690420733,NA,NA,NA,NA,NA,32,500,1561.2000000476837,images/stimuli/complex_19_A_b.gif,images/stimuli/complex_03_A_b.gif,self_paced,550,complex,3,complex_dissimilar,trial,images/stimuli/complex_03_A_b.gif,NA,NA,NA,NA,NA
NA,null,html-keyboard-response,65,651484,0.0-5.0-18.0-0.4,SS1630690420733,NA,NA,"<p><img src= images/blank.png width =""600"" height = ""600"" style=""position:fixed;top:50%; left:50%; transform: translate(-50%, -50%); border:5px solid black"">",NA,NA,null,NA,NA,NA,NA,NA,NA,NA,NA,NA,NA,NA,NA,NA,NA,NA,NA
NA,1387.2000000476837,stimuli-presentation,66,653845,0.0-5.0-18.0-1.4,SS1630690420733,NA,NA,NA,NA,NA,32,500,1887.2000000476837,images/stimuli/complex_19_A_b.gif,images/stimuli/complex_03_A_b.gif,self_paced,550,complex,3,complex_dissimilar,trial,images/stimuli/complex_03_A_b.gif,NA,NA,NA,NA,NA
NA,null,html-keyboard-response,67,655095,0.0-5.0-18.0-0.5,SS1630690420733,NA,NA,"<p><img src= images/blank.png width =""600"" height = ""600"" style=""position:fixed;top:50%; left:50%; transform: translate(-50%, -50%); border:5px solid black"">",NA,NA,null,NA,NA,NA,NA,NA,NA,NA,NA,NA,NA,NA,NA,NA,NA,NA,NA
NA,606.6000001430511,stimuli-presentation,68,656667,0.0-5.0-18.0-1.5,SS1630690420733,NA,NA,NA,NA,NA,32,500,1106.6000001430511,images/stimuli/complex_19_A_b.gif,images/stimuli/complex_03_A_b.gif,self_paced,550,complex,3,complex_dissimilar,trial,images/stimuli/complex_03_A_b.gif,NA,NA,NA,NA,NA
NA,18638.39999985695,html-button-response,69,675376,0.0-5.0-19.0,SS1630690420733,NA,NA,NA,1,NA,NA,NA,NA,NA,NA,NA,NA,NA,NA,NA,memory_test,NA,3,NA,images/stimuli/complex_05_A_a.gif,images/stimuli/complex_03_A_b.gif,NA
"[{""page_index"":0,""viewing_time"":9122}]",9123.199999809265,instructions,70,684516,0.0-5.0-20.0,SS1630690420733,NA,NA,NA,NA,NA,NA,NA,NA,NA,NA,NA,NA,NA,NA,NA,NA,NA,NA,NA,NA,NA,NA
NA,null,html-keyboard-response,71,685450,0.0-5.0-21.0-0.0,SS1630690420733,NA,NA,"<p><img src= images/blank.png width =""600"" height = ""600"" style=""position:fixed;top:50%; left:50%; transform: translate(-50%, -50%); border:5px solid black"">",NA,NA,null,NA,NA,NA,NA,NA,NA,NA,NA,NA,NA,NA,NA,NA,NA,NA,NA
NA,2400.2999999523163,stimuli-presentation,72,688838,0.0-5.0-21.0-1.0,SS1630690420733,NA,NA,NA,NA,NA,32,500,2900.2999999523163,images/stimuli/complex_13_A_a.gif,images/stimuli/complex_11_A_a.gif,self_paced,170,complex,4,complex_dissimilar,trial,images/stimuli/complex_11_A_a.gif,NA,NA,NA,NA,NA
NA,null,html-keyboard-response,73,689763,0.0-5.0-21.0-0.1,SS1630690420733,NA,NA,"<p><img src= images/blank.png width =""600"" height = ""600"" style=""position:fixed;top:50%; left:50%; transform: translate(-50%, -50%); border:5px solid black"">",NA,NA,null,NA,NA,NA,NA,NA,NA,NA,NA,NA,NA,NA,NA,NA,NA,NA,NA
NA,651,stimuli-presentation,74,691336,0.0-5.0-21.0-1.1,SS1630690420733,NA,NA,NA,NA,NA,32,500,1151,images/stimuli/complex_13_A_a.gif,images/stimuli/complex_11_A_a.gif,self_paced,170,complex,4,complex_dissimilar,trial,images/stimuli/complex_11_A_a.gif,NA,NA,NA,NA,NA
NA,null,html-keyboard-response,75,692198,0.0-5.0-21.0-0.2,SS1630690420733,NA,NA,"<p><img src= images/blank.png width =""600"" height = ""600"" style=""position:fixed;top:50%; left:50%; transform: translate(-50%, -50%); border:5px solid black"">",NA,NA,null,NA,NA,NA,NA,NA,NA,NA,NA,NA,NA,NA,NA,NA,NA,NA,NA
NA,656,stimuli-presentation,76,693831,0.0-5.0-21.0-1.2,SS1630690420733,NA,NA,NA,NA,NA,32,500,1156,images/stimuli/complex_13_A_a.gif,images/stimuli/complex_11_A_a.gif,self_paced,170,complex,4,complex_dissimilar,trial,images/stimuli/complex_11_A_a.gif,NA,NA,NA,NA,NA
NA,null,html-keyboard-response,77,695056,0.0-5.0-21.0-0.3,SS1630690420733,NA,NA,"<p><img src= images/blank.png width =""600"" height = ""600"" style=""position:fixed;top:50%; left:50%; transform: translate(-50%, -50%); border:5px solid black"">",NA,NA,null,NA,NA,NA,NA,NA,NA,NA,NA,NA,NA,NA,NA,NA,NA,NA,NA
NA,2687.399999856949,stimuli-presentation,78,698685,0.0-5.0-21.0-1.3,SS1630690420733,NA,NA,NA,NA,NA,32,500,3187.399999856949,images/stimuli/complex_13_A_a.gif,images/stimuli/complex_11_A_a.gif,self_paced,170,complex,4,complex_dissimilar,trial,images/stimuli/complex_13_A_a.gif,NA,NA,NA,NA,NA
NA,null,html-keyboard-response,79,699642,0.0-5.0-21.0-0.4,SS1630690420733,NA,NA,"<p><img src= images/blank.png width =""600"" height = ""600"" style=""position:fixed;top:50%; left:50%; transform: translate(-50%, -50%); border:5px solid black"">",NA,NA,null,NA,NA,NA,NA,NA,NA,NA,NA,NA,NA,NA,NA,NA,NA,NA,NA
NA,969,stimuli-presentation,80,701561,0.0-5.0-21.0-1.4,SS1630690420733,NA,NA,NA,NA,NA,32,500,1469,images/stimuli/complex_13_A_a.gif,images/stimuli/complex_11_A_a.gif,self_paced,170,complex,4,complex_dissimilar,trial,images/stimuli/complex_13_A_a.gif,NA,NA,NA,NA,NA
NA,14546.200000047684,html-button-response,81,716122,0.0-5.0-22.0,SS1630690420733,NA,NA,NA,0,NA,NA,NA,NA,NA,NA,NA,NA,NA,NA,NA,memory_test,NA,4,NA,images/stimuli/complex_10_A_a.gif,images/stimuli/complex_13_A_a.gif,NA
"[{""page_index"":0,""viewing_time"":28061.10000014305}]",28064.10000014305,instructions,82,744191,0.0-5.0-23.0,SS1630690420733,NA,NA,NA,NA,NA,NA,NA,NA,NA,NA,NA,NA,NA,NA,NA,NA,NA,NA,NA,NA,NA,NA
NA,null,html-keyboard-response,83,745414,0.0-5.0-24.0-0.0,SS1630690420733,NA,NA,"<p><img src= images/blank.png width =""600"" height = ""600"" style=""position:fixed;top:50%; left:50%; transform: translate(-50%, -50%); border:5px solid black"">",NA,NA,null,NA,NA,NA,NA,NA,NA,NA,NA,NA,NA,NA,NA,NA,NA,NA,NA
NA,2510.100000143051,stimuli-presentation,84,748913,0.0-5.0-24.0-1.0,SS1630690420733,NA,NA,NA,NA,NA,32,500,3010.100000143051,images/stimuli/complex_04_A_a.gif,images/stimuli/complex_07_A_a.gif,self_paced,170,complex,5,complex_dissimilar,trial,images/stimuli/complex_07_A_a.gif,NA,NA,NA,NA,NA
NA,null,html-keyboard-response,85,749978,0.0-5.0-24.0-0.1,SS1630690420733,NA,NA,"<p><img src= images/blank.png width =""600"" height = ""600"" style=""position:fixed;top:50%; left:50%; transform: translate(-50%, -50%); border:5px solid black"">",NA,NA,null,NA,NA,NA,NA,NA,NA,NA,NA,NA,NA,NA,NA,NA,NA,NA,NA
NA,1456.2000000476837,stimuli-presentation,86,752378,0.0-5.0-24.0-1.1,SS1630690420733,NA,NA,NA,NA,NA,32,500,1956.2000000476837,images/stimuli/complex_04_A_a.gif,images/stimuli/complex_07_A_a.gif,self_paced,170,complex,5,complex_dissimilar,trial,images/stimuli/complex_07_A_a.gif,NA,NA,NA,NA,NA
NA,null,html-keyboard-response,87,753329,0.0-5.0-24.0-0.2,SS1630690420733,NA,NA,"<p><img src= images/blank.png width =""600"" height = ""600"" style=""position:fixed;top:50%; left:50%; transform: translate(-50%, -50%); border:5px solid black"">",NA,NA,null,NA,NA,NA,NA,NA,NA,NA,NA,NA,NA,NA,NA,NA,NA,NA,NA
NA,1142,stimuli-presentation,88,755466,0.0-5.0-24.0-1.2,SS1630690420733,NA,NA,NA,NA,NA,32,500,1642,images/stimuli/complex_04_A_a.gif,images/stimuli/complex_07_A_a.gif,self_paced,170,complex,5,complex_dissimilar,trial,images/stimuli/complex_04_A_a.gif,NA,NA,NA,NA,NA
NA,null,html-keyboard-response,89,756364,0.0-5.0-24.0-0.3,SS1630690420733,NA,NA,"<p><img src= images/blank.png width =""600"" height = ""600"" style=""position:fixed;top:50%; left:50%; transform: translate(-50%, -50%); border:5px solid black"">",NA,NA,null,NA,NA,NA,NA,NA,NA,NA,NA,NA,NA,NA,NA,NA,NA,NA,NA
NA,133,stimuli-presentation,90,757434,0.0-5.0-24.0-1.3,SS1630690420733,NA,NA,NA,NA,NA,32,500,633,images/stimuli/complex_04_A_a.gif,images/stimuli/complex_07_A_a.gif,self_paced,170,complex,5,complex_dissimilar,trial,images/stimuli/complex_04_A_a.gif,NA,NA,NA,NA,NA
NA,null,html-keyboard-response,91,758598,0.0-5.0-24.0-0.4,SS1630690420733,NA,NA,"<p><img src= images/blank.png width =""600"" height = ""600"" style=""position:fixed;top:50%; left:50%; transform: translate(-50%, -50%); border:5px solid black"">",NA,NA,null,NA,NA,NA,NA,NA,NA,NA,NA,NA,NA,NA,NA,NA,NA,NA,NA
NA,1466.3999998569489,stimuli-presentation,92,761128,0.0-5.0-24.0-1.4,SS1630690420733,NA,NA,NA,NA,NA,32,500,1966.3999998569489,images/stimuli/complex_04_A_a.gif,images/stimuli/complex_07_A_a.gif,self_paced,170,complex,5,complex_dissimilar,trial,images/stimuli/complex_07_A_a.gif,NA,NA,NA,NA,NA
NA,null,html-keyboard-response,93,762159,0.0-5.0-24.0-0.5,SS1630690420733,NA,NA,"<p><img src= images/blank.png width =""600"" height = ""600"" style=""position:fixed;top:50%; left:50%; transform: translate(-50%, -50%); border:5px solid black"">",NA,NA,null,NA,NA,NA,NA,NA,NA,NA,NA,NA,NA,NA,NA,NA,NA,NA,NA
NA,208.59999990463257,stimuli-presentation,94,763327,0.0-5.0-24.0-1.5,SS1630690420733,NA,NA,NA,NA,NA,32,500,708.5999999046326,images/stimuli/complex_04_A_a.gif,images/stimuli/complex_07_A_a.gif,self_paced,170,complex,5,complex_dissimilar,trial,images/stimuli/complex_07_A_a.gif,NA,NA,NA,NA,NA
NA,26599.700000047684,html-button-response,95,789936,0.0-5.0-25.0,SS1630690420733,NA,NA,NA,1,NA,NA,NA,NA,NA,NA,NA,NA,NA,NA,NA,memory_test,NA,5,NA,images/stimuli/complex_22_A_b.gif,images/stimuli/complex_07_A_a.gif,NA
"[{""page_index"":0,""viewing_time"":14371.899999856949}]",14372.299999952316,instructions,96,804314,0.0-5.0-26.0,SS1630690420733,NA,NA,NA,NA,NA,NA,NA,NA,NA,NA,NA,NA,NA,NA,NA,NA,NA,NA,NA,NA,NA,NA
NA,null,html-keyboard-response,97,805167,0.0-5.0-27.0-0.0,SS1630690420733,NA,NA,"<p><img src= images/blank.png width =""600"" height = ""600"" style=""position:fixed;top:50%; left:50%; transform: translate(-50%, -50%); border:5px solid black"">",NA,NA,null,NA,NA,NA,NA,NA,NA,NA,NA,NA,NA,NA,NA,NA,NA,NA,NA
NA,5304.600000143051,stimuli-presentation,98,811424,0.0-5.0-27.0-1.0,SS1630690420733,NA,NA,NA,NA,NA,32,500,5804.600000143051,images/stimuli/complex_12_A_b.gif,images/stimuli/complex_01_A_a.gif,self_paced,890,complex,6,complex_dissimilar,trial,images/stimuli/complex_01_A_a.gif,NA,NA,NA,NA,NA
NA,null,html-keyboard-response,99,812339,0.0-5.0-27.0-0.1,SS1630690420733,NA,NA,"<p><img src= images/blank.png width =""600"" height = ""600"" style=""position:fixed;top:50%; left:50%; transform: translate(-50%, -50%); border:5px solid black"">",NA,NA,null,NA,NA,NA,NA,NA,NA,NA,NA,NA,NA,NA,NA,NA,NA,NA,NA
NA,286.90000009536743,stimuli-presentation,100,813588,0.0-5.0-27.0-1.1,SS1630690420733,NA,NA,NA,NA,NA,32,500,786.9000000953674,images/stimuli/complex_12_A_b.gif,images/stimuli/complex_01_A_a.gif,self_paced,890,complex,6,complex_dissimilar,trial,images/stimuli/complex_12_A_b.gif,NA,NA,NA,NA,NA
NA,null,html-keyboard-response,101,814485,0.0-5.0-27.0-0.2,SS1630690420733,NA,NA,"<p><img src= images/blank.png width =""600"" height = ""600"" style=""position:fixed;top:50%; left:50%; transform: translate(-50%, -50%); border:5px solid black"">",NA,NA,null,NA,NA,NA,NA,NA,NA,NA,NA,NA,NA,NA,NA,NA,NA,NA,NA
NA,112.19999980926514,stimuli-presentation,102,815527,0.0-5.0-27.0-1.2,SS1630690420733,NA,NA,NA,NA,NA,32,500,612.1999998092651,images/stimuli/complex_12_A_b.gif,images/stimuli/complex_01_A_a.gif,self_paced,890,complex,6,complex_dissimilar,trial,images/stimuli/complex_01_A_a.gif,NA,NA,NA,NA,NA
NA,null,html-keyboard-response,103,816375,0.0-5.0-27.0-0.3,SS1630690420733,NA,NA,"<p><img src= images/blank.png width =""600"" height = ""600"" style=""position:fixed;top:50%; left:50%; transform: translate(-50%, -50%); border:5px solid black"">",NA,NA,null,NA,NA,NA,NA,NA,NA,NA,NA,NA,NA,NA,NA,NA,NA,NA,NA
NA,302.5,stimuli-presentation,104,817603,0.0-5.0-27.0-1.3,SS1630690420733,NA,NA,NA,NA,NA,32,500,802.5,images/stimuli/complex_12_A_b.gif,images/stimuli/complex_01_A_a.gif,self_paced,890,complex,6,complex_dissimilar,trial,images/stimuli/complex_01_A_a.gif,NA,NA,NA,NA,NA
NA,null,html-keyboard-response,105,818535,0.0-5.0-27.0-0.4,SS1630690420733,NA,NA,"<p><img src= images/blank.png width =""600"" height = ""600"" style=""position:fixed;top:50%; left:50%; transform: translate(-50%, -50%); border:5px solid black"">",NA,NA,null,NA,NA,NA,NA,NA,NA,NA,NA,NA,NA,NA,NA,NA,NA,NA,NA
NA,301.5,stimuli-presentation,106,819779,0.0-5.0-27.0-1.4,SS1630690420733,NA,NA,NA,NA,NA,32,500,801.5,images/stimuli/complex_12_A_b.gif,images/stimuli/complex_01_A_a.gif,self_paced,890,complex,6,complex_dissimilar,trial,images/stimuli/complex_12_A_b.gif,NA,NA,NA,NA,NA
NA,null,html-keyboard-response,107,820896,0.0-5.0-27.0-0.5,SS1630690420733,NA,NA,"<p><img src= images/blank.png width =""600"" height = ""600"" style=""position:fixed;top:50%; left:50%; transform: translate(-50%, -50%); border:5px solid black"">",NA,NA,null,NA,NA,NA,NA,NA,NA,NA,NA,NA,NA,NA,NA,NA,NA,NA,NA
NA,151,stimuli-presentation,108,821976,0.0-5.0-27.0-1.5,SS1630690420733,NA,NA,NA,NA,NA,32,500,651,images/stimuli/complex_12_A_b.gif,images/stimuli/complex_01_A_a.gif,self_paced,890,complex,6,complex_dissimilar,trial,images/stimuli/complex_01_A_a.gif,NA,NA,NA,NA,NA
NA,14948.800000190735,html-button-response,109,836937,0.0-5.0-28.0,SS1630690420733,NA,NA,NA,1,NA,NA,NA,NA,NA,NA,NA,NA,NA,NA,NA,memory_test,NA,6,NA,images/stimuli/complex_12_A_b.gif,images/stimuli/complex_06_A_b.gif,NA
"[{""page_index"":0,""viewing_time"":11868.699999809265}]",11869.299999952316,instructions,110,848812,0.0-5.0-29.0,SS1630690420733,NA,NA,NA,NA,NA,NA,NA,NA,NA,NA,NA,NA,NA,NA,NA,NA,NA,NA,NA,NA,NA,NA
NA,null,html-keyboard-response,111,850116,0.0-5.0-30.0-0.0,SS1630690420733,NA,NA,"<p><img src= images/blank.png width =""600"" height = ""600"" style=""position:fixed;top:50%; left:50%; transform: translate(-50%, -50%); border:5px solid black"">",NA,NA,null,NA,NA,NA,NA,NA,NA,NA,NA,NA,NA,NA,NA,NA,NA,NA,NA
NA,2843.100000143051,stimuli-presentation,112,853950,0.0-5.0-30.0-1.0,SS1630690420733,NA,NA,NA,NA,NA,32,500,3343.100000143051,images/stimuli/complex_16_A_a.gif,images/stimuli/complex_20_A_a.gif,self_paced,670,complex,7,complex_dissimilar,trial,images/stimuli/complex_20_A_a.gif,NA,NA,NA,NA,NA
NA,null,html-keyboard-response,113,854916,0.0-5.0-30.0-0.1,SS1630690420733,NA,NA,"<p><img src= images/blank.png width =""600"" height = ""600"" style=""position:fixed;top:50%; left:50%; transform: translate(-50%, -50%); border:5px solid black"">",NA,NA,null,NA,NA,NA,NA,NA,NA,NA,NA,NA,NA,NA,NA,NA,NA,NA,NA
NA,833.7999999523163,stimuli-presentation,114,856677,0.0-5.0-30.0-1.1,SS1630690420733,NA,NA,NA,NA,NA,32,500,1333.7999999523163,images/stimuli/complex_16_A_a.gif,images/stimuli/complex_20_A_a.gif,self_paced,670,complex,7,complex_dissimilar,trial,images/stimuli/complex_20_A_a.gif,NA,NA,NA,NA,NA
NA,null,html-keyboard-response,115,857987,0.0-5.0-30.0-0.2,SS1630690420733,NA,NA,"<p><img src= images/blank.png width =""600"" height = ""600"" style=""position:fixed;top:50%; left:50%; transform: translate(-50%, -50%); border:5px solid black"">",NA,NA,null,NA,NA,NA,NA,NA,NA,NA,NA,NA,NA,NA,NA,NA,NA,NA,NA
NA,816.2999999523163,stimuli-presentation,116,859795,0.0-5.0-30.0-1.2,SS1630690420733,NA,NA,NA,NA,NA,32,500,1316.2999999523163,images/stimuli/complex_16_A_a.gif,images/stimuli/complex_20_A_a.gif,self_paced,670,complex,7,complex_dissimilar,trial,images/stimuli/complex_16_A_a.gif,NA,NA,NA,NA,NA
NA,null,html-keyboard-response,117,860988,0.0-5.0-30.0-0.3,SS1630690420733,NA,NA,"<p><img src= images/blank.png width =""600"" height = ""600"" style=""position:fixed;top:50%; left:50%; transform: translate(-50%, -50%); border:5px solid black"">",NA,NA,null,NA,NA,NA,NA,NA,NA,NA,NA,NA,NA,NA,NA,NA,NA,NA,NA
NA,1215.5,stimuli-presentation,118,863135,0.0-5.0-30.0-1.3,SS1630690420733,NA,NA,NA,NA,NA,32,500,1715.5,images/stimuli/complex_16_A_a.gif,images/stimuli/complex_20_A_a.gif,self_paced,670,complex,7,complex_dissimilar,trial,images/stimuli/complex_16_A_a.gif,NA,NA,NA,NA,NA
NA,null,html-keyboard-response,119,864247,0.0-5.0-30.0-0.4,SS1630690420733,NA,NA,"<p><img src= images/blank.png width =""600"" height = ""600"" style=""position:fixed;top:50%; left:50%; transform: translate(-50%, -50%); border:5px solid black"">",NA,NA,null,NA,NA,NA,NA,NA,NA,NA,NA,NA,NA,NA,NA,NA,NA,NA,NA
NA,1357.4000000953674,stimuli-presentation,120,866557,0.0-5.0-30.0-1.4,SS1630690420733,NA,NA,NA,NA,NA,32,500,1857.4000000953674,images/stimuli/complex_16_A_a.gif,images/stimuli/complex_20_A_a.gif,self_paced,670,complex,7,complex_dissimilar,trial,images/stimuli/complex_20_A_a.gif,NA,NA,NA,NA,NA
NA,13871.900000095367,html-button-response,121,880439,0.0-5.0-31.0,SS1630690420733,NA,NA,NA,0,NA,NA,NA,NA,NA,NA,NA,NA,NA,NA,NA,memory_test,NA,7,NA,images/stimuli/complex_09_A_b.gif,images/stimuli/complex_20_A_a.gif,NA
"[{""page_index"":0,""viewing_time"":7794.299999952316}]",7795.099999904633,instructions,122,888249,0.0-5.0-32.0,SS1630690420733,NA,NA,NA,NA,NA,NA,NA,NA,NA,NA,NA,NA,NA,NA,NA,NA,NA,NA,NA,NA,NA,NA
NA,NA,fullscreen,123,889260,0.0-7.0,SS1630690420733,TRUE,NA,NA,NA,NA,NA,NA,NA,NA,NA,NA,NA,NA,NA,NA,NA,NA,NA,NA,NA,NA,NA
"[{""page_index"":0,""viewing_time"":6726.400000095367}]",6727.700000047684,instructions,124,896003,0.0-8.0,SS1630690420733,NA,NA,NA,NA,NA,NA,NA,NA,NA,NA,NA,NA,NA,NA,NA,NA,NA,NA,NA,NA,NA,NA
NA,15051.100000143051,demog-gender-and-education,125,911063,0.0-9.0,SS1630690420733,NA,"{""education"":""Master's Degree""}",NA,NA,NA,NA,NA,NA,NA,NA,NA,NA,NA,NA,NA,NA,NA,NA,NA,NA,NA,[0]
"[{""page_index"":0,""viewing_time"":6172.600000143051},{""page_index"":1,""viewing_time"":7280.199999809265},{""page_index"":2,""viewing_time"":19029.60000014305},{""page_index"":3,""viewing_time"":79001},{""page_index"":4,""viewing_time"":17753.099999904633},{""page_index"":5,""viewing_time"":17118.5}]",146356.20000004768,instructions,126,1057451,0.0-10.0,SS1630690420733,NA,NA,NA,NA,NA,NA,NA,NA,NA,NA,NA,NA,NA,NA,NA,NA,NA,NA,NA,NA,NA,NA
"[{""page_index"":0,""viewing_time"":36374},{""page_index"":1,""viewing_time"":4150},{""page_index"":2,""viewing_time"":84452.99999999999},{""page_index"":3,""viewing_time"":53688.000000000015}]",178666,instructions,0,178657,0.0-0.0,SS1630711860329,NA,NA,NA,NA,NA,NA,NA,NA,NA,NA,NA,NA,NA,NA,NA,NA,NA,NA,NA,NA,NA,NA
NA,NA,fullscreen,1,186632,0.0-1.0,SS1630711860329,TRUE,NA,NA,NA,NA,NA,NA,NA,NA,NA,NA,NA,NA,NA,NA,NA,NA,NA,NA,NA,NA,NA
"[{""page_index"":0,""viewing_time"":33043.00000000003},{""page_index"":1,""viewing_time"":37435.99999999997},{""page_index"":2,""viewing_time"":33099},{""page_index"":3,""viewing_time"":16509},{""page_index"":4,""viewing_time"":37446}]",157533,instructions,2,344158,0.0-2.0,SS1630711860329,NA,NA,NA,NA,NA,NA,NA,NA,NA,NA,NA,NA,NA,NA,NA,NA,NA,NA,NA,NA,NA,NA
NA,39358,demog-age,3,383533,0.0-3.0,SS1630711860329,NA,"{""redcap_id"":""oc690""}",NA,NA,NA,NA,NA,NA,NA,NA,NA,NA,NA,NA,NA,NA,NA,NA,NA,NA,NA,NA
NA,17712,html-button-response,4,401247,0.0-4.0,SS1630711860329,NA,NA,"<p><img src= images/seemore.gif width =""400"" height = ""400""</p>",0,NA,NA,NA,NA,NA,NA,NA,NA,NA,NA,NA,NA,NA,NA,NA,NA,NA,NA
NA,6170,stimuli-presentation,5,408359,0.0-5.0-0.0,SS1630711860329,NA,NA,NA,NA,NA,32,500,6670,null,null,self_paced,0,NA,NA,NA,NA,NA,NA,NA,NA,NA,NA
"[{""page_index"":0,""viewing_time"":13030}]",13030,instructions,6,421390,0.0-5.0-1.0,SS1630711860329,NA,NA,NA,NA,NA,NA,NA,NA,NA,NA,NA,NA,NA,NA,NA,NA,NA,NA,NA,NA,NA,NA
NA,13822,stimuli-presentation,7,436131,0.0-5.0-2.0,SS1630711860329,NA,NA,NA,NA,NA,32,500,14322,null,null,self_paced,0,NA,NA,NA,NA,NA,NA,NA,NA,NA,NA
"[{""page_index"":0,""viewing_time"":7825.000000000058}]",7825.000000000058,instructions,8,443957,0.0-5.0-3.0,SS1630711860329,NA,NA,NA,NA,NA,NA,NA,NA,NA,NA,NA,NA,NA,NA,NA,NA,NA,NA,NA,NA,NA,NA
"[{""page_index"":0,""viewing_time"":28633}]",28634,instructions,9,472590,0.0-5.0-4.0,SS1630711860329,NA,NA,NA,NA,NA,NA,NA,NA,NA,NA,NA,NA,NA,NA,NA,NA,NA,NA,NA,NA,NA,NA
NA,null,html-keyboard-response,10,473393,0.0-5.0-5.0-0.0,SS1630711860329,NA,NA,"<p><img src= images/blank.png width =""600"" height = ""600"" style=""position:fixed;top:50%; left:50%; transform: translate(-50%, -50%); border:5px solid black"">",NA,NA,null,NA,NA,NA,NA,NA,NA,NA,NA,NA,NA,NA,NA,NA,NA,NA,NA
NA,22163,stimuli-presentation,11,496472,0.0-5.0-5.0-1.0,SS1630711860329,NA,NA,NA,NA,NA,32,500,22663,images/stimuli/complex_11_A_a.gif,images/stimuli/complex_19_A_a.gif,self_paced,900,NA,NA,NA,NA,NA,NA,NA,NA,NA,NA
NA,null,html-keyboard-response,12,497491,0.0-5.0-5.0-0.1,SS1630711860329,NA,NA,"<p><img src= images/blank.png width =""600"" height = ""600"" style=""position:fixed;top:50%; left:50%; transform: translate(-50%, -50%); border:5px solid black"">",NA,NA,null,NA,NA,NA,NA,NA,NA,NA,NA,NA,NA,NA,NA,NA,NA,NA,NA
NA,20366.99999999994,stimuli-presentation,13,518774,0.0-5.0-5.0-1.1,SS1630711860329,NA,NA,NA,NA,NA,32,500,20866.99999999994,images/stimuli/complex_11_A_a.gif,images/stimuli/complex_19_A_a.gif,self_paced,900,NA,NA,NA,NA,NA,NA,NA,NA,NA,NA
NA,null,html-keyboard-response,14,520006,0.0-5.0-5.0-0.2,SS1630711860329,NA,NA,"<p><img src= images/blank.png width =""600"" height = ""600"" style=""position:fixed;top:50%; left:50%; transform: translate(-50%, -50%); border:5px solid black"">",NA,NA,null,NA,NA,NA,NA,NA,NA,NA,NA,NA,NA,NA,NA,NA,NA,NA,NA
NA,16769,stimuli-presentation,15,537692,0.0-5.0-5.0-1.2,SS1630711860329,NA,NA,NA,NA,NA,32,500,17269,images/stimuli/complex_11_A_a.gif,images/stimuli/complex_19_A_a.gif,self_paced,900,NA,NA,NA,NA,NA,NA,NA,NA,NA,NA
NA,30465,html-button-response,16,568157,0.0-5.0-6.0,SS1630711860329,NA,NA,NA,0,NA,NA,NA,NA,NA,NA,NA,NA,NA,NA,NA,NA,NA,NA,NA,NA,NA,NA
"[{""page_index"":0,""viewing_time"":12764}]",12764,instructions,17,580921,0.0-5.0-7.0,SS1630711860329,NA,NA,NA,NA,NA,NA,NA,NA,NA,NA,NA,NA,NA,NA,NA,NA,NA,NA,NA,NA,NA,NA
NA,6034,stimuli-presentation,18,587874,0.0-5.0-8.0,SS1630711860329,NA,NA,NA,NA,NA,32,500,6534,null,null,self_paced,0,NA,NA,NA,NA,NA,NA,NA,NA,NA,NA
NA,null,html-keyboard-response,19,588689,0.0-5.0-9.0-0.0,SS1630711860329,NA,NA,"<p><img src= images/blank.png width =""600"" height = ""600"" style=""position:fixed;top:50%; left:50%; transform: translate(-50%, -50%); border:5px solid black"">",NA,NA,null,NA,NA,NA,NA,NA,NA,NA,NA,NA,NA,NA,NA,NA,NA,NA,NA
NA,18379,stimuli-presentation,20,607986,0.0-5.0-9.0-1.0,SS1630711860329,NA,NA,NA,NA,NA,32,500,18879,images/stimuli/complex_16_A_a.gif,images/stimuli/complex_14_A_b.gif,self_paced,370,complex,0,complex_dissimilar,trial,images/stimuli/complex_14_A_b.gif,NA,NA,NA,NA,NA
NA,null,html-keyboard-response,21,608972,0.0-5.0-9.0-0.1,SS1630711860329,NA,NA,"<p><img src= images/blank.png width =""600"" height = ""600"" style=""position:fixed;top:50%; left:50%; transform: translate(-50%, -50%); border:5px solid black"">",NA,NA,null,NA,NA,NA,NA,NA,NA,NA,NA,NA,NA,NA,NA,NA,NA,NA,NA
NA,15600,stimuli-presentation,22,625490,0.0-5.0-9.0-1.1,SS1630711860329,NA,NA,NA,NA,NA,32,500,16100,images/stimuli/complex_16_A_a.gif,images/stimuli/complex_14_A_b.gif,self_paced,370,complex,0,complex_dissimilar,trial,images/stimuli/complex_16_A_a.gif,NA,NA,NA,NA,NA
NA,null,html-keyboard-response,23,626569,0.0-5.0-9.0-0.2,SS1630711860329,NA,NA,"<p><img src= images/blank.png width =""600"" height = ""600"" style=""position:fixed;top:50%; left:50%; transform: translate(-50%, -50%); border:5px solid black"">",NA,NA,null,NA,NA,NA,NA,NA,NA,NA,NA,NA,NA,NA,NA,NA,NA,NA,NA
NA,12505,stimuli-presentation,24,639991,0.0-5.0-9.0-1.2,SS1630711860329,NA,NA,NA,NA,NA,32,500,13005,images/stimuli/complex_16_A_a.gif,images/stimuli/complex_14_A_b.gif,self_paced,370,complex,0,complex_dissimilar,trial,images/stimuli/complex_14_A_b.gif,NA,NA,NA,NA,NA
NA,null,html-keyboard-response,25,641156,0.0-5.0-9.0-0.3,SS1630711860329,NA,NA,"<p><img src= images/blank.png width =""600"" height = ""600"" style=""position:fixed;top:50%; left:50%; transform: translate(-50%, -50%); border:5px solid black"">",NA,NA,null,NA,NA,NA,NA,NA,NA,NA,NA,NA,NA,NA,NA,NA,NA,NA,NA
NA,13060.000000000116,stimuli-presentation,26,655134,0.0-5.0-9.0-1.3,SS1630711860329,NA,NA,NA,NA,NA,32,500,13560.000000000116,images/stimuli/complex_16_A_a.gif,images/stimuli/complex_14_A_b.gif,self_paced,370,complex,0,complex_dissimilar,trial,images/stimuli/complex_14_A_b.gif,NA,NA,NA,NA,NA
NA,null,html-keyboard-response,27,656012,0.0-5.0-9.0-0.4,SS1630711860329,NA,NA,"<p><img src= images/blank.png width =""600"" height = ""600"" style=""position:fixed;top:50%; left:50%; transform: translate(-50%, -50%); border:5px solid black"">",NA,NA,null,NA,NA,NA,NA,NA,NA,NA,NA,NA,NA,NA,NA,NA,NA,NA,NA
NA,16085,stimuli-presentation,28,673012,0.0-5.0-9.0-1.4,SS1630711860329,NA,NA,NA,NA,NA,32,500,16585,images/stimuli/complex_16_A_a.gif,images/stimuli/complex_14_A_b.gif,self_paced,370,complex,0,complex_dissimilar,trial,images/stimuli/complex_16_A_a.gif,NA,NA,NA,NA,NA
NA,null,html-keyboard-response,29,673868,0.0-5.0-9.0-0.5,SS1630711860329,NA,NA,"<p><img src= images/blank.png width =""600"" height = ""600"" style=""position:fixed;top:50%; left:50%; transform: translate(-50%, -50%); border:5px solid black"">",NA,NA,null,NA,NA,NA,NA,NA,NA,NA,NA,NA,NA,NA,NA,NA,NA,NA,NA
NA,11139.999999999884,stimuli-presentation,30,685925,0.0-5.0-9.0-1.5,SS1630711860329,NA,NA,NA,NA,NA,32,500,11639.999999999884,images/stimuli/complex_16_A_a.gif,images/stimuli/complex_14_A_b.gif,self_paced,370,complex,0,complex_dissimilar,trial,images/stimuli/complex_14_A_b.gif,NA,NA,NA,NA,NA
NA,33622,html-button-response,31,719548,0.0-5.0-10.0,SS1630711860329,NA,NA,NA,1,NA,NA,NA,NA,NA,NA,NA,NA,NA,NA,NA,memory_test,NA,0,NA,images/stimuli/complex_21_A_b.gif,images/stimuli/complex_16_A_a.gif,NA
"[{""page_index"":0,""viewing_time"":9326}]",9326,instructions,32,728875,0.0-5.0-11.0,SS1630711860329,NA,NA,NA,NA,NA,NA,NA,NA,NA,NA,NA,NA,NA,NA,NA,NA,NA,NA,NA,NA,NA,NA
NA,null,html-keyboard-response,33,729885,0.0-5.0-12.0-0.0,SS1630711860329,NA,NA,"<p><img src= images/blank.png width =""600"" height = ""600"" style=""position:fixed;top:50%; left:50%; transform: translate(-50%, -50%); border:5px solid black"">",NA,NA,null,NA,NA,NA,NA,NA,NA,NA,NA,NA,NA,NA,NA,NA,NA,NA,NA
NA,9975.000000000116,stimuli-presentation,34,740777,0.0-5.0-12.0-1.0,SS1630711860329,NA,NA,NA,NA,NA,32,500,10475.000000000116,images/stimuli/complex_05_A_a.gif,images/stimuli/complex_12_A_b.gif,self_paced,230,complex,1,complex_dissimilar,trial,images/stimuli/complex_12_A_b.gif,NA,NA,NA,NA,NA
NA,null,html-keyboard-response,35,741831,0.0-5.0-12.0-0.1,SS1630711860329,NA,NA,"<p><img src= images/blank.png width =""600"" height = ""600"" style=""position:fixed;top:50%; left:50%; transform: translate(-50%, -50%); border:5px solid black"">",NA,NA,null,NA,NA,NA,NA,NA,NA,NA,NA,NA,NA,NA,NA,NA,NA,NA,NA
NA,7589,stimuli-presentation,36,750337,0.0-5.0-12.0-1.1,SS1630711860329,NA,NA,NA,NA,NA,32,500,8089,images/stimuli/complex_05_A_a.gif,images/stimuli/complex_12_A_b.gif,self_paced,230,complex,1,complex_dissimilar,trial,images/stimuli/complex_12_A_b.gif,NA,NA,NA,NA,NA
NA,null,html-keyboard-response,37,751592,0.0-5.0-12.0-0.2,SS1630711860329,NA,NA,"<p><img src= images/blank.png width =""600"" height = ""600"" style=""position:fixed;top:50%; left:50%; transform: translate(-50%, -50%); border:5px solid black"">",NA,NA,null,NA,NA,NA,NA,NA,NA,NA,NA,NA,NA,NA,NA,NA,NA,NA,NA
NA,7923,stimuli-presentation,38,760432,0.0-5.0-12.0-1.2,SS1630711860329,NA,NA,NA,NA,NA,32,500,8423,images/stimuli/complex_05_A_a.gif,images/stimuli/complex_12_A_b.gif,self_paced,230,complex,1,complex_dissimilar,trial,images/stimuli/complex_12_A_b.gif,NA,NA,NA,NA,NA
NA,null,html-keyboard-response,39,761551,0.0-5.0-12.0-0.3,SS1630711860329,NA,NA,"<p><img src= images/blank.png width =""600"" height = ""600"" style=""position:fixed;top:50%; left:50%; transform: translate(-50%, -50%); border:5px solid black"">",NA,NA,null,NA,NA,NA,NA,NA,NA,NA,NA,NA,NA,NA,NA,NA,NA,NA,NA
NA,9402,stimuli-presentation,40,771872,0.0-5.0-12.0-1.3,SS1630711860329,NA,NA,NA,NA,NA,32,500,9902,images/stimuli/complex_05_A_a.gif,images/stimuli/complex_12_A_b.gif,self_paced,230,complex,1,complex_dissimilar,trial,images/stimuli/complex_12_A_b.gif,NA,NA,NA,NA,NA
NA,null,html-keyboard-response,41,772941,0.0-5.0-12.0-0.4,SS1630711860329,NA,NA,"<p><img src= images/blank.png width =""600"" height = ""600"" style=""position:fixed;top:50%; left:50%; transform: translate(-50%, -50%); border:5px solid black"">",NA,NA,null,NA,NA,NA,NA,NA,NA,NA,NA,NA,NA,NA,NA,NA,NA,NA,NA
NA,13837,stimuli-presentation,42,787695,0.0-5.0-12.0-1.4,SS1630711860329,NA,NA,NA,NA,NA,32,500,14337,images/stimuli/complex_05_A_a.gif,images/stimuli/complex_12_A_b.gif,self_paced,230,complex,1,complex_dissimilar,trial,images/stimuli/complex_05_A_a.gif,NA,NA,NA,NA,NA
NA,24306,html-button-response,43,812001,0.0-5.0-13.0,SS1630711860329,NA,NA,NA,1,NA,NA,NA,NA,NA,NA,NA,NA,NA,NA,NA,memory_test,NA,1,NA,images/stimuli/complex_09_A_a.gif,images/stimuli/complex_05_A_a.gif,NA
"[{""page_index"":0,""viewing_time"":6251.999999999884}]",6251.999999999884,instructions,44,818254,0.0-5.0-14.0,SS1630711860329,NA,NA,NA,NA,NA,NA,NA,NA,NA,NA,NA,NA,NA,NA,NA,NA,NA,NA,NA,NA,NA,NA
NA,null,html-keyboard-response,45,819222,0.0-5.0-15.0-0.0,SS1630711860329,NA,NA,"<p><img src= images/blank.png width =""600"" height = ""600"" style=""position:fixed;top:50%; left:50%; transform: translate(-50%, -50%); border:5px solid black"">",NA,NA,null,NA,NA,NA,NA,NA,NA,NA,NA,NA,NA,NA,NA,NA,NA,NA,NA
NA,9641,stimuli-presentation,46,829780,0.0-5.0-15.0-1.0,SS1630711860329,NA,NA,NA,NA,NA,32,500,10141,images/stimuli/complex_22_A_b.gif,images/stimuli/complex_18_A_a.gif,self_paced,370,complex,2,complex_dissimilar,trial,images/stimuli/complex_18_A_a.gif,NA,NA,NA,NA,NA
NA,null,html-keyboard-response,47,831002,0.0-5.0-15.0-0.1,SS1630711860329,NA,NA,"<p><img src= images/blank.png width =""600"" height = ""600"" style=""position:fixed;top:50%; left:50%; transform: translate(-50%, -50%); border:5px solid black"">",NA,NA,null,NA,NA,NA,NA,NA,NA,NA,NA,NA,NA,NA,NA,NA,NA,NA,NA
NA,6383,stimuli-presentation,48,838303,0.0-5.0-15.0-1.1,SS1630711860329,NA,NA,NA,NA,NA,32,500,6883,images/stimuli/complex_22_A_b.gif,images/stimuli/complex_18_A_a.gif,self_paced,370,complex,2,complex_dissimilar,trial,images/stimuli/complex_18_A_a.gif,NA,NA,NA,NA,NA
NA,null,html-keyboard-response,49,839139,0.0-5.0-15.0-0.2,SS1630711860329,NA,NA,"<p><img src= images/blank.png width =""600"" height = ""600"" style=""position:fixed;top:50%; left:50%; transform: translate(-50%, -50%); border:5px solid black"">",NA,NA,null,NA,NA,NA,NA,NA,NA,NA,NA,NA,NA,NA,NA,NA,NA,NA,NA
NA,6380,stimuli-presentation,50,846437,0.0-5.0-15.0-1.2,SS1630711860329,NA,NA,NA,NA,NA,32,500,6880,images/stimuli/complex_22_A_b.gif,images/stimuli/complex_18_A_a.gif,self_paced,370,complex,2,complex_dissimilar,trial,images/stimuli/complex_18_A_a.gif,NA,NA,NA,NA,NA
NA,null,html-keyboard-response,51,847551,0.0-5.0-15.0-0.3,SS1630711860329,NA,NA,"<p><img src= images/blank.png width =""600"" height = ""600"" style=""position:fixed;top:50%; left:50%; transform: translate(-50%, -50%); border:5px solid black"">",NA,NA,null,NA,NA,NA,NA,NA,NA,NA,NA,NA,NA,NA,NA,NA,NA,NA,NA
NA,7823,stimuli-presentation,52,856293,0.0-5.0-15.0-1.3,SS1630711860329,NA,NA,NA,NA,NA,32,500,8323,images/stimuli/complex_22_A_b.gif,images/stimuli/complex_18_A_a.gif,self_paced,370,complex,2,complex_dissimilar,trial,images/stimuli/complex_18_A_a.gif,NA,NA,NA,NA,NA
NA,null,html-keyboard-response,53,857477,0.0-5.0-15.0-0.4,SS1630711860329,NA,NA,"<p><img src= images/blank.png width =""600"" height = ""600"" style=""position:fixed;top:50%; left:50%; transform: translate(-50%, -50%); border:5px solid black"">",NA,NA,null,NA,NA,NA,NA,NA,NA,NA,NA,NA,NA,NA,NA,NA,NA,NA,NA
NA,8574.999999999884,stimuli-presentation,54,866970,0.0-5.0-15.0-1.4,SS1630711860329,NA,NA,NA,NA,NA,32,500,9074.999999999884,images/stimuli/complex_22_A_b.gif,images/stimuli/complex_18_A_a.gif,self_paced,370,complex,2,complex_dissimilar,trial,images/stimuli/complex_18_A_a.gif,NA,NA,NA,NA,NA
NA,23498.000000000116,html-button-response,55,890469,0.0-5.0-16.0,SS1630711860329,NA,NA,NA,0,NA,NA,NA,NA,NA,NA,NA,NA,NA,NA,NA,memory_test,NA,2,NA,images/stimuli/complex_18_A_a.gif,images/stimuli/complex_23_A_a.gif,NA
"[{""page_index"":0,""viewing_time"":7354}]",7354,instructions,56,897824,0.0-5.0-17.0,SS1630711860329,NA,NA,NA,NA,NA,NA,NA,NA,NA,NA,NA,NA,NA,NA,NA,NA,NA,NA,NA,NA,NA,NA
NA,null,html-keyboard-response,57,898942,0.0-5.0-18.0-0.0,SS1630711860329,NA,NA,"<p><img src= images/blank.png width =""600"" height = ""600"" style=""position:fixed;top:50%; left:50%; transform: translate(-50%, -50%); border:5px solid black"">",NA,NA,null,NA,NA,NA,NA,NA,NA,NA,NA,NA,NA,NA,NA,NA,NA,NA,NA
NA,8348,stimuli-presentation,58,908208,0.0-5.0-18.0-1.0,SS1630711860329,NA,NA,NA,NA,NA,32,500,8848,images/stimuli/complex_02_A_a.gif,images/stimuli/complex_10_A_a.gif,self_paced,170,complex,3,complex_dissimilar,trial,images/stimuli/complex_10_A_a.gif,NA,NA,NA,NA,NA
NA,null,html-keyboard-response,59,909372,0.0-5.0-18.0-0.1,SS1630711860329,NA,NA,"<p><img src= images/blank.png width =""600"" height = ""600"" style=""position:fixed;top:50%; left:50%; transform: translate(-50%, -50%); border:5px solid black"">",NA,NA,null,NA,NA,NA,NA,NA,NA,NA,NA,NA,NA,NA,NA,NA,NA,NA,NA
NA,13206,stimuli-presentation,60,923494,0.0-5.0-18.0-1.1,SS1630711860329,NA,NA,NA,NA,NA,32,500,13706,images/stimuli/complex_02_A_a.gif,images/stimuli/complex_10_A_a.gif,self_paced,170,complex,3,complex_dissimilar,trial,images/stimuli/complex_02_A_a.gif,NA,NA,NA,NA,NA
NA,null,html-keyboard-response,61,924776,0.0-5.0-18.0-0.2,SS1630711860329,NA,NA,"<p><img src= images/blank.png width =""600"" height = ""600"" style=""position:fixed;top:50%; left:50%; transform: translate(-50%, -50%); border:5px solid black"">",NA,NA,null,NA,NA,NA,NA,NA,NA,NA,NA,NA,NA,NA,NA,NA,NA,NA,NA
NA,9161,stimuli-presentation,62,934855,0.0-5.0-18.0-1.2,SS1630711860329,NA,NA,NA,NA,NA,32,500,9661,images/stimuli/complex_02_A_a.gif,images/stimuli/complex_10_A_a.gif,self_paced,170,complex,3,complex_dissimilar,trial,images/stimuli/complex_02_A_a.gif,NA,NA,NA,NA,NA
NA,null,html-keyboard-response,63,935766,0.0-5.0-18.0-0.3,SS1630711860329,NA,NA,"<p><img src= images/blank.png width =""600"" height = ""600"" style=""position:fixed;top:50%; left:50%; transform: translate(-50%, -50%); border:5px solid black"">",NA,NA,null,NA,NA,NA,NA,NA,NA,NA,NA,NA,NA,NA,NA,NA,NA,NA,NA
NA,8851,stimuli-presentation,64,945534,0.0-5.0-18.0-1.3,SS1630711860329,NA,NA,NA,NA,NA,32,500,9351,images/stimuli/complex_02_A_a.gif,images/stimuli/complex_10_A_a.gif,self_paced,170,complex,3,complex_dissimilar,trial,images/stimuli/complex_10_A_a.gif,NA,NA,NA,NA,NA
NA,null,html-keyboard-response,65,946654,0.0-5.0-18.0-0.4,SS1630711860329,NA,NA,"<p><img src= images/blank.png width =""600"" height = ""600"" style=""position:fixed;top:50%; left:50%; transform: translate(-50%, -50%); border:5px solid black"">",NA,NA,null,NA,NA,NA,NA,NA,NA,NA,NA,NA,NA,NA,NA,NA,NA,NA,NA
NA,6722,stimuli-presentation,66,954293,0.0-5.0-18.0-1.4,SS1630711860329,NA,NA,NA,NA,NA,32,500,7222,images/stimuli/complex_02_A_a.gif,images/stimuli/complex_10_A_a.gif,self_paced,170,complex,3,complex_dissimilar,trial,images/stimuli/complex_10_A_a.gif,NA,NA,NA,NA,NA
NA,20256,html-button-response,67,974549,0.0-5.0-19.0,SS1630711860329,NA,NA,NA,0,NA,NA,NA,NA,NA,NA,NA,NA,NA,NA,NA,memory_test,NA,3,NA,images/stimuli/complex_10_A_a.gif,images/stimuli/complex_03_A_b.gif,NA
"[{""page_index"":0,""viewing_time"":6758}]",6758,instructions,68,981309,0.0-5.0-20.0,SS1630711860329,NA,NA,NA,NA,NA,NA,NA,NA,NA,NA,NA,NA,NA,NA,NA,NA,NA,NA,NA,NA,NA,NA
NA,null,html-keyboard-response,69,982476,0.0-5.0-21.0-0.0,SS1630711860329,NA,NA,"<p><img src= images/blank.png width =""600"" height = ""600"" style=""position:fixed;top:50%; left:50%; transform: translate(-50%, -50%); border:5px solid black"">",NA,NA,null,NA,NA,NA,NA,NA,NA,NA,NA,NA,NA,NA,NA,NA,NA,NA,NA
NA,9125,stimuli-presentation,70,992517,0.0-5.0-21.0-1.0,SS1630711860329,NA,NA,NA,NA,NA,32,500,9625,images/stimuli/complex_15_A_b.gif,images/stimuli/complex_08_A_a.gif,self_paced,380,complex,4,complex_dissimilar,trial,images/stimuli/complex_08_A_a.gif,NA,NA,NA,NA,NA
NA,null,html-keyboard-response,71,993605,0.0-5.0-21.0-0.1,SS1630711860329,NA,NA,"<p><img src= images/blank.png width =""600"" height = ""600"" style=""position:fixed;top:50%; left:50%; transform: translate(-50%, -50%); border:5px solid black"">",NA,NA,null,NA,NA,NA,NA,NA,NA,NA,NA,NA,NA,NA,NA,NA,NA,NA,NA
NA,6464.999999999884,stimuli-presentation,72,1000988,0.0-5.0-21.0-1.1,SS1630711860329,NA,NA,NA,NA,NA,32,500,6964.999999999884,images/stimuli/complex_15_A_b.gif,images/stimuli/complex_08_A_a.gif,self_paced,380,complex,4,complex_dissimilar,trial,images/stimuli/complex_08_A_a.gif,NA,NA,NA,NA,NA
NA,null,html-keyboard-response,73,1002119,0.0-5.0-21.0-0.2,SS1630711860329,NA,NA,"<p><img src= images/blank.png width =""600"" height = ""600"" style=""position:fixed;top:50%; left:50%; transform: translate(-50%, -50%); border:5px solid black"">",NA,NA,null,NA,NA,NA,NA,NA,NA,NA,NA,NA,NA,NA,NA,NA,NA,NA,NA
NA,12877,stimuli-presentation,74,1015914,0.0-5.0-21.0-1.2,SS1630711860329,NA,NA,NA,NA,NA,32,500,13377,images/stimuli/complex_15_A_b.gif,images/stimuli/complex_08_A_a.gif,self_paced,380,complex,4,complex_dissimilar,trial,images/stimuli/complex_08_A_a.gif,NA,NA,NA,NA,NA
NA,null,html-keyboard-response,75,1017006,0.0-5.0-21.0-0.3,SS1630711860329,NA,NA,"<p><img src= images/blank.png width =""600"" height = ""600"" style=""position:fixed;top:50%; left:50%; transform: translate(-50%, -50%); border:5px solid black"">",NA,NA,null,NA,NA,NA,NA,NA,NA,NA,NA,NA,NA,NA,NA,NA,NA,NA,NA
NA,5950,stimuli-presentation,76,1023873,0.0-5.0-21.0-1.3,SS1630711860329,NA,NA,NA,NA,NA,32,500,6450,images/stimuli/complex_15_A_b.gif,images/stimuli/complex_08_A_a.gif,self_paced,380,complex,4,complex_dissimilar,trial,images/stimuli/complex_08_A_a.gif,NA,NA,NA,NA,NA
NA,null,html-keyboard-response,77,1024950,0.0-5.0-21.0-0.4,SS1630711860329,NA,NA,"<p><img src= images/blank.png width =""600"" height = ""600"" style=""position:fixed;top:50%; left:50%; transform: translate(-50%, -50%); border:5px solid black"">",NA,NA,null,NA,NA,NA,NA,NA,NA,NA,NA,NA,NA,NA,NA,NA,NA,NA,NA
NA,5034.999999999884,stimuli-presentation,78,1030905,0.0-5.0-21.0-1.4,SS1630711860329,NA,NA,NA,NA,NA,32,500,5534.999999999884,images/stimuli/complex_15_A_b.gif,images/stimuli/complex_08_A_a.gif,self_paced,380,complex,4,complex_dissimilar,trial,images/stimuli/complex_08_A_a.gif,NA,NA,NA,NA,NA
NA,26872,html-button-response,79,1057777,0.0-5.0-22.0,SS1630711860329,NA,NA,NA,0,NA,NA,NA,NA,NA,NA,NA,NA,NA,NA,NA,memory_test,NA,4,NA,images/stimuli/complex_08_A_a.gif,images/stimuli/complex_06_A_a.gif,NA
"[{""page_index"":0,""viewing_time"":5701}]",5702,instructions,80,1063483,0.0-5.0-23.0,SS1630711860329,NA,NA,NA,NA,NA,NA,NA,NA,NA,NA,NA,NA,NA,NA,NA,NA,NA,NA,NA,NA,NA,NA
NA,null,html-keyboard-response,81,1064623,0.0-5.0-24.0-0.0,SS1630711860329,NA,NA,"<p><img src= images/blank.png width =""600"" height = ""600"" style=""position:fixed;top:50%; left:50%; transform: translate(-50%, -50%); border:5px solid black"">",NA,NA,null,NA,NA,NA,NA,NA,NA,NA,NA,NA,NA,NA,NA,NA,NA,NA,NA
NA,4693,stimuli-presentation,82,1070234,0.0-5.0-24.0-1.0,SS1630711860329,NA,NA,NA,NA,NA,32,500,5193,images/stimuli/complex_20_A_b.gif,images/stimuli/complex_13_A_b.gif,self_paced,580,complex,5,complex_dissimilar,trial,images/stimuli/complex_13_A_b.gif,NA,NA,NA,NA,NA
NA,null,html-keyboard-response,83,1071142,0.0-5.0-24.0-0.1,SS1630711860329,NA,NA,"<p><img src= images/blank.png width =""600"" height = ""600"" style=""position:fixed;top:50%; left:50%; transform: translate(-50%, -50%); border:5px solid black"">",NA,NA,null,NA,NA,NA,NA,NA,NA,NA,NA,NA,NA,NA,NA,NA,NA,NA,NA
NA,8995,stimuli-presentation,84,1081055,0.0-5.0-24.0-1.1,SS1630711860329,NA,NA,NA,NA,NA,32,500,9495,images/stimuli/complex_20_A_b.gif,images/stimuli/complex_13_A_b.gif,self_paced,580,complex,5,complex_dissimilar,trial,images/stimuli/complex_13_A_b.gif,NA,NA,NA,NA,NA
NA,null,html-keyboard-response,85,1082129,0.0-5.0-24.0-0.2,SS1630711860329,NA,NA,"<p><img src= images/blank.png width =""600"" height = ""600"" style=""position:fixed;top:50%; left:50%; transform: translate(-50%, -50%); border:5px solid black"">",NA,NA,null,NA,NA,NA,NA,NA,NA,NA,NA,NA,NA,NA,NA,NA,NA,NA,NA
NA,6732.999999999767,stimuli-presentation,86,1089782,0.0-5.0-24.0-1.2,SS1630711860329,NA,NA,NA,NA,NA,32,500,7232.999999999767,images/stimuli/complex_20_A_b.gif,images/stimuli/complex_13_A_b.gif,self_paced,580,complex,5,complex_dissimilar,trial,images/stimuli/complex_13_A_b.gif,NA,NA,NA,NA,NA
NA,null,html-keyboard-response,87,1091051,0.0-5.0-24.0-0.3,SS1630711860329,NA,NA,"<p><img src= images/blank.png width =""600"" height = ""600"" style=""position:fixed;top:50%; left:50%; transform: translate(-50%, -50%); border:5px solid black"">",NA,NA,null,NA,NA,NA,NA,NA,NA,NA,NA,NA,NA,NA,NA,NA,NA,NA,NA
NA,12789,stimuli-presentation,88,1104757,0.0-5.0-24.0-1.3,SS1630711860329,NA,NA,NA,NA,NA,32,500,13289,images/stimuli/complex_20_A_b.gif,images/stimuli/complex_13_A_b.gif,self_paced,580,complex,5,complex_dissimilar,trial,images/stimuli/complex_13_A_b.gif,NA,NA,NA,NA,NA
NA,null,html-keyboard-response,89,1105625,0.0-5.0-24.0-0.4,SS1630711860329,NA,NA,"<p><img src= images/blank.png width =""600"" height = ""600"" style=""position:fixed;top:50%; left:50%; transform: translate(-50%, -50%); border:5px solid black"">",NA,NA,null,NA,NA,NA,NA,NA,NA,NA,NA,NA,NA,NA,NA,NA,NA,NA,NA
NA,4645,stimuli-presentation,90,1111189,0.0-5.0-24.0-1.4,SS1630711860329,NA,NA,NA,NA,NA,32,500,5145,images/stimuli/complex_20_A_b.gif,images/stimuli/complex_13_A_b.gif,self_paced,580,complex,5,complex_dissimilar,trial,images/stimuli/complex_13_A_b.gif,NA,NA,NA,NA,NA
NA,null,html-keyboard-response,91,1112089,0.0-5.0-24.0-0.5,SS1630711860329,NA,NA,"<p><img src= images/blank.png width =""600"" height = ""600"" style=""position:fixed;top:50%; left:50%; transform: translate(-50%, -50%); border:5px solid black"">",NA,NA,null,NA,NA,NA,NA,NA,NA,NA,NA,NA,NA,NA,NA,NA,NA,NA,NA
NA,7933,stimuli-presentation,92,1120940,0.0-5.0-24.0-1.5,SS1630711860329,NA,NA,NA,NA,NA,32,500,8433,images/stimuli/complex_20_A_b.gif,images/stimuli/complex_13_A_b.gif,self_paced,580,complex,5,complex_dissimilar,trial,images/stimuli/complex_13_A_b.gif,NA,NA,NA,NA,NA
NA,22070,html-button-response,93,1143011,0.0-5.0-25.0,SS1630711860329,NA,NA,NA,0,NA,NA,NA,NA,NA,NA,NA,NA,NA,NA,NA,memory_test,NA,5,NA,images/stimuli/complex_13_A_b.gif,images/stimuli/complex_01_A_a.gif,NA
"[{""page_index"":0,""viewing_time"":4453}]",4454,instructions,94,1147466,0.0-5.0-26.0,SS1630711860329,NA,NA,NA,NA,NA,NA,NA,NA,NA,NA,NA,NA,NA,NA,NA,NA,NA,NA,NA,NA,NA,NA
NA,null,html-keyboard-response,95,1148451,0.0-5.0-27.0-0.0,SS1630711860329,NA,NA,"<p><img src= images/blank.png width =""600"" height = ""600"" style=""position:fixed;top:50%; left:50%; transform: translate(-50%, -50%); border:5px solid black"">",NA,NA,null,NA,NA,NA,NA,NA,NA,NA,NA,NA,NA,NA,NA,NA,NA,NA,NA
NA,8744,stimuli-presentation,96,1158114,0.0-5.0-27.0-1.0,SS1630711860329,NA,NA,NA,NA,NA,32,500,9244,images/stimuli/complex_07_A_a.gif,images/stimuli/complex_04_A_b.gif,self_paced,460,complex,6,complex_dissimilar,trial,images/stimuli/complex_04_A_b.gif,NA,NA,NA,NA,NA
NA,null,html-keyboard-response,97,1159317,0.0-5.0-27.0-0.1,SS1630711860329,NA,NA,"<p><img src= images/blank.png width =""600"" height = ""600"" style=""position:fixed;top:50%; left:50%; transform: translate(-50%, -50%); border:5px solid black"">",NA,NA,null,NA,NA,NA,NA,NA,NA,NA,NA,NA,NA,NA,NA,NA,NA,NA,NA
NA,11428.999999999767,stimuli-presentation,98,1171665,0.0-5.0-27.0-1.1,SS1630711860329,NA,NA,NA,NA,NA,32,500,11928.999999999767,images/stimuli/complex_07_A_a.gif,images/stimuli/complex_04_A_b.gif,self_paced,460,complex,6,complex_dissimilar,trial,images/stimuli/complex_04_A_b.gif,NA,NA,NA,NA,NA
NA,null,html-keyboard-response,99,1172634,0.0-5.0-27.0-0.2,SS1630711860329,NA,NA,"<p><img src= images/blank.png width =""600"" height = ""600"" style=""position:fixed;top:50%; left:50%; transform: translate(-50%, -50%); border:5px solid black"">",NA,NA,null,NA,NA,NA,NA,NA,NA,NA,NA,NA,NA,NA,NA,NA,NA,NA,NA
NA,11713.000000000233,stimuli-presentation,100,1185265,0.0-5.0-27.0-1.2,SS1630711860329,NA,NA,NA,NA,NA,32,500,12213.000000000233,images/stimuli/complex_07_A_a.gif,images/stimuli/complex_04_A_b.gif,self_paced,460,complex,6,complex_dissimilar,trial,images/stimuli/complex_07_A_a.gif,NA,NA,NA,NA,NA
NA,null,html-keyboard-response,101,1186309,0.0-5.0-27.0-0.3,SS1630711860329,NA,NA,"<p><img src= images/blank.png width =""600"" height = ""600"" style=""position:fixed;top:50%; left:50%; transform: translate(-50%, -50%); border:5px solid black"">",NA,NA,null,NA,NA,NA,NA,NA,NA,NA,NA,NA,NA,NA,NA,NA,NA,NA,NA
NA,6642,stimuli-presentation,102,1193872,0.0-5.0-27.0-1.3,SS1630711860329,NA,NA,NA,NA,NA,32,500,7142,images/stimuli/complex_07_A_a.gif,images/stimuli/complex_04_A_b.gif,self_paced,460,complex,6,complex_dissimilar,trial,images/stimuli/complex_04_A_b.gif,NA,NA,NA,NA,NA
NA,null,html-keyboard-response,103,1194975,0.0-5.0-27.0-0.4,SS1630711860329,NA,NA,"<p><img src= images/blank.png width =""600"" height = ""600"" style=""position:fixed;top:50%; left:50%; transform: translate(-50%, -50%); border:5px solid black"">",NA,NA,null,NA,NA,NA,NA,NA,NA,NA,NA,NA,NA,NA,NA,NA,NA,NA,NA
NA,4985,stimuli-presentation,104,1200880,0.0-5.0-27.0-1.4,SS1630711860329,NA,NA,NA,NA,NA,32,500,5485,images/stimuli/complex_07_A_a.gif,images/stimuli/complex_04_A_b.gif,self_paced,460,complex,6,complex_dissimilar,trial,images/stimuli/complex_04_A_b.gif,NA,NA,NA,NA,NA
NA,16615.000000000233,html-button-response,105,1217497,0.0-5.0-28.0,SS1630711860329,NA,NA,NA,1,NA,NA,NA,NA,NA,NA,NA,NA,NA,NA,NA,memory_test,NA,6,NA,images/stimuli/complex_17_A_b.gif,images/stimuli/complex_04_A_b.gif,NA
"[{""page_index"":0,""viewing_time"":8497}]",8497,instructions,106,1225995,0.0-5.0-29.0,SS1630711860329,NA,NA,NA,NA,NA,NA,NA,NA,NA,NA,NA,NA,NA,NA,NA,NA,NA,NA,NA,NA,NA,NA
NA,null,html-keyboard-response,107,1227159,0.0-5.0-30.0-0.0,SS1630711860329,NA,NA,"<p><img src= images/blank.png width =""600"" height = ""600"" style=""position:fixed;top:50%; left:50%; transform: translate(-50%, -50%); border:5px solid black"">",NA,NA,null,NA,NA,NA,NA,NA,NA,NA,NA,NA,NA,NA,NA,NA,NA,NA,NA
NA,4751.000000000233,stimuli-presentation,108,1232829,0.0-5.0-30.0-1.0,SS1630711860329,NA,NA,NA,NA,NA,32,500,5251.000000000233,images/stimuli/complex_11_A_a.gif,images/stimuli/complex_19_A_a.gif,self_paced,580,complex,7,complex_dissimilar,trial,images/stimuli/complex_19_A_a.gif,NA,NA,NA,NA,NA
NA,null,html-keyboard-response,109,1233679,0.0-5.0-30.0-0.1,SS1630711860329,NA,NA,"<p><img src= images/blank.png width =""600"" height = ""600"" style=""position:fixed;top:50%; left:50%; transform: translate(-50%, -50%); border:5px solid black"">",NA,NA,null,NA,NA,NA,NA,NA,NA,NA,NA,NA,NA,NA,NA,NA,NA,NA,NA
NA,4392,stimuli-presentation,110,1238990,0.0-5.0-30.0-1.1,SS1630711860329,NA,NA,NA,NA,NA,32,500,4892,images/stimuli/complex_11_A_a.gif,images/stimuli/complex_19_A_a.gif,self_paced,580,complex,7,complex_dissimilar,trial,images/stimuli/complex_19_A_a.gif,NA,NA,NA,NA,NA
NA,null,html-keyboard-response,111,1239853,0.0-5.0-30.0-0.2,SS1630711860329,NA,NA,"<p><img src= images/blank.png width =""600"" height = ""600"" style=""position:fixed;top:50%; left:50%; transform: translate(-50%, -50%); border:5px solid black"">",NA,NA,null,NA,NA,NA,NA,NA,NA,NA,NA,NA,NA,NA,NA,NA,NA,NA,NA
NA,5217,stimuli-presentation,112,1245989,0.0-5.0-30.0-1.2,SS1630711860329,NA,NA,NA,NA,NA,32,500,5717,images/stimuli/complex_11_A_a.gif,images/stimuli/complex_19_A_a.gif,self_paced,580,complex,7,complex_dissimilar,trial,images/stimuli/complex_19_A_a.gif,NA,NA,NA,NA,NA
NA,null,html-keyboard-response,113,1247289,0.0-5.0-30.0-0.3,SS1630711860329,NA,NA,"<p><img src= images/blank.png width =""600"" height = ""600"" style=""position:fixed;top:50%; left:50%; transform: translate(-50%, -50%); border:5px solid black"">",NA,NA,null,NA,NA,NA,NA,NA,NA,NA,NA,NA,NA,NA,NA,NA,NA,NA,NA
NA,4581,stimuli-presentation,114,1252789,0.0-5.0-30.0-1.3,SS1630711860329,NA,NA,NA,NA,NA,32,500,5081,images/stimuli/complex_11_A_a.gif,images/stimuli/complex_19_A_a.gif,self_paced,580,complex,7,complex_dissimilar,trial,images/stimuli/complex_19_A_a.gif,NA,NA,NA,NA,NA
NA,null,html-keyboard-response,115,1253607,0.0-5.0-30.0-0.4,SS1630711860329,NA,NA,"<p><img src= images/blank.png width =""600"" height = ""600"" style=""position:fixed;top:50%; left:50%; transform: translate(-50%, -50%); border:5px solid black"">",NA,NA,null,NA,NA,NA,NA,NA,NA,NA,NA,NA,NA,NA,NA,NA,NA,NA,NA
NA,7671,stimuli-presentation,116,1262195,0.0-5.0-30.0-1.4,SS1630711860329,NA,NA,NA,NA,NA,32,500,8171,images/stimuli/complex_11_A_a.gif,images/stimuli/complex_19_A_a.gif,self_paced,580,complex,7,complex_dissimilar,trial,images/stimuli/complex_19_A_a.gif,NA,NA,NA,NA,NA
NA,14823,html-button-response,117,1277020,0.0-5.0-31.0,SS1630711860329,NA,NA,NA,1,NA,NA,NA,NA,NA,NA,NA,NA,NA,NA,NA,memory_test,NA,7,NA,images/stimuli/complex_24_A_a.gif,images/stimuli/complex_19_A_a.gif,NA
"[{""page_index"":0,""viewing_time"":9966}]",9967,instructions,118,1286988,0.0-5.0-32.0,SS1630711860329,NA,NA,NA,NA,NA,NA,NA,NA,NA,NA,NA,NA,NA,NA,NA,NA,NA,NA,NA,NA,NA,NA
NA,NA,fullscreen,119,1287991,0.0-7.0,SS1630711860329,TRUE,NA,NA,NA,NA,NA,NA,NA,NA,NA,NA,NA,NA,NA,NA,NA,NA,NA,NA,NA,NA,NA
"[{""page_index"":0,""viewing_time"":8148}]",8148,instructions,120,1296141,0.0-8.0,SS1630711860329,NA,NA,NA,NA,NA,NA,NA,NA,NA,NA,NA,NA,NA,NA,NA,NA,NA,NA,NA,NA,NA,NA
NA,7494,demog-gender-and-education,121,1303637,0.0-9.0,SS1630711860329,NA,"{""education"":""Master's Degree""}",NA,NA,NA,NA,NA,NA,NA,NA,NA,NA,NA,NA,NA,NA,NA,NA,NA,NA,NA,[0]
"[{""page_index"":0,""viewing_time"":4194},{""page_index"":1,""viewing_time"":4064},{""page_index"":2,""viewing_time"":16660.000000000233},{""page_index"":3,""viewing_time"":20083.999999999767},{""page_index"":4,""viewing_time"":11520},{""page_index"":5,""viewing_time"":9830}]",66352,instructions,122,1369989,0.0-10.0,SS1630711860329,NA,NA,NA,NA,NA,NA,NA,NA,NA,NA,NA,NA,NA,NA,NA,NA,NA,NA,NA,NA,NA,NA
