view_history,rt,trial_type,trial_index,time_elapsed,internal_node_id,subject,stimulus_type,trial_stimulus,key_press,minimum_viewing_duration,trial_looking_time,block_deviant,block_background,exposure_type,stimulus,block_number,block_type,stimulus_displayed,responses,question_order,math_correct_answer,stimulus_left,stimulus_right
"[{""page_index"":0,""viewing_time"":2852.4150000303052}]",2853.0449999962,instructions,0,2856,0.0-0.0,SS1618006284382,NA,NA,NA,NA,NA,NA,NA,NA,NA,NA,NA,NA,NA,NA,NA,NA,NA
"[{""page_index"":0,""viewing_time"":8375.895000004675},{""page_index"":1,""viewing_time"":3594.7199999936856}]",11971.004999999423,instructions,1,16835,0.0-1.0,SS1618006284382,instructions,NA,NA,NA,NA,NA,NA,NA,NA,NA,NA,NA,NA,NA,NA,NA,NA
NA,4575.920000032056,sequential-stimulus-presentation-old,2,21920,0.0-2.0,SS1618006284382,NA,NA,40,500,5075.920000032056,null,null,self_paced,NA,NA,NA,NA,NA,NA,NA,NA,NA
NA,400.7850000052713,sequential-stimulus-presentation-old,3,22824,0.0-3.0,SS1618006284382,NA,NA,40,500,900.7850000052713,null,null,self_paced,NA,NA,NA,NA,NA,NA,NA,NA,NA
"[{""page_index"":0,""viewing_time"":17968.77500001574}]",17969.15500005707,instructions,4,40795,0.0-4.0,SS1618006284382,instructions,NA,NA,NA,NA,NA,NA,NA,NA,NA,NA,NA,NA,NA,NA,NA,NA
NA,1591.8499999679625,sequential-stimulus-presentation-old,5,47395,0.0-5.0,SS1618006284382,NA,NA,40,500,2091.8499999679625,null,null,forced_long,NA,NA,NA,NA,NA,NA,NA,NA,NA
NA,7440.8800000092015,sequential-stimulus-presentation-old,6,54889,0.0-6.0,SS1618006284382,NA,NA,40,50,7490.8800000092015,null,null,forced_long,NA,NA,NA,NA,NA,NA,NA,NA,NA
"[{""page_index"":0,""viewing_time"":2367.614999995567}]",2367.9799999808893,instructions,7,57258,0.0-7.0,SS1618006284382,instructions,NA,NA,NA,NA,NA,NA,NA,NA,NA,NA,NA,NA,NA,NA,NA,NA
"[{""page_index"":0,""viewing_time"":6799.385000020266},{""page_index"":1,""viewing_time"":3962.645000021439},{""page_index"":2,""viewing_time"":5922.870000009425},{""page_index"":3,""viewing_time"":1156.429999973625},{""page_index"":4,""viewing_time"":1100.4650000249967}]",18942.195000010543,instructions,8,76202,0.0-8.0,SS1618006284382,instructions,NA,NA,NA,NA,NA,NA,NA,NA,NA,NA,NA,NA,NA,NA,NA,NA
NA,null,html-keyboard-response,9,77067,0.0-9.0-0.0,SS1618006284382,NA,NA,null,NA,NA,NA,NA,NA,"<p><img src= images/blank.png width =""600"" height = ""600"" style=""position:fixed;top:50%; left:50%; transform: translate(-50%, -50%); border:5px solid black"">",NA,NA,NA,NA,NA,NA,NA,NA
NA,3763.5100000188686,sequential-stimulus-presentation-old,10,80886,0.0-9.0-1.0,SS1618006284382,trial,NA,40,500,4263.510000018869,images/stimuli/spore_stims/complex_05_A_b.gif,images/stimuli/spore_stims/complex_02_A_a.gif,forced_short,NA,0,complex_dissimilar,images/stimuli/spore_stims/complex_02_A_a.gif,NA,NA,NA,NA,NA
NA,null,html-keyboard-response,11,82028,0.0-9.0-0.1,SS1618006284382,NA,NA,null,NA,NA,NA,NA,NA,"<p><img src= images/blank.png width =""600"" height = ""600"" style=""position:fixed;top:50%; left:50%; transform: translate(-50%, -50%); border:5px solid black"">",NA,NA,NA,NA,NA,NA,NA,NA
NA,12887.2599999886,sequential-stimulus-presentation-old,12,95423,0.0-9.0-1.1,SS1618006284382,trial,NA,40,500,13387.2599999886,images/stimuli/spore_stims/complex_05_A_b.gif,images/stimuli/spore_stims/complex_02_A_a.gif,forced_short,NA,0,complex_dissimilar,images/stimuli/spore_stims/complex_02_A_a.gif,NA,NA,NA,NA,NA
NA,null,html-keyboard-response,13,96492,0.0-9.0-0.2,SS1618006284382,NA,NA,null,NA,NA,NA,NA,NA,"<p><img src= images/blank.png width =""600"" height = ""600"" style=""position:fixed;top:50%; left:50%; transform: translate(-50%, -50%); border:5px solid black"">",NA,NA,NA,NA,NA,NA,NA,NA
NA,8576.939999999013,sequential-stimulus-presentation-old,14,105576,0.0-9.0-1.2,SS1618006284382,trial,NA,40,500,9076.939999999013,images/stimuli/spore_stims/complex_05_A_b.gif,images/stimuli/spore_stims/complex_02_A_a.gif,forced_short,NA,0,complex_dissimilar,images/stimuli/spore_stims/complex_05_A_b.gif,NA,NA,NA,NA,NA
NA,null,html-keyboard-response,15,106653,0.0-9.0-0.3,SS1618006284382,NA,NA,null,NA,NA,NA,NA,NA,"<p><img src= images/blank.png width =""600"" height = ""600"" style=""position:fixed;top:50%; left:50%; transform: translate(-50%, -50%); border:5px solid black"">",NA,NA,NA,NA,NA,NA,NA,NA
NA,4446.714999969117,sequential-stimulus-presentation-old,16,111605,0.0-9.0-1.3,SS1618006284382,trial,NA,40,500,4946.714999969117,images/stimuli/spore_stims/complex_05_A_b.gif,images/stimuli/spore_stims/complex_02_A_a.gif,forced_short,NA,0,complex_dissimilar,images/stimuli/spore_stims/complex_02_A_a.gif,NA,NA,NA,NA,NA
NA,3107.38499998115,survey-multi-choice,17,114716,0.0-10.0,SS1618006284382,math_question,NA,NA,NA,NA,NA,NA,NA,NA,NA,NA,NA,"{""Q0"":""9""}",[0],9,NA,NA
NA,null,html-keyboard-response,18,115756,0.0-11.0-0.0,SS1618006284382,NA,NA,null,NA,NA,NA,NA,NA,"<p><img src= images/blank.png width =""600"" height = ""600"" style=""position:fixed;top:50%; left:50%; transform: translate(-50%, -50%); border:5px solid black"">",NA,NA,NA,NA,NA,NA,NA,NA
NA,2526.254999975208,sequential-stimulus-presentation-old,19,123292,0.0-11.0-1.0,SS1618006284382,trial,NA,40,500,3026.254999975208,images/stimuli/spore_stims/simple_12_A_a.gif,images/stimuli/spore_stims/simple_04_A_b.gif,forced_long,NA,1,simple_dissimilar,images/stimuli/spore_stims/simple_04_A_b.gif,NA,NA,NA,NA,NA
NA,null,html-keyboard-response,20,124295,0.0-11.0-0.1,SS1618006284382,NA,NA,null,NA,NA,NA,NA,NA,"<p><img src= images/blank.png width =""600"" height = ""600"" style=""position:fixed;top:50%; left:50%; transform: translate(-50%, -50%); border:5px solid black"">",NA,NA,NA,NA,NA,NA,NA,NA
NA,7014.129999966826,sequential-stimulus-presentation-old,21,131814,0.0-11.0-1.1,SS1618006284382,trial,NA,40,500,7514.129999966826,images/stimuli/spore_stims/simple_12_A_a.gif,images/stimuli/spore_stims/simple_04_A_b.gif,forced_long,NA,1,simple_dissimilar,images/stimuli/spore_stims/simple_04_A_b.gif,NA,NA,NA,NA,NA
NA,null,html-keyboard-response,22,132886,0.0-11.0-0.2,SS1618006284382,NA,NA,null,NA,NA,NA,NA,NA,"<p><img src= images/blank.png width =""600"" height = ""600"" style=""position:fixed;top:50%; left:50%; transform: translate(-50%, -50%); border:5px solid black"">",NA,NA,NA,NA,NA,NA,NA,NA
NA,9288.024999957997,sequential-stimulus-presentation-old,23,142680,0.0-11.0-1.2,SS1618006284382,trial,NA,40,500,9788.024999957997,images/stimuli/spore_stims/simple_12_A_a.gif,images/stimuli/spore_stims/simple_04_A_b.gif,forced_long,NA,1,simple_dissimilar,images/stimuli/spore_stims/simple_04_A_b.gif,NA,NA,NA,NA,NA
NA,null,html-keyboard-response,24,143647,0.0-11.0-0.3,SS1618006284382,NA,NA,null,NA,NA,NA,NA,NA,"<p><img src= images/blank.png width =""600"" height = ""600"" style=""position:fixed;top:50%; left:50%; transform: translate(-50%, -50%); border:5px solid black"">",NA,NA,NA,NA,NA,NA,NA,NA
NA,4897.775000019465,sequential-stimulus-presentation-old,25,149051,0.0-11.0-1.3,SS1618006284382,trial,NA,40,500,5397.775000019465,images/stimuli/spore_stims/simple_12_A_a.gif,images/stimuli/spore_stims/simple_04_A_b.gif,forced_long,NA,1,simple_dissimilar,images/stimuli/spore_stims/simple_04_A_b.gif,NA,NA,NA,NA,NA
NA,null,html-keyboard-response,26,149860,0.0-11.0-0.4,SS1618006284382,NA,NA,null,NA,NA,NA,NA,NA,"<p><img src= images/blank.png width =""600"" height = ""600"" style=""position:fixed;top:50%; left:50%; transform: translate(-50%, -50%); border:5px solid black"">",NA,NA,NA,NA,NA,NA,NA,NA
NA,1085.930000001099,sequential-stimulus-presentation-old,27,151451,0.0-11.0-1.4,SS1618006284382,trial,NA,40,500,1585.930000001099,images/stimuli/spore_stims/simple_12_A_a.gif,images/stimuli/spore_stims/simple_04_A_b.gif,forced_long,NA,1,simple_dissimilar,images/stimuli/spore_stims/simple_04_A_b.gif,NA,NA,NA,NA,NA
NA,null,html-keyboard-response,28,152395,0.0-11.0-0.5,SS1618006284382,NA,NA,null,NA,NA,NA,NA,NA,"<p><img src= images/blank.png width =""600"" height = ""600"" style=""position:fixed;top:50%; left:50%; transform: translate(-50%, -50%); border:5px solid black"">",NA,NA,NA,NA,NA,NA,NA,NA
NA,752.039999992121,sequential-stimulus-presentation-old,29,153654,0.0-11.0-1.5,SS1618006284382,trial,NA,40,500,1252.039999992121,images/stimuli/spore_stims/simple_12_A_a.gif,images/stimuli/spore_stims/simple_04_A_b.gif,forced_long,NA,1,simple_dissimilar,images/stimuli/spore_stims/simple_04_A_b.gif,NA,NA,NA,NA,NA
NA,3818.1800000020303,survey-multi-choice,30,157474,0.0-12.0,SS1618006284382,math_question,NA,NA,NA,NA,NA,NA,NA,NA,NA,NA,NA,"{""Q0"":""12""}",[0],12,NA,NA
NA,null,html-keyboard-response,31,158773,0.0-13.0-0.0,SS1618006284382,NA,NA,null,NA,NA,NA,NA,NA,"<p><img src= images/blank.png width =""600"" height = ""600"" style=""position:fixed;top:50%; left:50%; transform: translate(-50%, -50%); border:5px solid black"">",NA,NA,NA,NA,NA,NA,NA,NA
NA,8412.90499997558,sequential-stimulus-presentation-old,32,167693,0.0-13.0-1.0,SS1618006284382,trial,NA,40,500,8912.90499997558,images/stimuli/spore_stims/complex_12_A_a.gif,images/stimuli/spore_stims/complex_16_A_b.gif,self_paced,NA,2,complex_dissimilar,images/stimuli/spore_stims/complex_16_A_b.gif,NA,NA,NA,NA,NA
NA,null,html-keyboard-response,33,168816,0.0-13.0-0.1,SS1618006284382,NA,NA,null,NA,NA,NA,NA,NA,"<p><img src= images/blank.png width =""600"" height = ""600"" style=""position:fixed;top:50%; left:50%; transform: translate(-50%, -50%); border:5px solid black"">",NA,NA,NA,NA,NA,NA,NA,NA
NA,9499.905000033323,sequential-stimulus-presentation-old,34,178826,0.0-13.0-1.1,SS1618006284382,trial,NA,40,500,9999.905000033323,images/stimuli/spore_stims/complex_12_A_a.gif,images/stimuli/spore_stims/complex_16_A_b.gif,self_paced,NA,2,complex_dissimilar,images/stimuli/spore_stims/complex_16_A_b.gif,NA,NA,NA,NA,NA
NA,null,html-keyboard-response,35,180110,0.0-13.0-0.2,SS1618006284382,NA,NA,null,NA,NA,NA,NA,NA,"<p><img src= images/blank.png width =""600"" height = ""600"" style=""position:fixed;top:50%; left:50%; transform: translate(-50%, -50%); border:5px solid black"">",NA,NA,NA,NA,NA,NA,NA,NA
NA,2571.750000002794,sequential-stimulus-presentation-old,36,183187,0.0-13.0-1.2,SS1618006284382,trial,NA,40,500,3071.750000002794,images/stimuli/spore_stims/complex_12_A_a.gif,images/stimuli/spore_stims/complex_16_A_b.gif,self_paced,NA,2,complex_dissimilar,images/stimuli/spore_stims/complex_16_A_b.gif,NA,NA,NA,NA,NA
NA,null,html-keyboard-response,37,184202,0.0-13.0-0.3,SS1618006284382,NA,NA,null,NA,NA,NA,NA,NA,"<p><img src= images/blank.png width =""600"" height = ""600"" style=""position:fixed;top:50%; left:50%; transform: translate(-50%, -50%); border:5px solid black"">",NA,NA,NA,NA,NA,NA,NA,NA
NA,10406.400000036228,sequential-stimulus-presentation-old,38,195117,0.0-13.0-1.3,SS1618006284382,trial,NA,40,500,10906.400000036228,images/stimuli/spore_stims/complex_12_A_a.gif,images/stimuli/spore_stims/complex_16_A_b.gif,self_paced,NA,2,complex_dissimilar,images/stimuli/spore_stims/complex_16_A_b.gif,NA,NA,NA,NA,NA
NA,null,html-keyboard-response,39,196338,0.0-13.0-0.4,SS1618006284382,NA,NA,null,NA,NA,NA,NA,NA,"<p><img src= images/blank.png width =""600"" height = ""600"" style=""position:fixed;top:50%; left:50%; transform: translate(-50%, -50%); border:5px solid black"">",NA,NA,NA,NA,NA,NA,NA,NA
NA,6396.169999963604,sequential-stimulus-presentation-old,40,203240,0.0-13.0-1.4,SS1618006284382,trial,NA,40,500,6896.169999963604,images/stimuli/spore_stims/complex_12_A_a.gif,images/stimuli/spore_stims/complex_16_A_b.gif,self_paced,NA,2,complex_dissimilar,images/stimuli/spore_stims/complex_12_A_a.gif,NA,NA,NA,NA,NA
NA,4356.720000039786,survey-multi-choice,41,207599,0.0-14.0,SS1618006284382,math_question,NA,NA,NA,NA,NA,NA,NA,NA,NA,NA,NA,"{""Q0"":""17""}",[0],17,NA,NA
NA,null,html-keyboard-response,42,208424,0.0-15.0-0.0,SS1618006284382,NA,NA,null,NA,NA,NA,NA,NA,"<p><img src= images/blank.png width =""600"" height = ""600"" style=""position:fixed;top:50%; left:50%; transform: translate(-50%, -50%); border:5px solid black"">",NA,NA,NA,NA,NA,NA,NA,NA
NA,3075.620000017807,sequential-stimulus-presentation-old,43,216510,0.0-15.0-1.0,SS1618006284382,trial,NA,40,500,3575.620000017807,images/stimuli/spore_stims/simple_03_A_a.gif,images/stimuli/spore_stims/simple_10_A_b.gif,forced_long,NA,3,simple_dissimilar,images/stimuli/spore_stims/simple_10_A_b.gif,NA,NA,NA,NA,NA
NA,null,html-keyboard-response,44,217470,0.0-15.0-0.1,SS1618006284382,NA,NA,null,NA,NA,NA,NA,NA,"<p><img src= images/blank.png width =""600"" height = ""600"" style=""position:fixed;top:50%; left:50%; transform: translate(-50%, -50%); border:5px solid black"">",NA,NA,NA,NA,NA,NA,NA,NA
NA,6490.894999995362,sequential-stimulus-presentation-old,45,224468,0.0-15.0-1.1,SS1618006284382,trial,NA,40,500,6990.894999995362,images/stimuli/spore_stims/simple_03_A_a.gif,images/stimuli/spore_stims/simple_10_A_b.gif,forced_long,NA,3,simple_dissimilar,images/stimuli/spore_stims/simple_10_A_b.gif,NA,NA,NA,NA,NA
NA,null,html-keyboard-response,46,225759,0.0-15.0-0.2,SS1618006284382,NA,NA,null,NA,NA,NA,NA,NA,"<p><img src= images/blank.png width =""600"" height = ""600"" style=""position:fixed;top:50%; left:50%; transform: translate(-50%, -50%); border:5px solid black"">",NA,NA,NA,NA,NA,NA,NA,NA
NA,3179.5149999670684,sequential-stimulus-presentation-old,47,229446,0.0-15.0-1.2,SS1618006284382,trial,NA,40,500,3679.5149999670684,images/stimuli/spore_stims/simple_03_A_a.gif,images/stimuli/spore_stims/simple_10_A_b.gif,forced_long,NA,3,simple_dissimilar,images/stimuli/spore_stims/simple_10_A_b.gif,NA,NA,NA,NA,NA
NA,null,html-keyboard-response,48,230431,0.0-15.0-0.3,SS1618006284382,NA,NA,null,NA,NA,NA,NA,NA,"<p><img src= images/blank.png width =""600"" height = ""600"" style=""position:fixed;top:50%; left:50%; transform: translate(-50%, -50%); border:5px solid black"">",NA,NA,NA,NA,NA,NA,NA,NA
NA,10977.360000018962,sequential-stimulus-presentation-old,49,241914,0.0-15.0-1.3,SS1618006284382,trial,NA,40,500,11477.360000018962,images/stimuli/spore_stims/simple_03_A_a.gif,images/stimuli/spore_stims/simple_10_A_b.gif,forced_long,NA,3,simple_dissimilar,images/stimuli/spore_stims/simple_03_A_a.gif,NA,NA,NA,NA,NA
NA,null,html-keyboard-response,50,242794,0.0-15.0-0.4,SS1618006284382,NA,NA,null,NA,NA,NA,NA,NA,"<p><img src= images/blank.png width =""600"" height = ""600"" style=""position:fixed;top:50%; left:50%; transform: translate(-50%, -50%); border:5px solid black"">",NA,NA,NA,NA,NA,NA,NA,NA
NA,1383.960000006482,sequential-stimulus-presentation-old,51,244687,0.0-15.0-1.4,SS1618006284382,trial,NA,40,500,1883.960000006482,images/stimuli/spore_stims/simple_03_A_a.gif,images/stimuli/spore_stims/simple_10_A_b.gif,forced_long,NA,3,simple_dissimilar,images/stimuli/spore_stims/simple_03_A_a.gif,NA,NA,NA,NA,NA
NA,null,html-keyboard-response,52,245727,0.0-15.0-0.5,SS1618006284382,NA,NA,null,NA,NA,NA,NA,NA,"<p><img src= images/blank.png width =""600"" height = ""600"" style=""position:fixed;top:50%; left:50%; transform: translate(-50%, -50%); border:5px solid black"">",NA,NA,NA,NA,NA,NA,NA,NA
NA,4099.8400000389665,sequential-stimulus-presentation-old,53,250334,0.0-15.0-1.5,SS1618006284382,trial,NA,40,500,4599.8400000389665,images/stimuli/spore_stims/simple_03_A_a.gif,images/stimuli/spore_stims/simple_10_A_b.gif,forced_long,NA,3,simple_dissimilar,images/stimuli/spore_stims/simple_10_A_b.gif,NA,NA,NA,NA,NA
NA,2819.084999966435,survey-multi-choice,54,253156,0.0-16.0,SS1618006284382,math_question,NA,NA,NA,NA,NA,NA,NA,NA,NA,NA,NA,"{""Q0"":""17""}",[0],17,NA,NA
NA,null,html-keyboard-response,55,254436,0.0-17.0-0.0,SS1618006284382,NA,NA,null,NA,NA,NA,NA,NA,"<p><img src= images/blank.png width =""600"" height = ""600"" style=""position:fixed;top:50%; left:50%; transform: translate(-50%, -50%); border:5px solid black"">",NA,NA,NA,NA,NA,NA,NA,NA
NA,1157.7500000130385,sequential-stimulus-presentation-old,56,255654,0.0-17.0-1.0,SS1618006284382,trial,NA,40,500,1657.7500000130385,images/stimuli/spore_stims/simple_15_A_a.gif,images/stimuli/spore_stims/simple_01_A_b.gif,forced_short,NA,4,simple_dissimilar,images/stimuli/spore_stims/simple_01_A_b.gif,NA,NA,NA,NA,NA
NA,null,html-keyboard-response,57,256744,0.0-17.0-0.1,SS1618006284382,NA,NA,null,NA,NA,NA,NA,NA,"<p><img src= images/blank.png width =""600"" height = ""600"" style=""position:fixed;top:50%; left:50%; transform: translate(-50%, -50%); border:5px solid black"">",NA,NA,NA,NA,NA,NA,NA,NA
NA,3280.5550000048243,sequential-stimulus-presentation-old,58,260533,0.0-17.0-1.1,SS1618006284382,trial,NA,40,500,3780.5550000048243,images/stimuli/spore_stims/simple_15_A_a.gif,images/stimuli/spore_stims/simple_01_A_b.gif,forced_short,NA,4,simple_dissimilar,images/stimuli/spore_stims/simple_01_A_b.gif,NA,NA,NA,NA,NA
NA,null,html-keyboard-response,59,261753,0.0-17.0-0.2,SS1618006284382,NA,NA,null,NA,NA,NA,NA,NA,"<p><img src= images/blank.png width =""600"" height = ""600"" style=""position:fixed;top:50%; left:50%; transform: translate(-50%, -50%); border:5px solid black"">",NA,NA,NA,NA,NA,NA,NA,NA
NA,2431.609999970533,sequential-stimulus-presentation-old,60,264695,0.0-17.0-1.2,SS1618006284382,trial,NA,40,500,2931.609999970533,images/stimuli/spore_stims/simple_15_A_a.gif,images/stimuli/spore_stims/simple_01_A_b.gif,forced_short,NA,4,simple_dissimilar,images/stimuli/spore_stims/simple_01_A_b.gif,NA,NA,NA,NA,NA
NA,null,html-keyboard-response,61,265934,0.0-17.0-0.3,SS1618006284382,NA,NA,null,NA,NA,NA,NA,NA,"<p><img src= images/blank.png width =""600"" height = ""600"" style=""position:fixed;top:50%; left:50%; transform: translate(-50%, -50%); border:5px solid black"">",NA,NA,NA,NA,NA,NA,NA,NA
NA,1610.9949999954551,sequential-stimulus-presentation-old,62,268053,0.0-17.0-1.3,SS1618006284382,trial,NA,40,500,2110.994999995455,images/stimuli/spore_stims/simple_15_A_a.gif,images/stimuli/spore_stims/simple_01_A_b.gif,forced_short,NA,4,simple_dissimilar,images/stimuli/spore_stims/simple_01_A_b.gif,NA,NA,NA,NA,NA
NA,null,html-keyboard-response,63,269102,0.0-17.0-0.4,SS1618006284382,NA,NA,null,NA,NA,NA,NA,NA,"<p><img src= images/blank.png width =""600"" height = ""600"" style=""position:fixed;top:50%; left:50%; transform: translate(-50%, -50%); border:5px solid black"">",NA,NA,NA,NA,NA,NA,NA,NA
NA,1724.7650000499561,sequential-stimulus-presentation-old,64,271332,0.0-17.0-1.4,SS1618006284382,trial,NA,40,500,2224.765000049956,images/stimuli/spore_stims/simple_15_A_a.gif,images/stimuli/spore_stims/simple_01_A_b.gif,forced_short,NA,4,simple_dissimilar,images/stimuli/spore_stims/simple_01_A_b.gif,NA,NA,NA,NA,NA
NA,null,html-keyboard-response,65,272549,0.0-17.0-0.5,SS1618006284382,NA,NA,null,NA,NA,NA,NA,NA,"<p><img src= images/blank.png width =""600"" height = ""600"" style=""position:fixed;top:50%; left:50%; transform: translate(-50%, -50%); border:5px solid black"">",NA,NA,NA,NA,NA,NA,NA,NA
NA,4160.054999985732,sequential-stimulus-presentation-old,66,277215,0.0-17.0-1.5,SS1618006284382,trial,NA,40,500,4660.054999985732,images/stimuli/spore_stims/simple_15_A_a.gif,images/stimuli/spore_stims/simple_01_A_b.gif,forced_short,NA,4,simple_dissimilar,images/stimuli/spore_stims/simple_01_A_b.gif,NA,NA,NA,NA,NA
NA,3438.9550000196323,survey-multi-choice,67,280657,0.0-18.0,SS1618006284382,math_question,NA,NA,NA,NA,NA,NA,NA,NA,NA,NA,NA,"{""Q0"":""5""}",[0],5,NA,NA
NA,null,html-keyboard-response,68,281778,0.0-19.0-0.0,SS1618006284382,NA,NA,null,NA,NA,NA,NA,NA,"<p><img src= images/blank.png width =""600"" height = ""600"" style=""position:fixed;top:50%; left:50%; transform: translate(-50%, -50%); border:5px solid black"">",NA,NA,NA,NA,NA,NA,NA,NA
NA,6103.895000007469,sequential-stimulus-presentation-old,69,288394,0.0-19.0-1.0,SS1618006284382,trial,NA,40,500,6603.895000007469,images/stimuli/spore_stims/simple_07_A_b.gif,images/stimuli/spore_stims/simple_20_A_a.gif,self_paced,NA,5,simple_dissimilar,images/stimuli/spore_stims/simple_20_A_a.gif,NA,NA,NA,NA,NA
NA,null,html-keyboard-response,70,289559,0.0-19.0-0.1,SS1618006284382,NA,NA,null,NA,NA,NA,NA,NA,"<p><img src= images/blank.png width =""600"" height = ""600"" style=""position:fixed;top:50%; left:50%; transform: translate(-50%, -50%); border:5px solid black"">",NA,NA,NA,NA,NA,NA,NA,NA
NA,5797.69999999553,sequential-stimulus-presentation-old,71,295864,0.0-19.0-1.1,SS1618006284382,trial,NA,40,500,6297.69999999553,images/stimuli/spore_stims/simple_07_A_b.gif,images/stimuli/spore_stims/simple_20_A_a.gif,self_paced,NA,5,simple_dissimilar,images/stimuli/spore_stims/simple_20_A_a.gif,NA,NA,NA,NA,NA
NA,null,html-keyboard-response,72,297087,0.0-19.0-0.2,SS1618006284382,NA,NA,null,NA,NA,NA,NA,NA,"<p><img src= images/blank.png width =""600"" height = ""600"" style=""position:fixed;top:50%; left:50%; transform: translate(-50%, -50%); border:5px solid black"">",NA,NA,NA,NA,NA,NA,NA,NA
NA,5070.924999949057,sequential-stimulus-presentation-old,73,302665,0.0-19.0-1.2,SS1618006284382,trial,NA,40,500,5570.924999949057,images/stimuli/spore_stims/simple_07_A_b.gif,images/stimuli/spore_stims/simple_20_A_a.gif,self_paced,NA,5,simple_dissimilar,images/stimuli/spore_stims/simple_20_A_a.gif,NA,NA,NA,NA,NA
NA,null,html-keyboard-response,74,303887,0.0-19.0-0.3,SS1618006284382,NA,NA,null,NA,NA,NA,NA,NA,"<p><img src= images/blank.png width =""600"" height = ""600"" style=""position:fixed;top:50%; left:50%; transform: translate(-50%, -50%); border:5px solid black"">",NA,NA,NA,NA,NA,NA,NA,NA
NA,2022.6799999945797,sequential-stimulus-presentation-old,75,306417,0.0-19.0-1.3,SS1618006284382,trial,NA,40,500,2522.6799999945797,images/stimuli/spore_stims/simple_07_A_b.gif,images/stimuli/spore_stims/simple_20_A_a.gif,self_paced,NA,5,simple_dissimilar,images/stimuli/spore_stims/simple_07_A_b.gif,NA,NA,NA,NA,NA
NA,null,html-keyboard-response,76,307271,0.0-19.0-0.4,SS1618006284382,NA,NA,null,NA,NA,NA,NA,NA,"<p><img src= images/blank.png width =""600"" height = ""600"" style=""position:fixed;top:50%; left:50%; transform: translate(-50%, -50%); border:5px solid black"">",NA,NA,NA,NA,NA,NA,NA,NA
NA,2422.0949999871664,sequential-stimulus-presentation-old,77,310203,0.0-19.0-1.4,SS1618006284382,trial,NA,40,500,2922.0949999871664,images/stimuli/spore_stims/simple_07_A_b.gif,images/stimuli/spore_stims/simple_20_A_a.gif,self_paced,NA,5,simple_dissimilar,images/stimuli/spore_stims/simple_20_A_a.gif,NA,NA,NA,NA,NA
NA,null,html-keyboard-response,78,311507,0.0-19.0-0.5,SS1618006284382,NA,NA,null,NA,NA,NA,NA,NA,"<p><img src= images/blank.png width =""600"" height = ""600"" style=""position:fixed;top:50%; left:50%; transform: translate(-50%, -50%); border:5px solid black"">",NA,NA,NA,NA,NA,NA,NA,NA
NA,1662.75499999756,sequential-stimulus-presentation-old,79,313677,0.0-19.0-1.5,SS1618006284382,trial,NA,40,500,2162.75499999756,images/stimuli/spore_stims/simple_07_A_b.gif,images/stimuli/spore_stims/simple_20_A_a.gif,self_paced,NA,5,simple_dissimilar,images/stimuli/spore_stims/simple_20_A_a.gif,NA,NA,NA,NA,NA
NA,2316.584999964107,survey-multi-choice,80,315997,0.0-20.0,SS1618006284382,math_question,NA,NA,NA,NA,NA,NA,NA,NA,NA,NA,NA,"{""Q0"":""10""}",[0],10,NA,NA
NA,null,html-keyboard-response,81,316867,0.0-21.0-0.0,SS1618006284382,NA,NA,null,NA,NA,NA,NA,NA,"<p><img src= images/blank.png width =""600"" height = ""600"" style=""position:fixed;top:50%; left:50%; transform: translate(-50%, -50%); border:5px solid black"">",NA,NA,NA,NA,NA,NA,NA,NA
NA,5220.085000037216,sequential-stimulus-presentation-old,82,322144,0.0-21.0-1.0,SS1618006284382,trial,NA,40,500,5720.085000037216,images/stimuli/spore_stims/complex_11_A_a.gif,images/stimuli/spore_stims/complex_01_A_b.gif,forced_short,NA,6,complex_dissimilar,images/stimuli/spore_stims/complex_01_A_b.gif,NA,NA,NA,NA,NA
NA,null,html-keyboard-response,83,323256,0.0-21.0-0.1,SS1618006284382,NA,NA,null,NA,NA,NA,NA,NA,"<p><img src= images/blank.png width =""600"" height = ""600"" style=""position:fixed;top:50%; left:50%; transform: translate(-50%, -50%); border:5px solid black"">",NA,NA,NA,NA,NA,NA,NA,NA
NA,3117.015000025276,sequential-stimulus-presentation-old,84,326881,0.0-21.0-1.1,SS1618006284382,trial,NA,40,500,3617.015000025276,images/stimuli/spore_stims/complex_11_A_a.gif,images/stimuli/spore_stims/complex_01_A_b.gif,forced_short,NA,6,complex_dissimilar,images/stimuli/spore_stims/complex_11_A_a.gif,NA,NA,NA,NA,NA
NA,null,html-keyboard-response,85,327922,0.0-21.0-0.2,SS1618006284382,NA,NA,null,NA,NA,NA,NA,NA,"<p><img src= images/blank.png width =""600"" height = ""600"" style=""position:fixed;top:50%; left:50%; transform: translate(-50%, -50%); border:5px solid black"">",NA,NA,NA,NA,NA,NA,NA,NA
NA,5299.104999983683,sequential-stimulus-presentation-old,86,333727,0.0-21.0-1.2,SS1618006284382,trial,NA,40,500,5799.104999983683,images/stimuli/spore_stims/complex_11_A_a.gif,images/stimuli/spore_stims/complex_01_A_b.gif,forced_short,NA,6,complex_dissimilar,images/stimuli/spore_stims/complex_01_A_b.gif,NA,NA,NA,NA,NA
NA,null,html-keyboard-response,87,334802,0.0-21.0-0.3,SS1618006284382,NA,NA,null,NA,NA,NA,NA,NA,"<p><img src= images/blank.png width =""600"" height = ""600"" style=""position:fixed;top:50%; left:50%; transform: translate(-50%, -50%); border:5px solid black"">",NA,NA,NA,NA,NA,NA,NA,NA
NA,3041.6950000217184,sequential-stimulus-presentation-old,88,338350,0.0-21.0-1.3,SS1618006284382,trial,NA,40,500,3541.6950000217184,images/stimuli/spore_stims/complex_11_A_a.gif,images/stimuli/spore_stims/complex_01_A_b.gif,forced_short,NA,6,complex_dissimilar,images/stimuli/spore_stims/complex_11_A_a.gif,NA,NA,NA,NA,NA
NA,null,html-keyboard-response,89,339343,0.0-21.0-0.4,SS1618006284382,NA,NA,null,NA,NA,NA,NA,NA,"<p><img src= images/blank.png width =""600"" height = ""600"" style=""position:fixed;top:50%; left:50%; transform: translate(-50%, -50%); border:5px solid black"">",NA,NA,NA,NA,NA,NA,NA,NA
NA,2902.1799999754876,sequential-stimulus-presentation-old,90,342752,0.0-21.0-1.4,SS1618006284382,trial,NA,40,500,3402.1799999754876,images/stimuli/spore_stims/complex_11_A_a.gif,images/stimuli/spore_stims/complex_01_A_b.gif,forced_short,NA,6,complex_dissimilar,images/stimuli/spore_stims/complex_01_A_b.gif,NA,NA,NA,NA,NA
NA,null,html-keyboard-response,91,343779,0.0-21.0-0.5,SS1618006284382,NA,NA,null,NA,NA,NA,NA,NA,"<p><img src= images/blank.png width =""600"" height = ""600"" style=""position:fixed;top:50%; left:50%; transform: translate(-50%, -50%); border:5px solid black"">",NA,NA,NA,NA,NA,NA,NA,NA
NA,2648.849999997765,sequential-stimulus-presentation-old,92,346936,0.0-21.0-1.5,SS1618006284382,trial,NA,40,500,3148.849999997765,images/stimuli/spore_stims/complex_11_A_a.gif,images/stimuli/spore_stims/complex_01_A_b.gif,forced_short,NA,6,complex_dissimilar,images/stimuli/spore_stims/complex_01_A_b.gif,NA,NA,NA,NA,NA
NA,2356.339999998454,survey-multi-choice,93,349296,0.0-22.0,SS1618006284382,math_question,NA,NA,NA,NA,NA,NA,NA,NA,NA,NA,NA,"{""Q0"":""6""}",[0],6,NA,NA
NA,null,html-keyboard-response,94,350143,0.0-23.0-0.0,SS1618006284382,NA,NA,null,NA,NA,NA,NA,NA,"<p><img src= images/blank.png width =""600"" height = ""600"" style=""position:fixed;top:50%; left:50%; transform: translate(-50%, -50%); border:5px solid black"">",NA,NA,NA,NA,NA,NA,NA,NA
NA,3432.3650000151247,sequential-stimulus-presentation-old,95,358585,0.0-23.0-1.0,SS1618006284382,trial,NA,40,500,3932.3650000151247,images/stimuli/spore_stims/complex_08_A_a.gif,images/stimuli/spore_stims/complex_19_A_b.gif,forced_long,NA,7,complex_dissimilar,images/stimuli/spore_stims/complex_19_A_b.gif,NA,NA,NA,NA,NA
NA,null,html-keyboard-response,96,359552,0.0-23.0-0.1,SS1618006284382,NA,NA,null,NA,NA,NA,NA,NA,"<p><img src= images/blank.png width =""600"" height = ""600"" style=""position:fixed;top:50%; left:50%; transform: translate(-50%, -50%); border:5px solid black"">",NA,NA,NA,NA,NA,NA,NA,NA
NA,8466.505000018515,sequential-stimulus-presentation-old,97,368526,0.0-23.0-1.1,SS1618006284382,trial,NA,40,500,8966.505000018515,images/stimuli/spore_stims/complex_08_A_a.gif,images/stimuli/spore_stims/complex_19_A_b.gif,forced_long,NA,7,complex_dissimilar,images/stimuli/spore_stims/complex_19_A_b.gif,NA,NA,NA,NA,NA
NA,null,html-keyboard-response,98,369398,0.0-23.0-0.2,SS1618006284382,NA,NA,null,NA,NA,NA,NA,NA,"<p><img src= images/blank.png width =""600"" height = ""600"" style=""position:fixed;top:50%; left:50%; transform: translate(-50%, -50%); border:5px solid black"">",NA,NA,NA,NA,NA,NA,NA,NA
NA,3243.9050000393763,sequential-stimulus-presentation-old,99,373151,0.0-23.0-1.2,SS1618006284382,trial,NA,40,500,3743.9050000393763,images/stimuli/spore_stims/complex_08_A_a.gif,images/stimuli/spore_stims/complex_19_A_b.gif,forced_long,NA,7,complex_dissimilar,images/stimuli/spore_stims/complex_08_A_a.gif,NA,NA,NA,NA,NA
NA,null,html-keyboard-response,100,374392,0.0-23.0-0.3,SS1618006284382,NA,NA,null,NA,NA,NA,NA,NA,"<p><img src= images/blank.png width =""600"" height = ""600"" style=""position:fixed;top:50%; left:50%; transform: translate(-50%, -50%); border:5px solid black"">",NA,NA,NA,NA,NA,NA,NA,NA
NA,978.5249999840744,sequential-stimulus-presentation-old,101,375879,0.0-23.0-1.3,SS1618006284382,trial,NA,40,500,1478.5249999840744,images/stimuli/spore_stims/complex_08_A_a.gif,images/stimuli/spore_stims/complex_19_A_b.gif,forced_long,NA,7,complex_dissimilar,images/stimuli/spore_stims/complex_19_A_b.gif,NA,NA,NA,NA,NA
NA,null,html-keyboard-response,102,376856,0.0-23.0-0.4,SS1618006284382,NA,NA,null,NA,NA,NA,NA,NA,"<p><img src= images/blank.png width =""600"" height = ""600"" style=""position:fixed;top:50%; left:50%; transform: translate(-50%, -50%); border:5px solid black"">",NA,NA,NA,NA,NA,NA,NA,NA
NA,414.51000003144145,sequential-stimulus-presentation-old,103,377778,0.0-23.0-1.4,SS1618006284382,trial,NA,40,500,914.5100000314415,images/stimuli/spore_stims/complex_08_A_a.gif,images/stimuli/spore_stims/complex_19_A_b.gif,forced_long,NA,7,complex_dissimilar,images/stimuli/spore_stims/complex_19_A_b.gif,NA,NA,NA,NA,NA
NA,null,html-keyboard-response,104,378976,0.0-23.0-0.5,SS1618006284382,NA,NA,null,NA,NA,NA,NA,NA,"<p><img src= images/blank.png width =""600"" height = ""600"" style=""position:fixed;top:50%; left:50%; transform: translate(-50%, -50%); border:5px solid black"">",NA,NA,NA,NA,NA,NA,NA,NA
NA,1571.6499999980442,sequential-stimulus-presentation-old,105,381056,0.0-23.0-1.5,SS1618006284382,trial,NA,40,500,2071.649999998044,images/stimuli/spore_stims/complex_08_A_a.gif,images/stimuli/spore_stims/complex_19_A_b.gif,forced_long,NA,7,complex_dissimilar,images/stimuli/spore_stims/complex_19_A_b.gif,NA,NA,NA,NA,NA
NA,2439.2750000115484,survey-multi-choice,106,383500,0.0-24.0,SS1618006284382,math_question,NA,NA,NA,NA,NA,NA,NA,NA,NA,NA,NA,"{""Q0"":""8""}",[0],8,NA,NA
NA,null,html-keyboard-response,107,384711,0.0-25.0-0.0,SS1618006284382,NA,NA,null,NA,NA,NA,NA,NA,"<p><img src= images/blank.png width =""600"" height = ""600"" style=""position:fixed;top:50%; left:50%; transform: translate(-50%, -50%); border:5px solid black"">",NA,NA,NA,NA,NA,NA,NA,NA
NA,586.2600000109524,sequential-stimulus-presentation-old,108,390309,0.0-25.0-1.0,SS1618006284382,trial,NA,40,500,1086.2600000109524,images/stimuli/spore_stims/complex_17_A_a.gif,images/stimuli/spore_stims/complex_08_A_b.gif,forced_long,NA,8,complex_dissimilar,images/stimuli/spore_stims/complex_08_A_b.gif,NA,NA,NA,NA,NA
NA,null,html-keyboard-response,109,391246,0.0-25.0-0.1,SS1618006284382,NA,NA,null,NA,NA,NA,NA,NA,"<p><img src= images/blank.png width =""600"" height = ""600"" style=""position:fixed;top:50%; left:50%; transform: translate(-50%, -50%); border:5px solid black"">",NA,NA,NA,NA,NA,NA,NA,NA
NA,3612.6550000044517,sequential-stimulus-presentation-old,110,395367,0.0-25.0-1.1,SS1618006284382,trial,NA,40,500,4112.655000004452,images/stimuli/spore_stims/complex_17_A_a.gif,images/stimuli/spore_stims/complex_08_A_b.gif,forced_long,NA,8,complex_dissimilar,images/stimuli/spore_stims/complex_08_A_b.gif,NA,NA,NA,NA,NA
NA,null,html-keyboard-response,111,396293,0.0-25.0-0.2,SS1618006284382,NA,NA,null,NA,NA,NA,NA,NA,"<p><img src= images/blank.png width =""600"" height = ""600"" style=""position:fixed;top:50%; left:50%; transform: translate(-50%, -50%); border:5px solid black"">",NA,NA,NA,NA,NA,NA,NA,NA
NA,3621.7600000090897,sequential-stimulus-presentation-old,112,400423,0.0-25.0-1.2,SS1618006284382,trial,NA,40,500,4121.76000000909,images/stimuli/spore_stims/complex_17_A_a.gif,images/stimuli/spore_stims/complex_08_A_b.gif,forced_long,NA,8,complex_dissimilar,images/stimuli/spore_stims/complex_17_A_a.gif,NA,NA,NA,NA,NA
NA,null,html-keyboard-response,113,401470,0.0-25.0-0.3,SS1618006284382,NA,NA,null,NA,NA,NA,NA,NA,"<p><img src= images/blank.png width =""600"" height = ""600"" style=""position:fixed;top:50%; left:50%; transform: translate(-50%, -50%); border:5px solid black"">",NA,NA,NA,NA,NA,NA,NA,NA
NA,2470.7049999851733,sequential-stimulus-presentation-old,114,404452,0.0-25.0-1.3,SS1618006284382,trial,NA,40,500,2970.7049999851733,images/stimuli/spore_stims/complex_17_A_a.gif,images/stimuli/spore_stims/complex_08_A_b.gif,forced_long,NA,8,complex_dissimilar,images/stimuli/spore_stims/complex_08_A_b.gif,NA,NA,NA,NA,NA
NA,null,html-keyboard-response,115,405598,0.0-25.0-0.4,SS1618006284382,NA,NA,null,NA,NA,NA,NA,NA,"<p><img src= images/blank.png width =""600"" height = ""600"" style=""position:fixed;top:50%; left:50%; transform: translate(-50%, -50%); border:5px solid black"">",NA,NA,NA,NA,NA,NA,NA,NA
NA,1418.119999987539,sequential-stimulus-presentation-old,116,407523,0.0-25.0-1.4,SS1618006284382,trial,NA,40,500,1918.119999987539,images/stimuli/spore_stims/complex_17_A_a.gif,images/stimuli/spore_stims/complex_08_A_b.gif,forced_long,NA,8,complex_dissimilar,images/stimuli/spore_stims/complex_08_A_b.gif,NA,NA,NA,NA,NA
NA,null,html-keyboard-response,117,408699,0.0-25.0-0.5,SS1618006284382,NA,NA,null,NA,NA,NA,NA,NA,"<p><img src= images/blank.png width =""600"" height = ""600"" style=""position:fixed;top:50%; left:50%; transform: translate(-50%, -50%); border:5px solid black"">",NA,NA,NA,NA,NA,NA,NA,NA
NA,3863.1249999743886,sequential-stimulus-presentation-old,118,413069,0.0-25.0-1.5,SS1618006284382,trial,NA,40,500,4363.124999974389,images/stimuli/spore_stims/complex_17_A_a.gif,images/stimuli/spore_stims/complex_08_A_b.gif,forced_long,NA,8,complex_dissimilar,images/stimuli/spore_stims/complex_08_A_b.gif,NA,NA,NA,NA,NA
NA,2549.1600000532344,survey-multi-choice,119,415621,0.0-26.0,SS1618006284382,math_question,NA,NA,NA,NA,NA,NA,NA,NA,NA,NA,NA,"{""Q0"":""4""}",[0],4,NA,NA
NA,null,html-keyboard-response,120,416821,0.0-27.0-0.0,SS1618006284382,NA,NA,null,NA,NA,NA,NA,NA,"<p><img src= images/blank.png width =""600"" height = ""600"" style=""position:fixed;top:50%; left:50%; transform: translate(-50%, -50%); border:5px solid black"">",NA,NA,NA,NA,NA,NA,NA,NA
NA,3737.0799999916926,sequential-stimulus-presentation-old,121,421065,0.0-27.0-1.0,SS1618006284382,trial,NA,40,500,4237.079999991693,images/stimuli/spore_stims/complex_05_A_a.gif,images/stimuli/spore_stims/complex_09_A_b.gif,self_paced,NA,9,complex_dissimilar,images/stimuli/spore_stims/complex_09_A_b.gif,NA,NA,NA,NA,NA
NA,null,html-keyboard-response,122,422137,0.0-27.0-0.1,SS1618006284382,NA,NA,null,NA,NA,NA,NA,NA,"<p><img src= images/blank.png width =""600"" height = ""600"" style=""position:fixed;top:50%; left:50%; transform: translate(-50%, -50%); border:5px solid black"">",NA,NA,NA,NA,NA,NA,NA,NA
NA,3005.0199999823235,sequential-stimulus-presentation-old,123,425649,0.0-27.0-1.1,SS1618006284382,trial,NA,40,500,3505.0199999823235,images/stimuli/spore_stims/complex_05_A_a.gif,images/stimuli/spore_stims/complex_09_A_b.gif,self_paced,NA,9,complex_dissimilar,images/stimuli/spore_stims/complex_05_A_a.gif,NA,NA,NA,NA,NA
NA,null,html-keyboard-response,124,426509,0.0-27.0-0.2,SS1618006284382,NA,NA,null,NA,NA,NA,NA,NA,"<p><img src= images/blank.png width =""600"" height = ""600"" style=""position:fixed;top:50%; left:50%; transform: translate(-50%, -50%); border:5px solid black"">",NA,NA,NA,NA,NA,NA,NA,NA
NA,1315.7249999931082,sequential-stimulus-presentation-old,125,428336,0.0-27.0-1.2,SS1618006284382,trial,NA,40,500,1815.7249999931082,images/stimuli/spore_stims/complex_05_A_a.gif,images/stimuli/spore_stims/complex_09_A_b.gif,self_paced,NA,9,complex_dissimilar,images/stimuli/spore_stims/complex_09_A_b.gif,NA,NA,NA,NA,NA
NA,null,html-keyboard-response,126,429233,0.0-27.0-0.3,SS1618006284382,NA,NA,null,NA,NA,NA,NA,NA,"<p><img src= images/blank.png width =""600"" height = ""600"" style=""position:fixed;top:50%; left:50%; transform: translate(-50%, -50%); border:5px solid black"">",NA,NA,NA,NA,NA,NA,NA,NA
NA,1487.90500004543,sequential-stimulus-presentation-old,127,431231,0.0-27.0-1.3,SS1618006284382,trial,NA,40,500,1987.90500004543,images/stimuli/spore_stims/complex_05_A_a.gif,images/stimuli/spore_stims/complex_09_A_b.gif,self_paced,NA,9,complex_dissimilar,images/stimuli/spore_stims/complex_09_A_b.gif,NA,NA,NA,NA,NA
NA,null,html-keyboard-response,128,432089,0.0-27.0-0.4,SS1618006284382,NA,NA,null,NA,NA,NA,NA,NA,"<p><img src= images/blank.png width =""600"" height = ""600"" style=""position:fixed;top:50%; left:50%; transform: translate(-50%, -50%); border:5px solid black"">",NA,NA,NA,NA,NA,NA,NA,NA
NA,1190.8349999575876,sequential-stimulus-presentation-old,129,433788,0.0-27.0-1.4,SS1618006284382,trial,NA,40,500,1690.8349999575876,images/stimuli/spore_stims/complex_05_A_a.gif,images/stimuli/spore_stims/complex_09_A_b.gif,self_paced,NA,9,complex_dissimilar,images/stimuli/spore_stims/complex_09_A_b.gif,NA,NA,NA,NA,NA
NA,2476.589999976568,survey-multi-choice,130,436268,0.0-28.0,SS1618006284382,math_question,NA,NA,NA,NA,NA,NA,NA,NA,NA,NA,NA,"{""Q0"":""11""}",[0],11,NA,NA
NA,null,html-keyboard-response,131,437295,0.0-29.0-0.0,SS1618006284382,NA,NA,null,NA,NA,NA,NA,NA,"<p><img src= images/blank.png width =""600"" height = ""600"" style=""position:fixed;top:50%; left:50%; transform: translate(-50%, -50%); border:5px solid black"">",NA,NA,NA,NA,NA,NA,NA,NA
NA,982.8599999891594,sequential-stimulus-presentation-old,132,438340,0.0-29.0-1.0,SS1618006284382,trial,NA,40,500,1482.8599999891594,images/stimuli/spore_stims/simple_04_A_a.gif,images/stimuli/spore_stims/simple_09_A_b.gif,forced_short,NA,10,simple_dissimilar,images/stimuli/spore_stims/simple_09_A_b.gif,NA,NA,NA,NA,NA
NA,null,html-keyboard-response,133,439617,0.0-29.0-0.1,SS1618006284382,NA,NA,null,NA,NA,NA,NA,NA,"<p><img src= images/blank.png width =""600"" height = ""600"" style=""position:fixed;top:50%; left:50%; transform: translate(-50%, -50%); border:5px solid black"">",NA,NA,NA,NA,NA,NA,NA,NA
NA,1773.0500000179745,sequential-stimulus-presentation-old,134,441896,0.0-29.0-1.1,SS1618006284382,trial,NA,40,500,2273.0500000179745,images/stimuli/spore_stims/simple_04_A_a.gif,images/stimuli/spore_stims/simple_09_A_b.gif,forced_short,NA,10,simple_dissimilar,images/stimuli/spore_stims/simple_09_A_b.gif,NA,NA,NA,NA,NA
NA,null,html-keyboard-response,135,442982,0.0-29.0-0.2,SS1618006284382,NA,NA,null,NA,NA,NA,NA,NA,"<p><img src= images/blank.png width =""600"" height = ""600"" style=""position:fixed;top:50%; left:50%; transform: translate(-50%, -50%); border:5px solid black"">",NA,NA,NA,NA,NA,NA,NA,NA
NA,4544.589999946766,sequential-stimulus-presentation-old,136,448035,0.0-29.0-1.2,SS1618006284382,trial,NA,40,500,5044.589999946766,images/stimuli/spore_stims/simple_04_A_a.gif,images/stimuli/spore_stims/simple_09_A_b.gif,forced_short,NA,10,simple_dissimilar,images/stimuli/spore_stims/simple_09_A_b.gif,NA,NA,NA,NA,NA
NA,null,html-keyboard-response,137,449125,0.0-29.0-0.3,SS1618006284382,NA,NA,null,NA,NA,NA,NA,NA,"<p><img src= images/blank.png width =""600"" height = ""600"" style=""position:fixed;top:50%; left:50%; transform: translate(-50%, -50%); border:5px solid black"">",NA,NA,NA,NA,NA,NA,NA,NA
NA,177.16500000096858,sequential-stimulus-presentation-old,138,449811,0.0-29.0-1.3,SS1618006284382,trial,NA,40,500,677.1650000009686,images/stimuli/spore_stims/simple_04_A_a.gif,images/stimuli/spore_stims/simple_09_A_b.gif,forced_short,NA,10,simple_dissimilar,images/stimuli/spore_stims/simple_09_A_b.gif,NA,NA,NA,NA,NA
NA,null,html-keyboard-response,139,450969,0.0-29.0-0.4,SS1618006284382,NA,NA,null,NA,NA,NA,NA,NA,"<p><img src= images/blank.png width =""600"" height = ""600"" style=""position:fixed;top:50%; left:50%; transform: translate(-50%, -50%); border:5px solid black"">",NA,NA,NA,NA,NA,NA,NA,NA
NA,8891.360000008717,sequential-stimulus-presentation-old,140,460371,0.0-29.0-1.4,SS1618006284382,trial,NA,40,500,9391.360000008717,images/stimuli/spore_stims/simple_04_A_a.gif,images/stimuli/spore_stims/simple_09_A_b.gif,forced_short,NA,10,simple_dissimilar,images/stimuli/spore_stims/simple_09_A_b.gif,NA,NA,NA,NA,NA
NA,2248.505000025034,survey-multi-choice,141,462624,0.0-30.0,SS1618006284382,math_question,NA,NA,NA,NA,NA,NA,NA,NA,NA,NA,NA,"{""Q0"":""7""}",[0],7,NA,NA
NA,null,html-keyboard-response,142,463899,0.0-31.0-0.0,SS1618006284382,NA,NA,null,NA,NA,NA,NA,NA,"<p><img src= images/blank.png width =""600"" height = ""600"" style=""position:fixed;top:50%; left:50%; transform: translate(-50%, -50%); border:5px solid black"">",NA,NA,NA,NA,NA,NA,NA,NA
NA,2524.4450000463985,sequential-stimulus-presentation-old,143,466930,0.0-31.0-1.0,SS1618006284382,trial,NA,40,500,3024.4450000463985,images/stimuli/spore_stims/simple_06_A_b.gif,images/stimuli/spore_stims/simple_18_A_a.gif,self_paced,NA,11,simple_dissimilar,images/stimuli/spore_stims/simple_18_A_a.gif,NA,NA,NA,NA,NA
NA,null,html-keyboard-response,144,468051,0.0-31.0-0.1,SS1618006284382,NA,NA,null,NA,NA,NA,NA,NA,"<p><img src= images/blank.png width =""600"" height = ""600"" style=""position:fixed;top:50%; left:50%; transform: translate(-50%, -50%); border:5px solid black"">",NA,NA,NA,NA,NA,NA,NA,NA
NA,2240.1349999709055,sequential-stimulus-presentation-old,145,470798,0.0-31.0-1.1,SS1618006284382,trial,NA,40,500,2740.1349999709055,images/stimuli/spore_stims/simple_06_A_b.gif,images/stimuli/spore_stims/simple_18_A_a.gif,self_paced,NA,11,simple_dissimilar,images/stimuli/spore_stims/simple_18_A_a.gif,NA,NA,NA,NA,NA
NA,null,html-keyboard-response,146,471987,0.0-31.0-0.2,SS1618006284382,NA,NA,null,NA,NA,NA,NA,NA,"<p><img src= images/blank.png width =""600"" height = ""600"" style=""position:fixed;top:50%; left:50%; transform: translate(-50%, -50%); border:5px solid black"">",NA,NA,NA,NA,NA,NA,NA,NA
NA,1708.2299999892712,sequential-stimulus-presentation-old,147,474204,0.0-31.0-1.2,SS1618006284382,trial,NA,40,500,2208.229999989271,images/stimuli/spore_stims/simple_06_A_b.gif,images/stimuli/spore_stims/simple_18_A_a.gif,self_paced,NA,11,simple_dissimilar,images/stimuli/spore_stims/simple_06_A_b.gif,NA,NA,NA,NA,NA
NA,null,html-keyboard-response,148,475356,0.0-31.0-0.3,SS1618006284382,NA,NA,null,NA,NA,NA,NA,NA,"<p><img src= images/blank.png width =""600"" height = ""600"" style=""position:fixed;top:50%; left:50%; transform: translate(-50%, -50%); border:5px solid black"">",NA,NA,NA,NA,NA,NA,NA,NA
NA,2546.764999977313,sequential-stimulus-presentation-old,149,478413,0.0-31.0-1.3,SS1618006284382,trial,NA,40,500,3046.764999977313,images/stimuli/spore_stims/simple_06_A_b.gif,images/stimuli/spore_stims/simple_18_A_a.gif,self_paced,NA,11,simple_dissimilar,images/stimuli/spore_stims/simple_18_A_a.gif,NA,NA,NA,NA,NA
NA,null,html-keyboard-response,150,479336,0.0-31.0-0.4,SS1618006284382,NA,NA,null,NA,NA,NA,NA,NA,"<p><img src= images/blank.png width =""600"" height = ""600"" style=""position:fixed;top:50%; left:50%; transform: translate(-50%, -50%); border:5px solid black"">",NA,NA,NA,NA,NA,NA,NA,NA
NA,3163.5250000399537,sequential-stimulus-presentation-old,151,483010,0.0-31.0-1.4,SS1618006284382,trial,NA,40,500,3663.5250000399537,images/stimuli/spore_stims/simple_06_A_b.gif,images/stimuli/spore_stims/simple_18_A_a.gif,self_paced,NA,11,simple_dissimilar,images/stimuli/spore_stims/simple_06_A_b.gif,NA,NA,NA,NA,NA
NA,null,html-keyboard-response,152,483953,0.0-31.0-0.5,SS1618006284382,NA,NA,null,NA,NA,NA,NA,NA,"<p><img src= images/blank.png width =""600"" height = ""600"" style=""position:fixed;top:50%; left:50%; transform: translate(-50%, -50%); border:5px solid black"">",NA,NA,NA,NA,NA,NA,NA,NA
NA,1352.1949999849312,sequential-stimulus-presentation-old,153,485816,0.0-31.0-1.5,SS1618006284382,trial,NA,40,500,1852.1949999849312,images/stimuli/spore_stims/simple_06_A_b.gif,images/stimuli/spore_stims/simple_18_A_a.gif,self_paced,NA,11,simple_dissimilar,images/stimuli/spore_stims/simple_18_A_a.gif,NA,NA,NA,NA,NA
"[{""page_index"":0,""viewing_time"":5128.384999989066}]",5128.759999992326,instructions,154,490949,0.0-32.0,SS1618006284382,instructions,NA,NA,NA,NA,NA,NA,NA,NA,NA,NA,NA,NA,NA,NA,NA,NA
NA,7303.364999999758,survey-likert,155,498262,0.0-33.0,SS1618006284382,similarity_question,NA,NA,NA,NA,NA,NA,NA,NA,NA,NA,NA,"{""Q0"":0}",[0],NA,images/stimuli/spore_stims/complex_16_A_b.gif,images/stimuli/spore_stims/complex_12_A_a.gif
NA,4823.295000009239,survey-likert,156,503093,0.0-34.0,SS1618006284382,similarity_question,NA,NA,NA,NA,NA,NA,NA,NA,NA,NA,NA,"{""Q0"":2}",[0],NA,images/stimuli/spore_stims/simple_04_A_a.gif,images/stimuli/spore_stims/simple_09_A_b.gif
NA,5073.390000034124,survey-likert,157,508178,0.0-35.0,SS1618006284382,similarity_question,NA,NA,NA,NA,NA,NA,NA,NA,NA,NA,NA,"{""Q0"":4}",[0],NA,images/stimuli/spore_stims/simple_10_A_b.gif,images/stimuli/spore_stims/simple_03_A_a.gif
NA,5081.435000000056,survey-likert,158,513265,0.0-36.0,SS1618006284382,similarity_question,NA,NA,NA,NA,NA,NA,NA,NA,NA,NA,NA,"{""Q0"":5}",[0],NA,images/stimuli/spore_stims/simple_01_A_b.gif,images/stimuli/spore_stims/simple_15_A_a.gif
NA,6354.3550000176765,survey-likert,159,519628,0.0-37.0,SS1618006284382,similarity_question,NA,NA,NA,NA,NA,NA,NA,NA,NA,NA,NA,"{""Q0"":0}",[0],NA,images/stimuli/spore_stims/complex_11_A_a.gif,images/stimuli/spore_stims/complex_01_A_b.gif
NA,8434.780000010505,survey-likert,160,528070,0.0-38.0,SS1618006284382,similarity_question,NA,NA,NA,NA,NA,NA,NA,NA,NA,NA,NA,"{""Q0"":0}",[0],NA,images/stimuli/spore_stims/complex_19_A_b.gif,images/stimuli/spore_stims/complex_08_A_a.gif
NA,5787.10499999579,survey-likert,161,533866,0.0-39.0,SS1618006284382,similarity_question,NA,NA,NA,NA,NA,NA,NA,NA,NA,NA,NA,"{""Q0"":0}",[0],NA,images/stimuli/spore_stims/complex_05_A_a.gif,images/stimuli/spore_stims/complex_09_A_b.gif
NA,3679.2099999729544,survey-likert,162,537553,0.0-40.0,SS1618006284382,similarity_question,NA,NA,NA,NA,NA,NA,NA,NA,NA,NA,NA,"{""Q0"":4}",[0],NA,images/stimuli/spore_stims/simple_04_A_b.gif,images/stimuli/spore_stims/simple_12_A_a.gif
NA,3386.434999993071,survey-likert,163,540947,0.0-41.0,SS1618006284382,similarity_question,NA,NA,NA,NA,NA,NA,NA,NA,NA,NA,NA,"{""Q0"":2}",[0],NA,images/stimuli/spore_stims/simple_18_A_a.gif,images/stimuli/spore_stims/simple_06_A_b.gif
NA,2703.2600000384264,survey-likert,164,543658,0.0-42.0,SS1618006284382,similarity_question,NA,NA,NA,NA,NA,NA,NA,NA,NA,NA,NA,"{""Q0"":1}",[0],NA,images/stimuli/spore_stims/simple_20_A_a.gif,images/stimuli/spore_stims/simple_07_A_b.gif
NA,3978.000000002794,survey-likert,165,547645,0.0-43.0,SS1618006284382,similarity_question,NA,NA,NA,NA,NA,NA,NA,NA,NA,NA,NA,"{""Q0"":0}",[0],NA,images/stimuli/spore_stims/complex_05_A_b.gif,images/stimuli/spore_stims/complex_02_A_a.gif
NA,3921.15000000922,survey-likert,166,551575,0.0-44.0,SS1618006284382,similarity_question,NA,NA,NA,NA,NA,NA,NA,NA,NA,NA,NA,"{""Q0"":1}",[0],NA,images/stimuli/spore_stims/complex_08_A_b.gif,images/stimuli/spore_stims/complex_17_A_a.gif
"[{""page_index"":0,""viewing_time"":3197.1750000375323}]",3197.595000034198,instructions,167,554779,0.0-45.0,SS1618006284382,instructions,NA,NA,NA,NA,NA,NA,NA,NA,NA,NA,NA,NA,NA,NA,NA,NA
NA,4066.0599999828264,survey-likert,168,558853,0.0-46.0,SS1618006284382,NA,NA,NA,NA,NA,NA,NA,NA,images/stimuli/spore_stims/simple_20_A_a.gif,NA,NA,NA,"{""Q0"":1}",[0],NA,NA,NA
NA,3219.5250000222586,survey-likert,169,562081,0.0-47.0,SS1618006284382,NA,NA,NA,NA,NA,NA,NA,NA,images/stimuli/spore_stims/complex_05_A_a.gif,NA,NA,NA,"{""Q0"":5}",[0],NA,NA,NA
NA,2895.7000000518747,survey-likert,170,564985,0.0-48.0,SS1618006284382,NA,NA,NA,NA,NA,NA,NA,NA,images/stimuli/spore_stims/complex_12_A_a.gif,NA,NA,NA,"{""Q0"":6}",[0],NA,NA,NA
NA,2735.0149999838322,survey-likert,171,567728,0.0-49.0,SS1618006284382,NA,NA,NA,NA,NA,NA,NA,NA,images/stimuli/spore_stims/complex_05_A_b.gif,NA,NA,NA,"{""Q0"":4}",[0],NA,NA,NA
NA,2493.5200000181794,survey-likert,172,570231,0.0-50.0,SS1618006284382,NA,NA,NA,NA,NA,NA,NA,NA,images/stimuli/spore_stims/complex_01_A_b.gif,NA,NA,NA,"{""Q0"":4}",[0],NA,NA,NA
NA,2980.7699999655597,survey-likert,173,573221,0.0-51.0,SS1618006284382,NA,NA,NA,NA,NA,NA,NA,NA,images/stimuli/spore_stims/simple_12_A_a.gif,NA,NA,NA,"{""Q0"":2}",[0],NA,NA,NA
NA,2169.3000000086613,survey-likert,174,575398,0.0-52.0,SS1618006284382,NA,NA,NA,NA,NA,NA,NA,NA,images/stimuli/spore_stims/complex_08_A_b.gif,NA,NA,NA,"{""Q0"":5}",[0],NA,NA,NA
NA,4008.590000041295,survey-likert,175,579416,0.0-53.0,SS1618006284382,NA,NA,NA,NA,NA,NA,NA,NA,images/stimuli/spore_stims/simple_03_A_a.gif,NA,NA,NA,"{""Q0"":0}",[0],NA,NA,NA
NA,1936.4449999993667,survey-likert,176,581361,0.0-54.0,SS1618006284382,NA,NA,NA,NA,NA,NA,NA,NA,images/stimuli/spore_stims/simple_15_A_a.gif,NA,NA,NA,"{""Q0"":0}",[0],NA,NA,NA
NA,2766.1599999992177,survey-likert,177,584136,0.0-55.0,SS1618006284382,NA,NA,NA,NA,NA,NA,NA,NA,images/stimuli/spore_stims/complex_19_A_b.gif,NA,NA,NA,"{""Q0"":5}",[0],NA,NA,NA
NA,1872.9749999474734,survey-likert,178,586017,0.0-56.0,SS1618006284382,NA,NA,NA,NA,NA,NA,NA,NA,images/stimuli/spore_stims/simple_06_A_b.gif,NA,NA,NA,"{""Q0"":1}",[0],NA,NA,NA
NA,2247.3599999793805,survey-likert,179,588274,0.0-57.0,SS1618006284382,NA,NA,NA,NA,NA,NA,NA,NA,images/stimuli/spore_stims/simple_09_A_b.gif,NA,NA,NA,"{""Q0"":0}",[0],NA,NA,NA
"[{""page_index"":0,""viewing_time"":1443.2399999932386}]",1443.6550000100397,instructions,180,589724,0.0-58.0,SS1618006284382,instructions,NA,NA,NA,NA,NA,NA,NA,NA,NA,NA,NA,NA,NA,NA,NA,NA
NA,2286.1099999863654,demog-age,181,592022,0.0-59.0,SS1618006284382,NA,NA,NA,NA,NA,NA,NA,NA,NA,NA,NA,NA,"{""age"":""20""}",NA,NA,NA,NA
NA,2889.840000018012,demog-ethnic-US,182,594924,0.0-60.0,SS1618006284382,NA,NA,NA,NA,NA,NA,NA,NA,NA,NA,NA,NA,"{""ethnicity"":[""White""]}",[0],NA,NA,NA
NA,10858.995000016876,demog-gender-and-education,183,605791,0.0-61.0,SS1618006284382,NA,NA,NA,NA,NA,NA,NA,NA,NA,NA,NA,NA,"{""gender"":""Female"",""education"":""High school diploma""}","[0,1]",NA,NA,NA
NA,4821.730000025127,survey-text,184,610622,0.0-62.0,SS1618006284382,feedback,NA,NA,NA,NA,NA,NA,NA,NA,NA,NA,NA,"{""Q0"":""no""}",NA,NA,NA,NA
"[{""page_index"":0,""viewing_time"":1497.9349999921396}]",1498.2900000177324,instructions,185,612129,0.0-63.0,SS1618006284382,instructions,NA,NA,NA,NA,NA,NA,NA,NA,NA,NA,NA,NA,NA,NA,NA,NA
"[{""page_index"":0,""viewing_time"":7641}]",7641,instructions,0,7642,0.0-0.0,SS1618006292839,NA,NA,NA,NA,NA,NA,NA,NA,NA,NA,NA,NA,NA,NA,NA,NA,NA
"[{""page_index"":0,""viewing_time"":14129},{""page_index"":1,""viewing_time"":5399}]",19529,instructions,1,29171,0.0-1.0,SS1618006292839,instructions,NA,NA,NA,NA,NA,NA,NA,NA,NA,NA,NA,NA,NA,NA,NA,NA
NA,9778,sequential-stimulus-presentation-old,2,39453,0.0-2.0,SS1618006292839,NA,NA,40,500,10278,null,null,self_paced,NA,NA,NA,NA,NA,NA,NA,NA,NA
NA,7230,sequential-stimulus-presentation-old,3,47187,0.0-3.0,SS1618006292839,NA,NA,40,500,7730,null,null,self_paced,NA,NA,NA,NA,NA,NA,NA,NA,NA
"[{""page_index"":0,""viewing_time"":18363}]",18363,instructions,4,65552,0.0-4.0,SS1618006292839,instructions,NA,NA,NA,NA,NA,NA,NA,NA,NA,NA,NA,NA,NA,NA,NA,NA
NA,6701,sequential-stimulus-presentation-old,5,77258,0.0-5.0,SS1618006292839,NA,NA,40,500,7201,null,null,forced_long,NA,NA,NA,NA,NA,NA,NA,NA,NA
NA,6989,sequential-stimulus-presentation-old,6,84299,0.0-6.0,SS1618006292839,NA,NA,40,50,7039,null,null,forced_long,NA,NA,NA,NA,NA,NA,NA,NA,NA
"[{""page_index"":0,""viewing_time"":5607}]",5607,instructions,7,89908,0.0-7.0,SS1618006292839,instructions,NA,NA,NA,NA,NA,NA,NA,NA,NA,NA,NA,NA,NA,NA,NA,NA
"[{""page_index"":0,""viewing_time"":9720},{""page_index"":1,""viewing_time"":11337},{""page_index"":2,""viewing_time"":7856},{""page_index"":3,""viewing_time"":1983},{""page_index"":4,""viewing_time"":2034.0000000000146}]",32930.000000000015,instructions,8,122840,0.0-8.0,SS1618006292839,instructions,NA,NA,NA,NA,NA,NA,NA,NA,NA,NA,NA,NA,NA,NA,NA,NA
NA,null,html-keyboard-response,9,124100,0.0-9.0-0.0,SS1618006292839,NA,NA,null,NA,NA,NA,NA,NA,"<p><img src= images/blank.png width =""600"" height = ""600"" style=""position:fixed;top:50%; left:50%; transform: translate(-50%, -50%); border:5px solid black"">",NA,NA,NA,NA,NA,NA,NA,NA
NA,10183.999999999985,sequential-stimulus-presentation-old,10,134339,0.0-9.0-1.0,SS1618006292839,trial,NA,40,500,10683.999999999985,images/stimuli/spore_stims/simple_11_A_a.gif,images/stimuli/spore_stims/simple_02_A_b.gif,forced_short,NA,0,simple_dissimilar,images/stimuli/spore_stims/simple_02_A_b.gif,NA,NA,NA,NA,NA
NA,null,html-keyboard-response,11,135604,0.0-9.0-0.1,SS1618006292839,NA,NA,null,NA,NA,NA,NA,NA,"<p><img src= images/blank.png width =""600"" height = ""600"" style=""position:fixed;top:50%; left:50%; transform: translate(-50%, -50%); border:5px solid black"">",NA,NA,NA,NA,NA,NA,NA,NA
NA,10335.00000000003,sequential-stimulus-presentation-old,12,146442,0.0-9.0-1.1,SS1618006292839,trial,NA,40,500,10835.00000000003,images/stimuli/spore_stims/simple_11_A_a.gif,images/stimuli/spore_stims/simple_02_A_b.gif,forced_short,NA,0,simple_dissimilar,images/stimuli/spore_stims/simple_02_A_b.gif,NA,NA,NA,NA,NA
NA,null,html-keyboard-response,13,147310,0.0-9.0-0.2,SS1618006292839,NA,NA,null,NA,NA,NA,NA,NA,"<p><img src= images/blank.png width =""600"" height = ""600"" style=""position:fixed;top:50%; left:50%; transform: translate(-50%, -50%); border:5px solid black"">",NA,NA,NA,NA,NA,NA,NA,NA
NA,6640,sequential-stimulus-presentation-old,14,154453,0.0-9.0-1.2,SS1618006292839,trial,NA,40,500,7140,images/stimuli/spore_stims/simple_11_A_a.gif,images/stimuli/spore_stims/simple_02_A_b.gif,forced_short,NA,0,simple_dissimilar,images/stimuli/spore_stims/simple_11_A_a.gif,NA,NA,NA,NA,NA
NA,null,html-keyboard-response,15,155489,0.0-9.0-0.3,SS1618006292839,NA,NA,null,NA,NA,NA,NA,NA,"<p><img src= images/blank.png width =""600"" height = ""600"" style=""position:fixed;top:50%; left:50%; transform: translate(-50%, -50%); border:5px solid black"">",NA,NA,NA,NA,NA,NA,NA,NA
NA,8209,sequential-stimulus-presentation-old,16,164201,0.0-9.0-1.3,SS1618006292839,trial,NA,40,500,8709,images/stimuli/spore_stims/simple_11_A_a.gif,images/stimuli/spore_stims/simple_02_A_b.gif,forced_short,NA,0,simple_dissimilar,images/stimuli/spore_stims/simple_02_A_b.gif,NA,NA,NA,NA,NA
NA,5473,survey-multi-choice,17,169678,0.0-10.0,SS1618006292839,math_question,NA,NA,NA,NA,NA,NA,NA,NA,NA,NA,NA,"{""Q0"":""11""}",[0],11,NA,NA
NA,null,html-keyboard-response,18,170529,0.0-11.0-0.0,SS1618006292839,NA,NA,null,NA,NA,NA,NA,NA,"<p><img src= images/blank.png width =""600"" height = ""600"" style=""position:fixed;top:50%; left:50%; transform: translate(-50%, -50%); border:5px solid black"">",NA,NA,NA,NA,NA,NA,NA,NA
NA,1680,sequential-stimulus-presentation-old,19,177214,0.0-11.0-1.0,SS1618006292839,trial,NA,40,500,2180,images/stimuli/spore_stims/simple_08_A_b.gif,images/stimuli/spore_stims/simple_04_A_a.gif,forced_long,NA,1,simple_dissimilar,images/stimuli/spore_stims/simple_04_A_a.gif,NA,NA,NA,NA,NA
NA,null,html-keyboard-response,20,178388,0.0-11.0-0.1,SS1618006292839,NA,NA,null,NA,NA,NA,NA,NA,"<p><img src= images/blank.png width =""600"" height = ""600"" style=""position:fixed;top:50%; left:50%; transform: translate(-50%, -50%); border:5px solid black"">",NA,NA,NA,NA,NA,NA,NA,NA
NA,5334,sequential-stimulus-presentation-old,21,184226,0.0-11.0-1.1,SS1618006292839,trial,NA,40,500,5834,images/stimuli/spore_stims/simple_08_A_b.gif,images/stimuli/spore_stims/simple_04_A_a.gif,forced_long,NA,1,simple_dissimilar,images/stimuli/spore_stims/simple_08_A_b.gif,NA,NA,NA,NA,NA
NA,null,html-keyboard-response,22,185273,0.0-11.0-0.2,SS1618006292839,NA,NA,null,NA,NA,NA,NA,NA,"<p><img src= images/blank.png width =""600"" height = ""600"" style=""position:fixed;top:50%; left:50%; transform: translate(-50%, -50%); border:5px solid black"">",NA,NA,NA,NA,NA,NA,NA,NA
NA,3572,sequential-stimulus-presentation-old,23,189349,0.0-11.0-1.2,SS1618006292839,trial,NA,40,500,4072,images/stimuli/spore_stims/simple_08_A_b.gif,images/stimuli/spore_stims/simple_04_A_a.gif,forced_long,NA,1,simple_dissimilar,images/stimuli/spore_stims/simple_08_A_b.gif,NA,NA,NA,NA,NA
NA,null,html-keyboard-response,24,190307,0.0-11.0-0.3,SS1618006292839,NA,NA,null,NA,NA,NA,NA,NA,"<p><img src= images/blank.png width =""600"" height = ""600"" style=""position:fixed;top:50%; left:50%; transform: translate(-50%, -50%); border:5px solid black"">",NA,NA,NA,NA,NA,NA,NA,NA
NA,5669,sequential-stimulus-presentation-old,25,196480,0.0-11.0-1.3,SS1618006292839,trial,NA,40,500,6169,images/stimuli/spore_stims/simple_08_A_b.gif,images/stimuli/spore_stims/simple_04_A_a.gif,forced_long,NA,1,simple_dissimilar,images/stimuli/spore_stims/simple_04_A_a.gif,NA,NA,NA,NA,NA
NA,3268.999999999971,survey-multi-choice,26,199753,0.0-12.0,SS1618006292839,math_question,NA,NA,NA,NA,NA,NA,NA,NA,NA,NA,NA,"{""Q0"":""10""}",[0],10,NA,NA
NA,null,html-keyboard-response,27,200733,0.0-13.0-0.0,SS1618006292839,NA,NA,null,NA,NA,NA,NA,NA,"<p><img src= images/blank.png width =""600"" height = ""600"" style=""position:fixed;top:50%; left:50%; transform: translate(-50%, -50%); border:5px solid black"">",NA,NA,NA,NA,NA,NA,NA,NA
NA,1021,sequential-stimulus-presentation-old,28,206757,0.0-13.0-1.0,SS1618006292839,trial,NA,40,500,1521,images/stimuli/spore_stims/complex_02_A_b.gif,images/stimuli/spore_stims/complex_04_A_a.gif,forced_long,NA,2,complex_dissimilar,images/stimuli/spore_stims/complex_04_A_a.gif,NA,NA,NA,NA,NA
NA,null,html-keyboard-response,29,207860,0.0-13.0-0.1,SS1618006292839,NA,NA,null,NA,NA,NA,NA,NA,"<p><img src= images/blank.png width =""600"" height = ""600"" style=""position:fixed;top:50%; left:50%; transform: translate(-50%, -50%); border:5px solid black"">",NA,NA,NA,NA,NA,NA,NA,NA
NA,4413.999999999971,sequential-stimulus-presentation-old,30,212779,0.0-13.0-1.1,SS1618006292839,trial,NA,40,500,4913.999999999971,images/stimuli/spore_stims/complex_02_A_b.gif,images/stimuli/spore_stims/complex_04_A_a.gif,forced_long,NA,2,complex_dissimilar,images/stimuli/spore_stims/complex_04_A_a.gif,NA,NA,NA,NA,NA
NA,null,html-keyboard-response,31,213705,0.0-13.0-0.2,SS1618006292839,NA,NA,null,NA,NA,NA,NA,NA,"<p><img src= images/blank.png width =""600"" height = ""600"" style=""position:fixed;top:50%; left:50%; transform: translate(-50%, -50%); border:5px solid black"">",NA,NA,NA,NA,NA,NA,NA,NA
NA,5399,sequential-stimulus-presentation-old,32,219608,0.0-13.0-1.2,SS1618006292839,trial,NA,40,500,5899,images/stimuli/spore_stims/complex_02_A_b.gif,images/stimuli/spore_stims/complex_04_A_a.gif,forced_long,NA,2,complex_dissimilar,images/stimuli/spore_stims/complex_04_A_a.gif,NA,NA,NA,NA,NA
NA,null,html-keyboard-response,33,220590,0.0-13.0-0.3,SS1618006292839,NA,NA,null,NA,NA,NA,NA,NA,"<p><img src= images/blank.png width =""600"" height = ""600"" style=""position:fixed;top:50%; left:50%; transform: translate(-50%, -50%); border:5px solid black"">",NA,NA,NA,NA,NA,NA,NA,NA
NA,5519,sequential-stimulus-presentation-old,34,226613,0.0-13.0-1.3,SS1618006292839,trial,NA,40,500,6019,images/stimuli/spore_stims/complex_02_A_b.gif,images/stimuli/spore_stims/complex_04_A_a.gif,forced_long,NA,2,complex_dissimilar,images/stimuli/spore_stims/complex_02_A_b.gif,NA,NA,NA,NA,NA
NA,2777,survey-multi-choice,35,229393,0.0-14.0,SS1618006292839,math_question,NA,NA,NA,NA,NA,NA,NA,NA,NA,NA,NA,"{""Q0"":""10""}",[0],10,NA,NA
NA,null,html-keyboard-response,36,230344,0.0-15.0-0.0,SS1618006292839,NA,NA,null,NA,NA,NA,NA,NA,"<p><img src= images/blank.png width =""600"" height = ""600"" style=""position:fixed;top:50%; left:50%; transform: translate(-50%, -50%); border:5px solid black"">",NA,NA,NA,NA,NA,NA,NA,NA
NA,2308,sequential-stimulus-presentation-old,37,237656,0.0-15.0-1.0,SS1618006292839,trial,NA,40,500,2808,images/stimuli/spore_stims/simple_12_A_a.gif,images/stimuli/spore_stims/simple_06_A_b.gif,forced_long,NA,3,simple_dissimilar,images/stimuli/spore_stims/simple_06_A_b.gif,NA,NA,NA,NA,NA
NA,null,html-keyboard-response,38,238855,0.0-15.0-0.1,SS1618006292839,NA,NA,null,NA,NA,NA,NA,NA,"<p><img src= images/blank.png width =""600"" height = ""600"" style=""position:fixed;top:50%; left:50%; transform: translate(-50%, -50%); border:5px solid black"">",NA,NA,NA,NA,NA,NA,NA,NA
NA,3807,sequential-stimulus-presentation-old,39,243167,0.0-15.0-1.1,SS1618006292839,trial,NA,40,500,4307,images/stimuli/spore_stims/simple_12_A_a.gif,images/stimuli/spore_stims/simple_06_A_b.gif,forced_long,NA,3,simple_dissimilar,images/stimuli/spore_stims/simple_06_A_b.gif,NA,NA,NA,NA,NA
NA,null,html-keyboard-response,40,244056,0.0-15.0-0.2,SS1618006292839,NA,NA,null,NA,NA,NA,NA,NA,"<p><img src= images/blank.png width =""600"" height = ""600"" style=""position:fixed;top:50%; left:50%; transform: translate(-50%, -50%); border:5px solid black"">",NA,NA,NA,NA,NA,NA,NA,NA
NA,3165.999999999971,sequential-stimulus-presentation-old,41,247727,0.0-15.0-1.2,SS1618006292839,trial,NA,40,500,3665.999999999971,images/stimuli/spore_stims/simple_12_A_a.gif,images/stimuli/spore_stims/simple_06_A_b.gif,forced_long,NA,3,simple_dissimilar,images/stimuli/spore_stims/simple_06_A_b.gif,NA,NA,NA,NA,NA
NA,null,html-keyboard-response,42,248673,0.0-15.0-0.3,SS1618006292839,NA,NA,null,NA,NA,NA,NA,NA,"<p><img src= images/blank.png width =""600"" height = ""600"" style=""position:fixed;top:50%; left:50%; transform: translate(-50%, -50%); border:5px solid black"">",NA,NA,NA,NA,NA,NA,NA,NA
NA,2272,sequential-stimulus-presentation-old,43,251449,0.0-15.0-1.3,SS1618006292839,trial,NA,40,500,2772,images/stimuli/spore_stims/simple_12_A_a.gif,images/stimuli/spore_stims/simple_06_A_b.gif,forced_long,NA,3,simple_dissimilar,images/stimuli/spore_stims/simple_06_A_b.gif,NA,NA,NA,NA,NA
NA,null,html-keyboard-response,44,252573,0.0-15.0-0.4,SS1618006292839,NA,NA,null,NA,NA,NA,NA,NA,"<p><img src= images/blank.png width =""600"" height = ""600"" style=""position:fixed;top:50%; left:50%; transform: translate(-50%, -50%); border:5px solid black"">",NA,NA,NA,NA,NA,NA,NA,NA
NA,1771.000000000029,sequential-stimulus-presentation-old,45,254848,0.0-15.0-1.4,SS1618006292839,trial,NA,40,500,2271.000000000029,images/stimuli/spore_stims/simple_12_A_a.gif,images/stimuli/spore_stims/simple_06_A_b.gif,forced_long,NA,3,simple_dissimilar,images/stimuli/spore_stims/simple_06_A_b.gif,NA,NA,NA,NA,NA
NA,3996.000000000029,survey-multi-choice,46,258846,0.0-16.0,SS1618006292839,math_question,NA,NA,NA,NA,NA,NA,NA,NA,NA,NA,NA,"{""Q0"":""17""}",[0],17,NA,NA
NA,null,html-keyboard-response,47,259836,0.0-17.0-0.0,SS1618006292839,NA,NA,null,NA,NA,NA,NA,NA,"<p><img src= images/blank.png width =""600"" height = ""600"" style=""position:fixed;top:50%; left:50%; transform: translate(-50%, -50%); border:5px solid black"">",NA,NA,NA,NA,NA,NA,NA,NA
NA,3103,sequential-stimulus-presentation-old,48,263444,0.0-17.0-1.0,SS1618006292839,trial,NA,40,500,3603,images/stimuli/spore_stims/complex_11_A_a.gif,images/stimuli/spore_stims/complex_05_A_b.gif,self_paced,NA,4,complex_dissimilar,images/stimuli/spore_stims/complex_05_A_b.gif,NA,NA,NA,NA,NA
NA,null,html-keyboard-response,49,264624,0.0-17.0-0.1,SS1618006292839,NA,NA,null,NA,NA,NA,NA,NA,"<p><img src= images/blank.png width =""600"" height = ""600"" style=""position:fixed;top:50%; left:50%; transform: translate(-50%, -50%); border:5px solid black"">",NA,NA,NA,NA,NA,NA,NA,NA
NA,5325,sequential-stimulus-presentation-old,50,270453,0.0-17.0-1.1,SS1618006292839,trial,NA,40,500,5825,images/stimuli/spore_stims/complex_11_A_a.gif,images/stimuli/spore_stims/complex_05_A_b.gif,self_paced,NA,4,complex_dissimilar,images/stimuli/spore_stims/complex_05_A_b.gif,NA,NA,NA,NA,NA
NA,null,html-keyboard-response,51,271417,0.0-17.0-0.2,SS1618006292839,NA,NA,null,NA,NA,NA,NA,NA,"<p><img src= images/blank.png width =""600"" height = ""600"" style=""position:fixed;top:50%; left:50%; transform: translate(-50%, -50%); border:5px solid black"">",NA,NA,NA,NA,NA,NA,NA,NA
NA,3773,sequential-stimulus-presentation-old,52,275694,0.0-17.0-1.2,SS1618006292839,trial,NA,40,500,4273,images/stimuli/spore_stims/complex_11_A_a.gif,images/stimuli/spore_stims/complex_05_A_b.gif,self_paced,NA,4,complex_dissimilar,images/stimuli/spore_stims/complex_11_A_a.gif,NA,NA,NA,NA,NA
NA,null,html-keyboard-response,53,276726,0.0-17.0-0.3,SS1618006292839,NA,NA,null,NA,NA,NA,NA,NA,"<p><img src= images/blank.png width =""600"" height = ""600"" style=""position:fixed;top:50%; left:50%; transform: translate(-50%, -50%); border:5px solid black"">",NA,NA,NA,NA,NA,NA,NA,NA
NA,3327,sequential-stimulus-presentation-old,54,280558,0.0-17.0-1.3,SS1618006292839,trial,NA,40,500,3827,images/stimuli/spore_stims/complex_11_A_a.gif,images/stimuli/spore_stims/complex_05_A_b.gif,self_paced,NA,4,complex_dissimilar,images/stimuli/spore_stims/complex_05_A_b.gif,NA,NA,NA,NA,NA
NA,null,html-keyboard-response,55,281656,0.0-17.0-0.4,SS1618006292839,NA,NA,null,NA,NA,NA,NA,NA,"<p><img src= images/blank.png width =""600"" height = ""600"" style=""position:fixed;top:50%; left:50%; transform: translate(-50%, -50%); border:5px solid black"">",NA,NA,NA,NA,NA,NA,NA,NA
NA,8334,sequential-stimulus-presentation-old,56,290493,0.0-17.0-1.4,SS1618006292839,trial,NA,40,500,8834,images/stimuli/spore_stims/complex_11_A_a.gif,images/stimuli/spore_stims/complex_05_A_b.gif,self_paced,NA,4,complex_dissimilar,images/stimuli/spore_stims/complex_05_A_b.gif,NA,NA,NA,NA,NA
NA,2959.000000000058,survey-multi-choice,57,293456,0.0-18.0,SS1618006292839,math_question,NA,NA,NA,NA,NA,NA,NA,NA,NA,NA,NA,"{""Q0"":""5""}",[0],5,NA,NA
NA,null,html-keyboard-response,58,294297,0.0-19.0-0.0,SS1618006292839,NA,NA,null,NA,NA,NA,NA,NA,"<p><img src= images/blank.png width =""600"" height = ""600"" style=""position:fixed;top:50%; left:50%; transform: translate(-50%, -50%); border:5px solid black"">",NA,NA,NA,NA,NA,NA,NA,NA
NA,5102,sequential-stimulus-presentation-old,59,299902,0.0-19.0-1.0,SS1618006292839,trial,NA,40,500,5602,images/stimuli/spore_stims/simple_07_A_b.gif,images/stimuli/spore_stims/simple_05_A_a.gif,self_paced,NA,5,simple_dissimilar,images/stimuli/spore_stims/simple_05_A_a.gif,NA,NA,NA,NA,NA
NA,null,html-keyboard-response,60,300818,0.0-19.0-0.1,SS1618006292839,NA,NA,null,NA,NA,NA,NA,NA,"<p><img src= images/blank.png width =""600"" height = ""600"" style=""position:fixed;top:50%; left:50%; transform: translate(-50%, -50%); border:5px solid black"">",NA,NA,NA,NA,NA,NA,NA,NA
NA,1956,sequential-stimulus-presentation-old,61,303277,0.0-19.0-1.1,SS1618006292839,trial,NA,40,500,2456,images/stimuli/spore_stims/simple_07_A_b.gif,images/stimuli/spore_stims/simple_05_A_a.gif,self_paced,NA,5,simple_dissimilar,images/stimuli/spore_stims/simple_05_A_a.gif,NA,NA,NA,NA,NA
NA,null,html-keyboard-response,62,304211,0.0-19.0-0.2,SS1618006292839,NA,NA,null,NA,NA,NA,NA,NA,"<p><img src= images/blank.png width =""600"" height = ""600"" style=""position:fixed;top:50%; left:50%; transform: translate(-50%, -50%); border:5px solid black"">",NA,NA,NA,NA,NA,NA,NA,NA
NA,2155,sequential-stimulus-presentation-old,63,306870,0.0-19.0-1.2,SS1618006292839,trial,NA,40,500,2655,images/stimuli/spore_stims/simple_07_A_b.gif,images/stimuli/spore_stims/simple_05_A_a.gif,self_paced,NA,5,simple_dissimilar,images/stimuli/spore_stims/simple_05_A_a.gif,NA,NA,NA,NA,NA
NA,null,html-keyboard-response,64,307887,0.0-19.0-0.3,SS1618006292839,NA,NA,null,NA,NA,NA,NA,NA,"<p><img src= images/blank.png width =""600"" height = ""600"" style=""position:fixed;top:50%; left:50%; transform: translate(-50%, -50%); border:5px solid black"">",NA,NA,NA,NA,NA,NA,NA,NA
NA,1802,sequential-stimulus-presentation-old,65,310193,0.0-19.0-1.3,SS1618006292839,trial,NA,40,500,2302,images/stimuli/spore_stims/simple_07_A_b.gif,images/stimuli/spore_stims/simple_05_A_a.gif,self_paced,NA,5,simple_dissimilar,images/stimuli/spore_stims/simple_05_A_a.gif,NA,NA,NA,NA,NA
NA,null,html-keyboard-response,66,311075,0.0-19.0-0.4,SS1618006292839,NA,NA,null,NA,NA,NA,NA,NA,"<p><img src= images/blank.png width =""600"" height = ""600"" style=""position:fixed;top:50%; left:50%; transform: translate(-50%, -50%); border:5px solid black"">",NA,NA,NA,NA,NA,NA,NA,NA
NA,2142,sequential-stimulus-presentation-old,67,313722,0.0-19.0-1.4,SS1618006292839,trial,NA,40,500,2642,images/stimuli/spore_stims/simple_07_A_b.gif,images/stimuli/spore_stims/simple_05_A_a.gif,self_paced,NA,5,simple_dissimilar,images/stimuli/spore_stims/simple_05_A_a.gif,NA,NA,NA,NA,NA
NA,null,html-keyboard-response,68,314607,0.0-19.0-0.5,SS1618006292839,NA,NA,null,NA,NA,NA,NA,NA,"<p><img src= images/blank.png width =""600"" height = ""600"" style=""position:fixed;top:50%; left:50%; transform: translate(-50%, -50%); border:5px solid black"">",NA,NA,NA,NA,NA,NA,NA,NA
NA,1637,sequential-stimulus-presentation-old,69,316748,0.0-19.0-1.5,SS1618006292839,trial,NA,40,500,2137,images/stimuli/spore_stims/simple_07_A_b.gif,images/stimuli/spore_stims/simple_05_A_a.gif,self_paced,NA,5,simple_dissimilar,images/stimuli/spore_stims/simple_05_A_a.gif,NA,NA,NA,NA,NA
NA,5770,survey-multi-choice,70,322522,0.0-20.0,SS1618006292839,math_question,NA,NA,NA,NA,NA,NA,NA,NA,NA,NA,NA,"{""Q0"":""14""}",[0],14,NA,NA
NA,null,html-keyboard-response,71,323578,0.0-21.0-0.0,SS1618006292839,NA,NA,null,NA,NA,NA,NA,NA,"<p><img src= images/blank.png width =""600"" height = ""600"" style=""position:fixed;top:50%; left:50%; transform: translate(-50%, -50%); border:5px solid black"">",NA,NA,NA,NA,NA,NA,NA,NA
NA,2375,sequential-stimulus-presentation-old,72,326458,0.0-21.0-1.0,SS1618006292839,trial,NA,40,500,2875,images/stimuli/spore_stims/simple_13_A_b.gif,images/stimuli/spore_stims/simple_15_A_a.gif,self_paced,NA,6,simple_dissimilar,images/stimuli/spore_stims/simple_15_A_a.gif,NA,NA,NA,NA,NA
NA,null,html-keyboard-response,73,327493,0.0-21.0-0.1,SS1618006292839,NA,NA,null,NA,NA,NA,NA,NA,"<p><img src= images/blank.png width =""600"" height = ""600"" style=""position:fixed;top:50%; left:50%; transform: translate(-50%, -50%); border:5px solid black"">",NA,NA,NA,NA,NA,NA,NA,NA
NA,2069,sequential-stimulus-presentation-old,74,330067,0.0-21.0-1.1,SS1618006292839,trial,NA,40,500,2569,images/stimuli/spore_stims/simple_13_A_b.gif,images/stimuli/spore_stims/simple_15_A_a.gif,self_paced,NA,6,simple_dissimilar,images/stimuli/spore_stims/simple_15_A_a.gif,NA,NA,NA,NA,NA
NA,null,html-keyboard-response,75,331073,0.0-21.0-0.2,SS1618006292839,NA,NA,null,NA,NA,NA,NA,NA,"<p><img src= images/blank.png width =""600"" height = ""600"" style=""position:fixed;top:50%; left:50%; transform: translate(-50%, -50%); border:5px solid black"">",NA,NA,NA,NA,NA,NA,NA,NA
NA,2193,sequential-stimulus-presentation-old,76,333770,0.0-21.0-1.2,SS1618006292839,trial,NA,40,500,2693,images/stimuli/spore_stims/simple_13_A_b.gif,images/stimuli/spore_stims/simple_15_A_a.gif,self_paced,NA,6,simple_dissimilar,images/stimuli/spore_stims/simple_15_A_a.gif,NA,NA,NA,NA,NA
NA,null,html-keyboard-response,77,334968,0.0-21.0-0.3,SS1618006292839,NA,NA,null,NA,NA,NA,NA,NA,"<p><img src= images/blank.png width =""600"" height = ""600"" style=""position:fixed;top:50%; left:50%; transform: translate(-50%, -50%); border:5px solid black"">",NA,NA,NA,NA,NA,NA,NA,NA
NA,2282,sequential-stimulus-presentation-old,78,337756,0.0-21.0-1.3,SS1618006292839,trial,NA,40,500,2782,images/stimuli/spore_stims/simple_13_A_b.gif,images/stimuli/spore_stims/simple_15_A_a.gif,self_paced,NA,6,simple_dissimilar,images/stimuli/spore_stims/simple_15_A_a.gif,NA,NA,NA,NA,NA
NA,null,html-keyboard-response,79,338797,0.0-21.0-0.4,SS1618006292839,NA,NA,null,NA,NA,NA,NA,NA,"<p><img src= images/blank.png width =""600"" height = ""600"" style=""position:fixed;top:50%; left:50%; transform: translate(-50%, -50%); border:5px solid black"">",NA,NA,NA,NA,NA,NA,NA,NA
NA,2255,sequential-stimulus-presentation-old,80,341557,0.0-21.0-1.4,SS1618006292839,trial,NA,40,500,2755,images/stimuli/spore_stims/simple_13_A_b.gif,images/stimuli/spore_stims/simple_15_A_a.gif,self_paced,NA,6,simple_dissimilar,images/stimuli/spore_stims/simple_15_A_a.gif,NA,NA,NA,NA,NA
NA,3232,survey-multi-choice,81,344792,0.0-22.0,SS1618006292839,math_question,NA,NA,NA,NA,NA,NA,NA,NA,NA,NA,NA,"{""Q0"":""12""}",[0],12,NA,NA
NA,null,html-keyboard-response,82,345925,0.0-23.0-0.0,SS1618006292839,NA,NA,null,NA,NA,NA,NA,NA,"<p><img src= images/blank.png width =""600"" height = ""600"" style=""position:fixed;top:50%; left:50%; transform: translate(-50%, -50%); border:5px solid black"">",NA,NA,NA,NA,NA,NA,NA,NA
NA,4957,sequential-stimulus-presentation-old,83,350936,0.0-23.0-1.0,SS1618006292839,trial,NA,40,500,5457,images/stimuli/spore_stims/complex_20_A_a.gif,images/stimuli/spore_stims/complex_04_A_b.gif,forced_short,NA,7,complex_dissimilar,images/stimuli/spore_stims/complex_04_A_b.gif,NA,NA,NA,NA,NA
NA,null,html-keyboard-response,84,351947,0.0-23.0-0.1,SS1618006292839,NA,NA,null,NA,NA,NA,NA,NA,"<p><img src= images/blank.png width =""600"" height = ""600"" style=""position:fixed;top:50%; left:50%; transform: translate(-50%, -50%); border:5px solid black"">",NA,NA,NA,NA,NA,NA,NA,NA
NA,3429,sequential-stimulus-presentation-old,85,355881,0.0-23.0-1.1,SS1618006292839,trial,NA,40,500,3929,images/stimuli/spore_stims/complex_20_A_a.gif,images/stimuli/spore_stims/complex_04_A_b.gif,forced_short,NA,7,complex_dissimilar,images/stimuli/spore_stims/complex_04_A_b.gif,NA,NA,NA,NA,NA
NA,null,html-keyboard-response,86,356724,0.0-23.0-0.2,SS1618006292839,NA,NA,null,NA,NA,NA,NA,NA,"<p><img src= images/blank.png width =""600"" height = ""600"" style=""position:fixed;top:50%; left:50%; transform: translate(-50%, -50%); border:5px solid black"">",NA,NA,NA,NA,NA,NA,NA,NA
NA,5042,sequential-stimulus-presentation-old,87,362271,0.0-23.0-1.2,SS1618006292839,trial,NA,40,500,5542,images/stimuli/spore_stims/complex_20_A_a.gif,images/stimuli/spore_stims/complex_04_A_b.gif,forced_short,NA,7,complex_dissimilar,images/stimuli/spore_stims/complex_20_A_a.gif,NA,NA,NA,NA,NA
NA,null,html-keyboard-response,88,363489,0.0-23.0-0.3,SS1618006292839,NA,NA,null,NA,NA,NA,NA,NA,"<p><img src= images/blank.png width =""600"" height = ""600"" style=""position:fixed;top:50%; left:50%; transform: translate(-50%, -50%); border:5px solid black"">",NA,NA,NA,NA,NA,NA,NA,NA
NA,2531,sequential-stimulus-presentation-old,89,366525,0.0-23.0-1.3,SS1618006292839,trial,NA,40,500,3031,images/stimuli/spore_stims/complex_20_A_a.gif,images/stimuli/spore_stims/complex_04_A_b.gif,forced_short,NA,7,complex_dissimilar,images/stimuli/spore_stims/complex_04_A_b.gif,NA,NA,NA,NA,NA
NA,3065,survey-multi-choice,90,369593,0.0-24.0,SS1618006292839,math_question,NA,NA,NA,NA,NA,NA,NA,NA,NA,NA,NA,"{""Q0"":""8""}",[0],8,NA,NA
NA,null,html-keyboard-response,91,370867,0.0-25.0-0.0,SS1618006292839,NA,NA,null,NA,NA,NA,NA,NA,"<p><img src= images/blank.png width =""600"" height = ""600"" style=""position:fixed;top:50%; left:50%; transform: translate(-50%, -50%); border:5px solid black"">",NA,NA,NA,NA,NA,NA,NA,NA
NA,2835.000000000058,sequential-stimulus-presentation-old,92,374206,0.0-25.0-1.0,SS1618006292839,trial,NA,40,500,3335.000000000058,images/stimuli/spore_stims/complex_19_A_b.gif,images/stimuli/spore_stims/complex_15_A_a.gif,self_paced,NA,8,complex_dissimilar,images/stimuli/spore_stims/complex_15_A_a.gif,NA,NA,NA,NA,NA
NA,null,html-keyboard-response,93,375446,0.0-25.0-0.1,SS1618006292839,NA,NA,null,NA,NA,NA,NA,NA,"<p><img src= images/blank.png width =""600"" height = ""600"" style=""position:fixed;top:50%; left:50%; transform: translate(-50%, -50%); border:5px solid black"">",NA,NA,NA,NA,NA,NA,NA,NA
NA,1892,sequential-stimulus-presentation-old,94,377843,0.0-25.0-1.1,SS1618006292839,trial,NA,40,500,2392,images/stimuli/spore_stims/complex_19_A_b.gif,images/stimuli/spore_stims/complex_15_A_a.gif,self_paced,NA,8,complex_dissimilar,images/stimuli/spore_stims/complex_15_A_a.gif,NA,NA,NA,NA,NA
NA,null,html-keyboard-response,95,378902,0.0-25.0-0.2,SS1618006292839,NA,NA,null,NA,NA,NA,NA,NA,"<p><img src= images/blank.png width =""600"" height = ""600"" style=""position:fixed;top:50%; left:50%; transform: translate(-50%, -50%); border:5px solid black"">",NA,NA,NA,NA,NA,NA,NA,NA
NA,2024,sequential-stimulus-presentation-old,96,381432,0.0-25.0-1.2,SS1618006292839,trial,NA,40,500,2524,images/stimuli/spore_stims/complex_19_A_b.gif,images/stimuli/spore_stims/complex_15_A_a.gif,self_paced,NA,8,complex_dissimilar,images/stimuli/spore_stims/complex_15_A_a.gif,NA,NA,NA,NA,NA
NA,null,html-keyboard-response,97,382699,0.0-25.0-0.3,SS1618006292839,NA,NA,null,NA,NA,NA,NA,NA,"<p><img src= images/blank.png width =""600"" height = ""600"" style=""position:fixed;top:50%; left:50%; transform: translate(-50%, -50%); border:5px solid black"">",NA,NA,NA,NA,NA,NA,NA,NA
NA,1973,sequential-stimulus-presentation-old,98,385176,0.0-25.0-1.3,SS1618006292839,trial,NA,40,500,2473,images/stimuli/spore_stims/complex_19_A_b.gif,images/stimuli/spore_stims/complex_15_A_a.gif,self_paced,NA,8,complex_dissimilar,images/stimuli/spore_stims/complex_15_A_a.gif,NA,NA,NA,NA,NA
NA,3086.000000000058,survey-multi-choice,99,388266,0.0-26.0,SS1618006292839,math_question,NA,NA,NA,NA,NA,NA,NA,NA,NA,NA,NA,"{""Q0"":""10""}",[0],10,NA,NA
NA,null,html-keyboard-response,100,389297,0.0-27.0-0.0,SS1618006292839,NA,NA,null,NA,NA,NA,NA,NA,"<p><img src= images/blank.png width =""600"" height = ""600"" style=""position:fixed;top:50%; left:50%; transform: translate(-50%, -50%); border:5px solid black"">",NA,NA,NA,NA,NA,NA,NA,NA
NA,720,sequential-stimulus-presentation-old,101,395021,0.0-27.0-1.0,SS1618006292839,trial,NA,40,500,1220,images/stimuli/spore_stims/complex_05_A_a.gif,images/stimuli/spore_stims/complex_01_A_b.gif,forced_long,NA,9,complex_dissimilar,images/stimuli/spore_stims/complex_01_A_b.gif,NA,NA,NA,NA,NA
NA,null,html-keyboard-response,102,396256,0.0-27.0-0.1,SS1618006292839,NA,NA,null,NA,NA,NA,NA,NA,"<p><img src= images/blank.png width =""600"" height = ""600"" style=""position:fixed;top:50%; left:50%; transform: translate(-50%, -50%); border:5px solid black"">",NA,NA,NA,NA,NA,NA,NA,NA
NA,2607.000000000058,sequential-stimulus-presentation-old,103,399367,0.0-27.0-1.1,SS1618006292839,trial,NA,40,500,3107.000000000058,images/stimuli/spore_stims/complex_05_A_a.gif,images/stimuli/spore_stims/complex_01_A_b.gif,forced_long,NA,9,complex_dissimilar,images/stimuli/spore_stims/complex_01_A_b.gif,NA,NA,NA,NA,NA
NA,null,html-keyboard-response,104,400567,0.0-27.0-0.2,SS1618006292839,NA,NA,null,NA,NA,NA,NA,NA,"<p><img src= images/blank.png width =""600"" height = ""600"" style=""position:fixed;top:50%; left:50%; transform: translate(-50%, -50%); border:5px solid black"">",NA,NA,NA,NA,NA,NA,NA,NA
NA,793,sequential-stimulus-presentation-old,105,401865,0.0-27.0-1.2,SS1618006292839,trial,NA,40,500,1293,images/stimuli/spore_stims/complex_05_A_a.gif,images/stimuli/spore_stims/complex_01_A_b.gif,forced_long,NA,9,complex_dissimilar,images/stimuli/spore_stims/complex_01_A_b.gif,NA,NA,NA,NA,NA
NA,null,html-keyboard-response,106,403075,0.0-27.0-0.3,SS1618006292839,NA,NA,null,NA,NA,NA,NA,NA,"<p><img src= images/blank.png width =""600"" height = ""600"" style=""position:fixed;top:50%; left:50%; transform: translate(-50%, -50%); border:5px solid black"">",NA,NA,NA,NA,NA,NA,NA,NA
NA,1510,sequential-stimulus-presentation-old,107,405090,0.0-27.0-1.3,SS1618006292839,trial,NA,40,500,2010,images/stimuli/spore_stims/complex_05_A_a.gif,images/stimuli/spore_stims/complex_01_A_b.gif,forced_long,NA,9,complex_dissimilar,images/stimuli/spore_stims/complex_01_A_b.gif,NA,NA,NA,NA,NA
NA,null,html-keyboard-response,108,406355,0.0-27.0-0.4,SS1618006292839,NA,NA,null,NA,NA,NA,NA,NA,"<p><img src= images/blank.png width =""600"" height = ""600"" style=""position:fixed;top:50%; left:50%; transform: translate(-50%, -50%); border:5px solid black"">",NA,NA,NA,NA,NA,NA,NA,NA
NA,2015,sequential-stimulus-presentation-old,109,408876,0.0-27.0-1.4,SS1618006292839,trial,NA,40,500,2515,images/stimuli/spore_stims/complex_05_A_a.gif,images/stimuli/spore_stims/complex_01_A_b.gif,forced_long,NA,9,complex_dissimilar,images/stimuli/spore_stims/complex_01_A_b.gif,NA,NA,NA,NA,NA
NA,3469,survey-multi-choice,110,412350,0.0-28.0,SS1618006292839,math_question,NA,NA,NA,NA,NA,NA,NA,NA,NA,NA,NA,"{""Q0"":""14""}",[0],14,NA,NA
NA,null,html-keyboard-response,111,413211,0.0-29.0-0.0,SS1618006292839,NA,NA,null,NA,NA,NA,NA,NA,"<p><img src= images/blank.png width =""600"" height = ""600"" style=""position:fixed;top:50%; left:50%; transform: translate(-50%, -50%); border:5px solid black"">",NA,NA,NA,NA,NA,NA,NA,NA
NA,1983,sequential-stimulus-presentation-old,112,415249,0.0-29.0-1.0,SS1618006292839,trial,NA,40,500,2483,images/stimuli/spore_stims/complex_11_A_b.gif,images/stimuli/spore_stims/complex_13_A_a.gif,forced_short,NA,10,complex_dissimilar,images/stimuli/spore_stims/complex_13_A_a.gif,NA,NA,NA,NA,NA
NA,null,html-keyboard-response,113,416397,0.0-29.0-0.1,SS1618006292839,NA,NA,null,NA,NA,NA,NA,NA,"<p><img src= images/blank.png width =""600"" height = ""600"" style=""position:fixed;top:50%; left:50%; transform: translate(-50%, -50%); border:5px solid black"">",NA,NA,NA,NA,NA,NA,NA,NA
NA,4024,sequential-stimulus-presentation-old,114,420926,0.0-29.0-1.1,SS1618006292839,trial,NA,40,500,4524,images/stimuli/spore_stims/complex_11_A_b.gif,images/stimuli/spore_stims/complex_13_A_a.gif,forced_short,NA,10,complex_dissimilar,images/stimuli/spore_stims/complex_13_A_a.gif,NA,NA,NA,NA,NA
NA,null,html-keyboard-response,115,422197,0.0-29.0-0.2,SS1618006292839,NA,NA,null,NA,NA,NA,NA,NA,"<p><img src= images/blank.png width =""600"" height = ""600"" style=""position:fixed;top:50%; left:50%; transform: translate(-50%, -50%); border:5px solid black"">",NA,NA,NA,NA,NA,NA,NA,NA
NA,2114,sequential-stimulus-presentation-old,116,424817,0.0-29.0-1.2,SS1618006292839,trial,NA,40,500,2614,images/stimuli/spore_stims/complex_11_A_b.gif,images/stimuli/spore_stims/complex_13_A_a.gif,forced_short,NA,10,complex_dissimilar,images/stimuli/spore_stims/complex_13_A_a.gif,NA,NA,NA,NA,NA
NA,null,html-keyboard-response,117,426042,0.0-29.0-0.3,SS1618006292839,NA,NA,null,NA,NA,NA,NA,NA,"<p><img src= images/blank.png width =""600"" height = ""600"" style=""position:fixed;top:50%; left:50%; transform: translate(-50%, -50%); border:5px solid black"">",NA,NA,NA,NA,NA,NA,NA,NA
NA,884.9999999999418,sequential-stimulus-presentation-old,118,427437,0.0-29.0-1.3,SS1618006292839,trial,NA,40,500,1384.9999999999418,images/stimuli/spore_stims/complex_11_A_b.gif,images/stimuli/spore_stims/complex_13_A_a.gif,forced_short,NA,10,complex_dissimilar,images/stimuli/spore_stims/complex_13_A_a.gif,NA,NA,NA,NA,NA
NA,null,html-keyboard-response,119,428712,0.0-29.0-0.4,SS1618006292839,NA,NA,null,NA,NA,NA,NA,NA,"<p><img src= images/blank.png width =""600"" height = ""600"" style=""position:fixed;top:50%; left:50%; transform: translate(-50%, -50%); border:5px solid black"">",NA,NA,NA,NA,NA,NA,NA,NA
NA,2475,sequential-stimulus-presentation-old,120,431692,0.0-29.0-1.4,SS1618006292839,trial,NA,40,500,2975,images/stimuli/spore_stims/complex_11_A_b.gif,images/stimuli/spore_stims/complex_13_A_a.gif,forced_short,NA,10,complex_dissimilar,images/stimuli/spore_stims/complex_13_A_a.gif,NA,NA,NA,NA,NA
NA,4936,survey-multi-choice,121,436634,0.0-30.0,SS1618006292839,math_question,NA,NA,NA,NA,NA,NA,NA,NA,NA,NA,NA,"{""Q0"":""16""}",[0],16,NA,NA
NA,null,html-keyboard-response,122,437704,0.0-31.0-0.0,SS1618006292839,NA,NA,null,NA,NA,NA,NA,NA,"<p><img src= images/blank.png width =""600"" height = ""600"" style=""position:fixed;top:50%; left:50%; transform: translate(-50%, -50%); border:5px solid black"">",NA,NA,NA,NA,NA,NA,NA,NA
NA,1095.0000000000582,sequential-stimulus-presentation-old,123,438855,0.0-31.0-1.0,SS1618006292839,trial,NA,40,500,1595.0000000000582,images/stimuli/spore_stims/simple_20_A_b.gif,images/stimuli/spore_stims/simple_13_A_a.gif,forced_short,NA,11,simple_dissimilar,images/stimuli/spore_stims/simple_13_A_a.gif,NA,NA,NA,NA,NA
NA,null,html-keyboard-response,124,439673,0.0-31.0-0.1,SS1618006292839,NA,NA,null,NA,NA,NA,NA,NA,"<p><img src= images/blank.png width =""600"" height = ""600"" style=""position:fixed;top:50%; left:50%; transform: translate(-50%, -50%); border:5px solid black"">",NA,NA,NA,NA,NA,NA,NA,NA
NA,2929,sequential-stimulus-presentation-old,125,443109,0.0-31.0-1.1,SS1618006292839,trial,NA,40,500,3429,images/stimuli/spore_stims/simple_20_A_b.gif,images/stimuli/spore_stims/simple_13_A_a.gif,forced_short,NA,11,simple_dissimilar,images/stimuli/spore_stims/simple_13_A_a.gif,NA,NA,NA,NA,NA
NA,null,html-keyboard-response,126,444327,0.0-31.0-0.2,SS1618006292839,NA,NA,null,NA,NA,NA,NA,NA,"<p><img src= images/blank.png width =""600"" height = ""600"" style=""position:fixed;top:50%; left:50%; transform: translate(-50%, -50%); border:5px solid black"">",NA,NA,NA,NA,NA,NA,NA,NA
NA,2360,sequential-stimulus-presentation-old,127,447192,0.0-31.0-1.2,SS1618006292839,trial,NA,40,500,2860,images/stimuli/spore_stims/simple_20_A_b.gif,images/stimuli/spore_stims/simple_13_A_a.gif,forced_short,NA,11,simple_dissimilar,images/stimuli/spore_stims/simple_20_A_b.gif,NA,NA,NA,NA,NA
NA,null,html-keyboard-response,128,448277,0.0-31.0-0.3,SS1618006292839,NA,NA,null,NA,NA,NA,NA,NA,"<p><img src= images/blank.png width =""600"" height = ""600"" style=""position:fixed;top:50%; left:50%; transform: translate(-50%, -50%); border:5px solid black"">",NA,NA,NA,NA,NA,NA,NA,NA
NA,1731,sequential-stimulus-presentation-old,129,450514,0.0-31.0-1.3,SS1618006292839,trial,NA,40,500,2231,images/stimuli/spore_stims/simple_20_A_b.gif,images/stimuli/spore_stims/simple_13_A_a.gif,forced_short,NA,11,simple_dissimilar,images/stimuli/spore_stims/simple_13_A_a.gif,NA,NA,NA,NA,NA
NA,null,html-keyboard-response,130,451797,0.0-31.0-0.4,SS1618006292839,NA,NA,null,NA,NA,NA,NA,NA,"<p><img src= images/blank.png width =""600"" height = ""600"" style=""position:fixed;top:50%; left:50%; transform: translate(-50%, -50%); border:5px solid black"">",NA,NA,NA,NA,NA,NA,NA,NA
NA,785.0000000000582,sequential-stimulus-presentation-old,131,453088,0.0-31.0-1.4,SS1618006292839,trial,NA,40,500,1285.0000000000582,images/stimuli/spore_stims/simple_20_A_b.gif,images/stimuli/spore_stims/simple_13_A_a.gif,forced_short,NA,11,simple_dissimilar,images/stimuli/spore_stims/simple_20_A_b.gif,NA,NA,NA,NA,NA
"[{""page_index"":0,""viewing_time"":6316}]",6316,instructions,132,459408,0.0-32.0,SS1618006292839,instructions,NA,NA,NA,NA,NA,NA,NA,NA,NA,NA,NA,NA,NA,NA,NA,NA
NA,18925,survey-likert,133,478337,0.0-33.0,SS1618006292839,similarity_question,NA,NA,NA,NA,NA,NA,NA,NA,NA,NA,NA,"{""Q0"":2}",[0],NA,images/stimuli/spore_stims/simple_05_A_a.gif,images/stimuli/spore_stims/simple_07_A_b.gif
NA,4601,survey-likert,134,482942,0.0-34.0,SS1618006292839,similarity_question,NA,NA,NA,NA,NA,NA,NA,NA,NA,NA,NA,"{""Q0"":4}",[0],NA,images/stimuli/spore_stims/simple_02_A_b.gif,images/stimuli/spore_stims/simple_11_A_a.gif
NA,10948,survey-likert,135,493894,0.0-35.0,SS1618006292839,similarity_question,NA,NA,NA,NA,NA,NA,NA,NA,NA,NA,NA,"{""Q0"":5}",[0],NA,images/stimuli/spore_stims/simple_13_A_b.gif,images/stimuli/spore_stims/simple_15_A_a.gif
NA,7748.999999999942,survey-likert,136,501647,0.0-36.0,SS1618006292839,similarity_question,NA,NA,NA,NA,NA,NA,NA,NA,NA,NA,NA,"{""Q0"":0}",[0],NA,images/stimuli/spore_stims/complex_05_A_b.gif,images/stimuli/spore_stims/complex_11_A_a.gif
NA,10293.000000000058,survey-likert,137,511944,0.0-37.0,SS1618006292839,similarity_question,NA,NA,NA,NA,NA,NA,NA,NA,NA,NA,NA,"{""Q0"":2}",[0],NA,images/stimuli/spore_stims/complex_04_A_b.gif,images/stimuli/spore_stims/complex_20_A_a.gif
NA,3622,survey-likert,138,515571,0.0-38.0,SS1618006292839,similarity_question,NA,NA,NA,NA,NA,NA,NA,NA,NA,NA,NA,"{""Q0"":5}",[0],NA,images/stimuli/spore_stims/simple_12_A_a.gif,images/stimuli/spore_stims/simple_06_A_b.gif
NA,4573,survey-likert,139,520148,0.0-39.0,SS1618006292839,similarity_question,NA,NA,NA,NA,NA,NA,NA,NA,NA,NA,NA,"{""Q0"":2}",[0],NA,images/stimuli/spore_stims/complex_11_A_b.gif,images/stimuli/spore_stims/complex_13_A_a.gif
NA,9420,survey-likert,140,529572,0.0-40.0,SS1618006292839,similarity_question,NA,NA,NA,NA,NA,NA,NA,NA,NA,NA,NA,"{""Q0"":3}",[0],NA,images/stimuli/spore_stims/simple_08_A_b.gif,images/stimuli/spore_stims/simple_04_A_a.gif
NA,7823,survey-likert,141,537399,0.0-41.0,SS1618006292839,similarity_question,NA,NA,NA,NA,NA,NA,NA,NA,NA,NA,NA,"{""Q0"":4}",[0],NA,images/stimuli/spore_stims/complex_01_A_b.gif,images/stimuli/spore_stims/complex_05_A_a.gif
NA,2961.9999999998836,survey-likert,142,540366,0.0-42.0,SS1618006292839,similarity_question,NA,NA,NA,NA,NA,NA,NA,NA,NA,NA,NA,"{""Q0"":1}",[0],NA,images/stimuli/spore_stims/complex_15_A_a.gif,images/stimuli/spore_stims/complex_19_A_b.gif
NA,4150,survey-likert,143,544520,0.0-43.0,SS1618006292839,similarity_question,NA,NA,NA,NA,NA,NA,NA,NA,NA,NA,NA,"{""Q0"":3}",[0],NA,images/stimuli/spore_stims/simple_20_A_b.gif,images/stimuli/spore_stims/simple_13_A_a.gif
NA,3970,survey-likert,144,548495,0.0-44.0,SS1618006292839,similarity_question,NA,NA,NA,NA,NA,NA,NA,NA,NA,NA,NA,"{""Q0"":0}",[0],NA,images/stimuli/spore_stims/complex_02_A_b.gif,images/stimuli/spore_stims/complex_04_A_a.gif
"[{""page_index"":0,""viewing_time"":4368}]",4368,instructions,145,552867,0.0-45.0,SS1618006292839,instructions,NA,NA,NA,NA,NA,NA,NA,NA,NA,NA,NA,NA,NA,NA,NA,NA
NA,2529,survey-likert,146,555400,0.0-46.0,SS1618006292839,NA,NA,NA,NA,NA,NA,NA,NA,images/stimuli/spore_stims/simple_20_A_b.gif,NA,NA,NA,"{""Q0"":0}",[0],NA,NA,NA
NA,2713.9999999998836,survey-likert,147,558118,0.0-47.0,SS1618006292839,NA,NA,NA,NA,NA,NA,NA,NA,images/stimuli/spore_stims/complex_01_A_b.gif,NA,NA,NA,"{""Q0"":5}",[0],NA,NA,NA
NA,2355,survey-likert,148,560476,0.0-48.0,SS1618006292839,NA,NA,NA,NA,NA,NA,NA,NA,images/stimuli/spore_stims/simple_04_A_a.gif,NA,NA,NA,"{""Q0"":0}",[0],NA,NA,NA
NA,2005,survey-likert,149,562484,0.0-49.0,SS1618006292839,NA,NA,NA,NA,NA,NA,NA,NA,images/stimuli/spore_stims/simple_12_A_a.gif,NA,NA,NA,"{""Q0"":0}",[0],NA,NA,NA
NA,1853,survey-likert,150,564342,0.0-50.0,SS1618006292839,NA,NA,NA,NA,NA,NA,NA,NA,images/stimuli/spore_stims/simple_11_A_a.gif,NA,NA,NA,"{""Q0"":0}",[0],NA,NA,NA
NA,2699,survey-likert,151,567045,0.0-51.0,SS1618006292839,NA,NA,NA,NA,NA,NA,NA,NA,images/stimuli/spore_stims/complex_15_A_a.gif,NA,NA,NA,"{""Q0"":6}",[0],NA,NA,NA
NA,3959,survey-likert,152,571007,0.0-52.0,SS1618006292839,NA,NA,NA,NA,NA,NA,NA,NA,images/stimuli/spore_stims/simple_15_A_a.gif,NA,NA,NA,"{""Q0"":1}",[0],NA,NA,NA
NA,3130,survey-likert,153,574142,0.0-53.0,SS1618006292839,NA,NA,NA,NA,NA,NA,NA,NA,images/stimuli/spore_stims/complex_13_A_a.gif,NA,NA,NA,"{""Q0"":6}",[0],NA,NA,NA
NA,2484,survey-likert,154,576631,0.0-54.0,SS1618006292839,NA,NA,NA,NA,NA,NA,NA,NA,images/stimuli/spore_stims/simple_07_A_b.gif,NA,NA,NA,"{""Q0"":0}",[0],NA,NA,NA
NA,3067,survey-likert,155,579703,0.0-55.0,SS1618006292839,NA,NA,NA,NA,NA,NA,NA,NA,images/stimuli/spore_stims/complex_11_A_a.gif,NA,NA,NA,"{""Q0"":5}",[0],NA,NA,NA
NA,1997,survey-likert,156,581705,0.0-56.0,SS1618006292839,NA,NA,NA,NA,NA,NA,NA,NA,images/stimuli/spore_stims/complex_04_A_b.gif,NA,NA,NA,"{""Q0"":5}",[0],NA,NA,NA
NA,5038,survey-likert,157,586751,0.0-57.0,SS1618006292839,NA,NA,NA,NA,NA,NA,NA,NA,images/stimuli/spore_stims/complex_02_A_b.gif,NA,NA,NA,"{""Q0"":4}",[0],NA,NA,NA
"[{""page_index"":0,""viewing_time"":1423}]",1423,instructions,158,588178,0.0-58.0,SS1618006292839,instructions,NA,NA,NA,NA,NA,NA,NA,NA,NA,NA,NA,NA,NA,NA,NA,NA
NA,2381,demog-age,159,590579,0.0-59.0,SS1618006292839,NA,NA,NA,NA,NA,NA,NA,NA,NA,NA,NA,NA,"{""age"":""22""}",NA,NA,NA,NA
NA,3742.0000000001164,demog-ethnic-US,160,594327,0.0-60.0,SS1618006292839,NA,NA,NA,NA,NA,NA,NA,NA,NA,NA,NA,NA,"{""ethnicity"":[""White""]}",[0],NA,NA,NA
NA,4725.000000000116,demog-gender-and-education,161,599058,0.0-61.0,SS1618006292839,NA,NA,NA,NA,NA,NA,NA,NA,NA,NA,NA,NA,"{""gender"":""Female"",""education"":""Bachelor's Degree""}","[0,1]",NA,NA,NA
NA,16934.000000000116,survey-text,162,616010,0.0-62.0,SS1618006292839,feedback,NA,NA,NA,NA,NA,NA,NA,NA,NA,NA,NA,"{""Q0"":""No issue at all.""}",NA,NA,NA,NA
"[{""page_index"":0,""viewing_time"":2286}]",2286,instructions,163,618300,0.0-63.0,SS1618006292839,instructions,NA,NA,NA,NA,NA,NA,NA,NA,NA,NA,NA,NA,NA,NA,NA,NA
"[{""page_index"":0,""viewing_time"":14173.025000025518}]",14174.984999932349,instructions,0,14177,0.0-0.0,SS1618006392203,NA,NA,NA,NA,NA,NA,NA,NA,NA,NA,NA,NA,NA,NA,NA,NA,NA
"[{""page_index"":0,""viewing_time"":19787.71499998402},{""page_index"":1,""viewing_time"":14687.97500000801}]",34476.02500009816,instructions,1,50657,0.0-1.0,SS1618006392203,instructions,NA,NA,NA,NA,NA,NA,NA,NA,NA,NA,NA,NA,NA,NA,NA,NA
NA,12221.445000031963,sequential-stimulus-presentation-old,2,63384,0.0-2.0,SS1618006392203,NA,NA,40,500,12721.445000031963,null,null,self_paced,NA,NA,NA,NA,NA,NA,NA,NA,NA
NA,11393.389999982901,sequential-stimulus-presentation-old,3,75293,0.0-3.0,SS1618006392203,NA,NA,40,500,11893.389999982901,null,null,self_paced,NA,NA,NA,NA,NA,NA,NA,NA,NA
"[{""page_index"":0,""viewing_time"":32654.52500001993}]",32654.835000052117,instructions,4,107949,0.0-4.0,SS1618006392203,instructions,NA,NA,NA,NA,NA,NA,NA,NA,NA,NA,NA,NA,NA,NA,NA,NA
NA,14776.60499990452,sequential-stimulus-presentation-old,5,127730,0.0-5.0,SS1618006392203,NA,NA,40,500,15276.60499990452,null,null,forced_long,NA,NA,NA,NA,NA,NA,NA,NA,NA
NA,9626.994999940507,sequential-stimulus-presentation-old,6,137411,0.0-6.0,SS1618006392203,NA,NA,40,50,9676.994999940507,null,null,forced_long,NA,NA,NA,NA,NA,NA,NA,NA,NA
"[{""page_index"":0,""viewing_time"":14069.52999997884}]",14069.784999941476,instructions,7,151482,0.0-7.0,SS1618006392203,instructions,NA,NA,NA,NA,NA,NA,NA,NA,NA,NA,NA,NA,NA,NA,NA,NA
"[{""page_index"":0,""viewing_time"":15877.854999969713},{""page_index"":1,""viewing_time"":28215.93499998562},{""page_index"":2,""viewing_time"":11459.4550000038},{""page_index"":3,""viewing_time"":3132.660000002943},{""page_index"":4,""viewing_time"":3179.869999992661}]",61866.25500000082,instructions,8,213350,0.0-8.0,SS1618006392203,instructions,NA,NA,NA,NA,NA,NA,NA,NA,NA,NA,NA,NA,NA,NA,NA,NA
NA,null,html-keyboard-response,9,214527,0.0-9.0-0.0,SS1618006392203,NA,NA,null,NA,NA,NA,NA,NA,"<p><img src= images/blank.png width =""600"" height = ""600"" style=""position:fixed;top:50%; left:50%; transform: translate(-50%, -50%); border:5px solid black"">",NA,NA,NA,NA,NA,NA,NA,NA
NA,2072.0049999654293,sequential-stimulus-presentation-old,10,221604,0.0-9.0-1.0,SS1618006392203,trial,NA,40,500,2572.0049999654293,images/stimuli/spore_stims/simple_09_A_b.gif,images/stimuli/spore_stims/simple_14_A_a.gif,forced_long,NA,0,simple_dissimilar,images/stimuli/spore_stims/simple_14_A_a.gif,NA,NA,NA,NA,NA
NA,null,html-keyboard-response,11,222852,0.0-9.0-0.1,SS1618006392203,NA,NA,null,NA,NA,NA,NA,NA,"<p><img src= images/blank.png width =""600"" height = ""600"" style=""position:fixed;top:50%; left:50%; transform: translate(-50%, -50%); border:5px solid black"">",NA,NA,NA,NA,NA,NA,NA,NA
NA,20287.955000065267,sequential-stimulus-presentation-old,12,243644,0.0-9.0-1.1,SS1618006392203,trial,NA,40,500,20787.955000065267,images/stimuli/spore_stims/simple_09_A_b.gif,images/stimuli/spore_stims/simple_14_A_a.gif,forced_long,NA,0,simple_dissimilar,images/stimuli/spore_stims/simple_14_A_a.gif,NA,NA,NA,NA,NA
NA,null,html-keyboard-response,13,244848,0.0-9.0-0.2,SS1618006392203,NA,NA,null,NA,NA,NA,NA,NA,"<p><img src= images/blank.png width =""600"" height = ""600"" style=""position:fixed;top:50%; left:50%; transform: translate(-50%, -50%); border:5px solid black"">",NA,NA,NA,NA,NA,NA,NA,NA
NA,5983.175000059418,sequential-stimulus-presentation-old,14,251336,0.0-9.0-1.2,SS1618006392203,trial,NA,40,500,6483.175000059418,images/stimuli/spore_stims/simple_09_A_b.gif,images/stimuli/spore_stims/simple_14_A_a.gif,forced_long,NA,0,simple_dissimilar,images/stimuli/spore_stims/simple_14_A_a.gif,NA,NA,NA,NA,NA
NA,null,html-keyboard-response,15,252277,0.0-9.0-0.3,SS1618006392203,NA,NA,null,NA,NA,NA,NA,NA,"<p><img src= images/blank.png width =""600"" height = ""600"" style=""position:fixed;top:50%; left:50%; transform: translate(-50%, -50%); border:5px solid black"">",NA,NA,NA,NA,NA,NA,NA,NA
NA,8610.469999955967,sequential-stimulus-presentation-old,16,261391,0.0-9.0-1.3,SS1618006392203,trial,NA,40,500,9110.469999955967,images/stimuli/spore_stims/simple_09_A_b.gif,images/stimuli/spore_stims/simple_14_A_a.gif,forced_long,NA,0,simple_dissimilar,images/stimuli/spore_stims/simple_14_A_a.gif,NA,NA,NA,NA,NA
NA,null,html-keyboard-response,17,262558,0.0-9.0-0.4,SS1618006392203,NA,NA,null,NA,NA,NA,NA,NA,"<p><img src= images/blank.png width =""600"" height = ""600"" style=""position:fixed;top:50%; left:50%; transform: translate(-50%, -50%); border:5px solid black"">",NA,NA,NA,NA,NA,NA,NA,NA
NA,7415.8949999837205,sequential-stimulus-presentation-old,18,270479,0.0-9.0-1.4,SS1618006392203,trial,NA,40,500,7915.8949999837205,images/stimuli/spore_stims/simple_09_A_b.gif,images/stimuli/spore_stims/simple_14_A_a.gif,forced_long,NA,0,simple_dissimilar,images/stimuli/spore_stims/simple_14_A_a.gif,NA,NA,NA,NA,NA
NA,null,html-keyboard-response,19,271733,0.0-9.0-0.5,SS1618006392203,NA,NA,null,NA,NA,NA,NA,NA,"<p><img src= images/blank.png width =""600"" height = ""600"" style=""position:fixed;top:50%; left:50%; transform: translate(-50%, -50%); border:5px solid black"">",NA,NA,NA,NA,NA,NA,NA,NA
NA,17328.26500001829,sequential-stimulus-presentation-old,20,289566,0.0-9.0-1.5,SS1618006392203,trial,NA,40,500,17828.26500001829,images/stimuli/spore_stims/simple_09_A_b.gif,images/stimuli/spore_stims/simple_14_A_a.gif,forced_long,NA,0,simple_dissimilar,images/stimuli/spore_stims/simple_14_A_a.gif,NA,NA,NA,NA,NA
NA,6675.805000006221,survey-multi-choice,21,296247,0.0-10.0,SS1618006392203,math_question,NA,NA,NA,NA,NA,NA,NA,NA,NA,NA,NA,"{""Q0"":""17""}",[0],17,NA,NA
NA,null,html-keyboard-response,22,297514,0.0-11.0-0.0,SS1618006392203,NA,NA,null,NA,NA,NA,NA,NA,"<p><img src= images/blank.png width =""600"" height = ""600"" style=""position:fixed;top:50%; left:50%; transform: translate(-50%, -50%); border:5px solid black"">",NA,NA,NA,NA,NA,NA,NA,NA
NA,4322.620000108145,sequential-stimulus-presentation-old,23,301903,0.0-11.0-1.0,SS1618006392203,trial,NA,40,500,4822.620000108145,images/stimuli/spore_stims/simple_15_A_a.gif,images/stimuli/spore_stims/simple_07_A_b.gif,forced_short,NA,1,simple_dissimilar,images/stimuli/spore_stims/simple_07_A_b.gif,NA,NA,NA,NA,NA
NA,null,html-keyboard-response,24,302992,0.0-11.0-0.1,SS1618006392203,NA,NA,null,NA,NA,NA,NA,NA,"<p><img src= images/blank.png width =""600"" height = ""600"" style=""position:fixed;top:50%; left:50%; transform: translate(-50%, -50%); border:5px solid black"">",NA,NA,NA,NA,NA,NA,NA,NA
NA,14093.460000003688,sequential-stimulus-presentation-old,25,317591,0.0-11.0-1.1,SS1618006392203,trial,NA,40,500,14593.460000003688,images/stimuli/spore_stims/simple_15_A_a.gif,images/stimuli/spore_stims/simple_07_A_b.gif,forced_short,NA,1,simple_dissimilar,images/stimuli/spore_stims/simple_07_A_b.gif,NA,NA,NA,NA,NA
NA,null,html-keyboard-response,26,318569,0.0-11.0-0.2,SS1618006392203,NA,NA,null,NA,NA,NA,NA,NA,"<p><img src= images/blank.png width =""600"" height = ""600"" style=""position:fixed;top:50%; left:50%; transform: translate(-50%, -50%); border:5px solid black"">",NA,NA,NA,NA,NA,NA,NA,NA
NA,13787.755000055768,sequential-stimulus-presentation-old,27,332873,0.0-11.0-1.2,SS1618006392203,trial,NA,40,500,14287.755000055768,images/stimuli/spore_stims/simple_15_A_a.gif,images/stimuli/spore_stims/simple_07_A_b.gif,forced_short,NA,1,simple_dissimilar,images/stimuli/spore_stims/simple_07_A_b.gif,NA,NA,NA,NA,NA
