view_history,rt,trial_type,trial_index,time_elapsed,internal_node_id,subject,stimulus_type,trial_stimulus,key_press,minimum_viewing_duration,trial_looking_time,block_deviant,block_background,stimulus,wall_pref,location,location_percent,block_number,block_type,stimulus_displayed,position_displayed,stim_type_selected,responses,question_order,stimulus_left,stimulus_right
"[{""page_index"":0,""viewing_time"":26207.234999979846}]",26208.75499997055,instructions,0,26210,0.0-0.0,SS1613021720387,NA,NA,NA,NA,NA,NA,NA,NA,NA,NA,NA,NA,NA,NA,NA,NA,NA,NA,NA,NA
"[{""page_index"":0,""viewing_time"":959.2699999921024},{""page_index"":1,""viewing_time"":1130.3849999676459}]",2090.5449999845587,instructions,1,30306,0.0-1.0,SS1613021720387,instructions,NA,NA,NA,NA,NA,NA,NA,NA,NA,NA,NA,NA,NA,NA,NA,NA,NA,NA,NA
NA,786.6999999969266,sequential-stimulus-presentation,2,31905,0.0-2.0,SS1613021720387,NA,NA,40,800,1586.6999999969266,null,null,NA,NA,NA,NA,NA,NA,NA,NA,NA,NA,NA,NA,NA
NA,116.07500002719462,sequential-stimulus-presentation,3,32828,0.0-3.0,SS1613021720387,NA,NA,40,800,916.0750000271946,null,null,NA,NA,NA,NA,NA,NA,NA,NA,NA,NA,NA,NA,NA
"[{""page_index"":0,""viewing_time"":2246.770000027027}]",2247.350000019651,instructions,4,35077,0.0-4.0,SS1613021720387,instructions,NA,NA,NA,NA,NA,NA,NA,NA,NA,NA,NA,NA,NA,NA,NA,NA,NA,NA,NA
NA,2596.8799999682233,html-keyboard-response,5,37680,0.0-5.0,SS1613021720387,instructions,NA,49,NA,NA,NA,NA,<video width ='960' height = '540' autoplay muted><source src='images/stimuli/wall_pref.mp4' type='video/mp4'></video>,1,left,25%,NA,NA,NA,NA,NA,NA,NA,NA,NA
NA,935.6499999994412,sequential-stimulus-presentation,6,39423,0.0-6.0,SS1613021720387,pref_reveal,NA,40,800,1735.6499999994412,null,null,NA,NA,NA,NA,NA,NA,NA,NA,NA,NA,NA,NA,NA
"[{""page_index"":0,""viewing_time"":2338.644999952521},{""page_index"":1,""viewing_time"":664.0750000369735},{""page_index"":2,""viewing_time"":832.0250000106171},{""page_index"":3,""viewing_time"":2168.2900000014342}]",6003.644999989774,instructions,7,45429,0.0-7.0,SS1613021720387,instructions,NA,NA,NA,NA,NA,NA,NA,NA,NA,NA,NA,NA,NA,NA,NA,NA,NA,NA,NA
NA,null,html-keyboard-response,8,46425,0.0-8.0-0.0,SS1613021720387,NA,NA,null,NA,NA,NA,NA,"<p><img src= images/blank.png width =""200"" height = ""200"" style = ""float:right""></p><p><img src=images/blank.png width =""800"" height = ""200""></p>",NA,NA,NA,NA,NA,NA,NA,NA,NA,NA,NA,NA
NA,461.26499999081716,sequential-stimulus-presentation,9,47697,0.0-8.0-1.0,SS1613021720387,trial,NA,40,800,1261.2649999908172,images/stimuli/spore_stims/simple_15_A_b.gif,images/stimuli/spore_stims/simple_15_B_b.gif,NA,NA,NA,NA,0,simple_similar,images/stimuli/spore_stims/simple_15_B_b.gif,right,NA,NA,NA,NA,NA
NA,null,html-keyboard-response,10,48665,0.0-8.0-0.1,SS1613021720387,NA,NA,null,NA,NA,NA,NA,"<p><img src= images/blank.png width =""200"" height = ""200"" style = ""float:right""></p><p><img src=images/blank.png width =""800"" height = ""200""></p>",NA,NA,NA,NA,NA,NA,NA,NA,NA,NA,NA,NA
NA,470.62500001629815,sequential-stimulus-presentation,11,49944,0.0-8.0-1.1,SS1613021720387,trial,NA,40,800,1270.6250000162981,images/stimuli/spore_stims/simple_15_A_b.gif,images/stimuli/spore_stims/simple_15_B_b.gif,NA,NA,NA,NA,0,simple_similar,images/stimuli/spore_stims/simple_15_B_b.gif,right,NA,NA,NA,NA,NA
NA,null,html-keyboard-response,12,50839,0.0-8.0-0.2,SS1613021720387,NA,NA,null,NA,NA,NA,NA,"<p><img src= images/blank.png width =""200"" height = ""200"" style = ""float:right""></p><p><img src=images/blank.png width =""800"" height = ""200""></p>",NA,NA,NA,NA,NA,NA,NA,NA,NA,NA,NA,NA
NA,62997.74000002071,sequential-stimulus-presentation,13,114649,0.0-8.0-1.2,SS1613021720387,trial,NA,40,800,63797.74000002071,images/stimuli/spore_stims/simple_15_A_b.gif,images/stimuli/spore_stims/simple_15_B_b.gif,NA,NA,NA,NA,0,simple_similar,images/stimuli/spore_stims/simple_15_A_b.gif,left,NA,NA,NA,NA,NA
NA,null,html-keyboard-response,14,115514,0.0-8.0-0.3,SS1613021720387,NA,NA,null,NA,NA,NA,NA,"<p><img src= images/blank.png width =""200"" height = ""200"" style = ""float:right""></p><p><img src=images/blank.png width =""800"" height = ""200""></p>",NA,NA,NA,NA,NA,NA,NA,NA,NA,NA,NA,NA
NA,509.93000000016764,sequential-stimulus-presentation,15,116833,0.0-8.0-1.3,SS1613021720387,trial,NA,40,800,1309.9300000001676,images/stimuli/spore_stims/simple_15_A_b.gif,images/stimuli/spore_stims/simple_15_B_b.gif,NA,NA,NA,NA,0,simple_similar,images/stimuli/spore_stims/simple_15_B_b.gif,right,NA,NA,NA,NA,NA
NA,null,html-keyboard-response,16,117808,0.0-8.0-0.4,SS1613021720387,NA,NA,null,NA,NA,NA,NA,"<p><img src= images/blank.png width =""200"" height = ""200"" style = ""float:right""></p><p><img src=images/blank.png width =""800"" height = ""200""></p>",NA,NA,NA,NA,NA,NA,NA,NA,NA,NA,NA,NA
NA,235.4250000207685,sequential-stimulus-presentation,17,118854,0.0-8.0-1.4,SS1613021720387,trial,NA,40,800,1035.4250000207685,images/stimuli/spore_stims/simple_15_A_b.gif,images/stimuli/spore_stims/simple_15_B_b.gif,NA,NA,NA,NA,0,simple_similar,images/stimuli/spore_stims/simple_15_B_b.gif,right,NA,NA,NA,NA,NA
NA,null,html-keyboard-response,18,119909,0.0-8.0-0.5,SS1613021720387,NA,NA,null,NA,NA,NA,NA,"<p><img src= images/blank.png width =""200"" height = ""200"" style = ""float:right""></p><p><img src=images/blank.png width =""800"" height = ""200""></p>",NA,NA,NA,NA,NA,NA,NA,NA,NA,NA,NA,NA
NA,735.0899999728426,sequential-stimulus-presentation,19,121450,0.0-8.0-1.5,SS1613021720387,trial,NA,40,800,1535.0899999728426,images/stimuli/spore_stims/simple_15_A_b.gif,images/stimuli/spore_stims/simple_15_B_b.gif,NA,NA,NA,NA,0,simple_similar,images/stimuli/spore_stims/simple_15_B_b.gif,right,NA,NA,NA,NA,NA
NA,null,html-keyboard-response,20,122701,0.0-8.0-0.6,SS1613021720387,NA,NA,null,NA,NA,NA,NA,"<p><img src= images/blank.png width =""200"" height = ""200"" style = ""float:right""></p><p><img src=images/blank.png width =""800"" height = ""200""></p>",NA,NA,NA,NA,NA,NA,NA,NA,NA,NA,NA,NA
NA,11121.525000024121,sequential-stimulus-presentation,21,134634,0.0-8.0-1.6,SS1613021720387,trial,NA,40,800,11921.525000024121,images/stimuli/spore_stims/simple_15_A_b.gif,images/stimuli/spore_stims/simple_15_B_b.gif,NA,NA,NA,NA,0,simple_similar,images/stimuli/spore_stims/simple_15_B_b.gif,right,NA,NA,NA,NA,NA
NA,null,html-keyboard-response,22,135544,0.0-8.0-0.7,SS1613021720387,NA,NA,null,NA,NA,NA,NA,"<p><img src= images/blank.png width =""200"" height = ""200"" style = ""float:right""></p><p><img src=images/blank.png width =""800"" height = ""200""></p>",NA,NA,NA,NA,NA,NA,NA,NA,NA,NA,NA,NA
NA,1344.814999960363,sequential-stimulus-presentation,23,137696,0.0-8.0-1.7,SS1613021720387,trial,NA,40,800,2144.814999960363,images/stimuli/spore_stims/simple_15_A_b.gif,images/stimuli/spore_stims/simple_15_B_b.gif,NA,NA,NA,NA,0,simple_similar,images/stimuli/spore_stims/simple_15_B_b.gif,right,NA,NA,NA,NA,NA
NA,1509.2799999983981,html-keyboard-response,24,139210,0.0-9.0,SS1613021720387,pref_question,NA,50,NA,NA,NA,NA,<video width ='960' height = '540' style='padding-top:8%' autoplay muted><source src='images/stimuli/wall_pref.mp4' type='video/mp4'></video>,2,middle,45%,0,NA,NA,NA,NA,NA,NA,NA,NA
NA,4161.625000007916,sequential-stimulus-presentation,25,144179,0.0-10.0,SS1613021720387,pref_reveal,NA,40,800,4961.625000007916,null,null,NA,NA,NA,NA,0,NA,NA,NA,novel,NA,NA,NA,NA
NA,null,html-keyboard-response,26,145359,0.0-11.0-0.0,SS1613021720387,NA,NA,null,NA,NA,NA,NA,"<p><img src= images/blank.png width =""200"" height = ""200"" style = ""float:right""></p><p><img src=images/blank.png width =""800"" height = ""200""></p>",NA,NA,NA,NA,NA,NA,NA,NA,NA,NA,NA,NA
NA,1287.9850000026636,sequential-stimulus-presentation,27,147469,0.0-11.0-1.0,SS1613021720387,trial,NA,40,800,2087.9850000026636,images/stimuli/spore_stims/simple_04_B_d.gif,images/stimuli/spore_stims/simple_10_B_b.gif,NA,NA,NA,NA,1,simple_dissimilar,images/stimuli/spore_stims/simple_10_B_b.gif,left,NA,NA,NA,NA,NA
NA,null,html-keyboard-response,28,148453,0.0-11.0-0.1,SS1613021720387,NA,NA,null,NA,NA,NA,NA,"<p><img src= images/blank.png width =""200"" height = ""200"" style = ""float:right""></p><p><img src=images/blank.png width =""800"" height = ""200""></p>",NA,NA,NA,NA,NA,NA,NA,NA,NA,NA,NA,NA
NA,1708.6399999679998,sequential-stimulus-presentation,29,150967,0.0-11.0-1.1,SS1613021720387,trial,NA,40,800,2508.6399999679998,images/stimuli/spore_stims/simple_04_B_d.gif,images/stimuli/spore_stims/simple_10_B_b.gif,NA,NA,NA,NA,1,simple_dissimilar,images/stimuli/spore_stims/simple_10_B_b.gif,left,NA,NA,NA,NA,NA
NA,null,html-keyboard-response,30,152240,0.0-11.0-0.2,SS1613021720387,NA,NA,null,NA,NA,NA,NA,"<p><img src= images/blank.png width =""200"" height = ""200"" style = ""float:right""></p><p><img src=images/blank.png width =""800"" height = ""200""></p>",NA,NA,NA,NA,NA,NA,NA,NA,NA,NA,NA,NA
NA,1897.0200000330806,sequential-stimulus-presentation,31,154944,0.0-11.0-1.2,SS1613021720387,trial,NA,40,800,2697.0200000330806,images/stimuli/spore_stims/simple_04_B_d.gif,images/stimuli/spore_stims/simple_10_B_b.gif,NA,NA,NA,NA,1,simple_dissimilar,images/stimuli/spore_stims/simple_10_B_b.gif,left,NA,NA,NA,NA,NA
NA,null,html-keyboard-response,32,155917,0.0-11.0-0.3,SS1613021720387,NA,NA,null,NA,NA,NA,NA,"<p><img src= images/blank.png width =""200"" height = ""200"" style = ""float:right""></p><p><img src=images/blank.png width =""800"" height = ""200""></p>",NA,NA,NA,NA,NA,NA,NA,NA,NA,NA,NA,NA
NA,4017.8650000016205,sequential-stimulus-presentation,33,160744,0.0-11.0-1.3,SS1613021720387,trial,NA,40,800,4817.8650000016205,images/stimuli/spore_stims/simple_04_B_d.gif,images/stimuli/spore_stims/simple_10_B_b.gif,NA,NA,NA,NA,1,simple_dissimilar,images/stimuli/spore_stims/simple_10_B_b.gif,left,NA,NA,NA,NA,NA
NA,null,html-keyboard-response,34,161948,0.0-11.0-0.4,SS1613021720387,NA,NA,null,NA,NA,NA,NA,"<p><img src= images/blank.png width =""200"" height = ""200"" style = ""float:right""></p><p><img src=images/blank.png width =""800"" height = ""200""></p>",NA,NA,NA,NA,NA,NA,NA,NA,NA,NA,NA,NA
NA,261.4099999773316,sequential-stimulus-presentation,35,163014,0.0-11.0-1.4,SS1613021720387,trial,NA,40,800,1061.4099999773316,images/stimuli/spore_stims/simple_04_B_d.gif,images/stimuli/spore_stims/simple_10_B_b.gif,NA,NA,NA,NA,1,simple_dissimilar,images/stimuli/spore_stims/simple_04_B_d.gif,right,NA,NA,NA,NA,NA
NA,null,html-keyboard-response,36,163839,0.0-11.0-0.5,SS1613021720387,NA,NA,null,NA,NA,NA,NA,"<p><img src= images/blank.png width =""200"" height = ""200"" style = ""float:right""></p><p><img src=images/blank.png width =""800"" height = ""200""></p>",NA,NA,NA,NA,NA,NA,NA,NA,NA,NA,NA,NA
NA,1012.6099999761209,sequential-stimulus-presentation,37,165657,0.0-11.0-1.5,SS1613021720387,trial,NA,40,800,1812.609999976121,images/stimuli/spore_stims/simple_04_B_d.gif,images/stimuli/spore_stims/simple_10_B_b.gif,NA,NA,NA,NA,1,simple_dissimilar,images/stimuli/spore_stims/simple_10_B_b.gif,left,NA,NA,NA,NA,NA
NA,null,html-keyboard-response,38,166567,0.0-11.0-0.6,SS1613021720387,NA,NA,null,NA,NA,NA,NA,"<p><img src= images/blank.png width =""200"" height = ""200"" style = ""float:right""></p><p><img src=images/blank.png width =""800"" height = ""200""></p>",NA,NA,NA,NA,NA,NA,NA,NA,NA,NA,NA,NA
NA,1459.6049999818206,sequential-stimulus-presentation,39,168832,0.0-11.0-1.6,SS1613021720387,trial,NA,40,800,2259.6049999818206,images/stimuli/spore_stims/simple_04_B_d.gif,images/stimuli/spore_stims/simple_10_B_b.gif,NA,NA,NA,NA,1,simple_dissimilar,images/stimuli/spore_stims/simple_10_B_b.gif,left,NA,NA,NA,NA,NA
NA,null,html-keyboard-response,40,169969,0.0-11.0-0.7,SS1613021720387,NA,NA,null,NA,NA,NA,NA,"<p><img src= images/blank.png width =""200"" height = ""200"" style = ""float:right""></p><p><img src=images/blank.png width =""800"" height = ""200""></p>",NA,NA,NA,NA,NA,NA,NA,NA,NA,NA,NA,NA
NA,398.13999994657934,sequential-stimulus-presentation,41,171178,0.0-11.0-1.7,SS1613021720387,trial,NA,40,800,1198.1399999465793,images/stimuli/spore_stims/simple_04_B_d.gif,images/stimuli/spore_stims/simple_10_B_b.gif,NA,NA,NA,NA,1,simple_dissimilar,images/stimuli/spore_stims/simple_10_B_b.gif,left,NA,NA,NA,NA,NA
NA,10711.19500003988,html-keyboard-response,42,181893,0.0-12.0,SS1613021720387,pref_question,NA,51,NA,NA,NA,NA,<video width ='960' height = '540' style='padding-top:8%' autoplay muted><source src='images/stimuli/wall_pref.mp4' type='video/mp4'></video>,3,right,66%,1,NA,NA,NA,NA,NA,NA,NA,NA
NA,1227.2449999582022,sequential-stimulus-presentation,43,183927,0.0-13.0,SS1613021720387,pref_reveal,NA,40,800,2027.2449999582022,null,null,NA,NA,NA,NA,1,NA,NA,NA,deviant,NA,NA,NA,NA
NA,null,html-keyboard-response,44,184759,0.0-14.0-0.0,SS1613021720387,NA,NA,null,NA,NA,NA,NA,"<p><img src= images/blank.png width =""200"" height = ""200"" style = ""float:right""></p><p><img src=images/blank.png width =""800"" height = ""200""></p>",NA,NA,NA,NA,NA,NA,NA,NA,NA,NA,NA,NA
NA,5663.215000007767,sequential-stimulus-presentation,45,191231,0.0-14.0-1.0,SS1613021720387,trial,NA,40,800,6463.215000007767,images/stimuli/spore_stims/complex_07_B_a.gif,images/stimuli/spore_stims/complex_05_A_b.gif,NA,NA,NA,NA,2,complex_dissimilar,images/stimuli/spore_stims/complex_05_A_b.gif,left,NA,NA,NA,NA,NA
NA,null,html-keyboard-response,46,192204,0.0-14.0-0.1,SS1613021720387,NA,NA,null,NA,NA,NA,NA,"<p><img src= images/blank.png width =""200"" height = ""200"" style = ""float:right""></p><p><img src=images/blank.png width =""800"" height = ""200""></p>",NA,NA,NA,NA,NA,NA,NA,NA,NA,NA,NA,NA
NA,788.109999964945,sequential-stimulus-presentation,47,193803,0.0-14.0-1.1,SS1613021720387,trial,NA,40,800,1588.109999964945,images/stimuli/spore_stims/complex_07_B_a.gif,images/stimuli/spore_stims/complex_05_A_b.gif,NA,NA,NA,NA,2,complex_dissimilar,images/stimuli/spore_stims/complex_05_A_b.gif,left,NA,NA,NA,NA,NA
NA,null,html-keyboard-response,48,195079,0.0-14.0-0.2,SS1613021720387,NA,NA,null,NA,NA,NA,NA,"<p><img src= images/blank.png width =""200"" height = ""200"" style = ""float:right""></p><p><img src=images/blank.png width =""800"" height = ""200""></p>",NA,NA,NA,NA,NA,NA,NA,NA,NA,NA,NA,NA
NA,1202.1550000063144,sequential-stimulus-presentation,49,197087,0.0-14.0-1.2,SS1613021720387,trial,NA,40,800,2002.1550000063144,images/stimuli/spore_stims/complex_07_B_a.gif,images/stimuli/spore_stims/complex_05_A_b.gif,NA,NA,NA,NA,2,complex_dissimilar,images/stimuli/spore_stims/complex_07_B_a.gif,right,NA,NA,NA,NA,NA
NA,null,html-keyboard-response,50,197959,0.0-14.0-0.3,SS1613021720387,NA,NA,null,NA,NA,NA,NA,"<p><img src= images/blank.png width =""200"" height = ""200"" style = ""float:right""></p><p><img src=images/blank.png width =""800"" height = ""200""></p>",NA,NA,NA,NA,NA,NA,NA,NA,NA,NA,NA,NA
NA,696.155000012368,sequential-stimulus-presentation,51,199465,0.0-14.0-1.3,SS1613021720387,trial,NA,40,800,1496.155000012368,images/stimuli/spore_stims/complex_07_B_a.gif,images/stimuli/spore_stims/complex_05_A_b.gif,NA,NA,NA,NA,2,complex_dissimilar,images/stimuli/spore_stims/complex_05_A_b.gif,left,NA,NA,NA,NA,NA
NA,null,html-keyboard-response,52,200445,0.0-14.0-0.4,SS1613021720387,NA,NA,null,NA,NA,NA,NA,"<p><img src= images/blank.png width =""200"" height = ""200"" style = ""float:right""></p><p><img src=images/blank.png width =""800"" height = ""200""></p>",NA,NA,NA,NA,NA,NA,NA,NA,NA,NA,NA,NA
NA,302.69000004045665,sequential-stimulus-presentation,53,201556,0.0-14.0-1.4,SS1613021720387,trial,NA,40,800,1102.6900000404567,images/stimuli/spore_stims/complex_07_B_a.gif,images/stimuli/spore_stims/complex_05_A_b.gif,NA,NA,NA,NA,2,complex_dissimilar,images/stimuli/spore_stims/complex_05_A_b.gif,left,NA,NA,NA,NA,NA
NA,null,html-keyboard-response,54,202834,0.0-14.0-0.5,SS1613021720387,NA,NA,null,NA,NA,NA,NA,"<p><img src= images/blank.png width =""200"" height = ""200"" style = ""float:right""></p><p><img src=images/blank.png width =""800"" height = ""200""></p>",NA,NA,NA,NA,NA,NA,NA,NA,NA,NA,NA,NA
NA,1839.9499999941327,sequential-stimulus-presentation,55,205482,0.0-14.0-1.5,SS1613021720387,trial,NA,40,800,2639.9499999941327,images/stimuli/spore_stims/complex_07_B_a.gif,images/stimuli/spore_stims/complex_05_A_b.gif,NA,NA,NA,NA,2,complex_dissimilar,images/stimuli/spore_stims/complex_05_A_b.gif,left,NA,NA,NA,NA,NA
NA,null,html-keyboard-response,56,206432,0.0-14.0-0.6,SS1613021720387,NA,NA,null,NA,NA,NA,NA,"<p><img src= images/blank.png width =""200"" height = ""200"" style = ""float:right""></p><p><img src=images/blank.png width =""800"" height = ""200""></p>",NA,NA,NA,NA,NA,NA,NA,NA,NA,NA,NA,NA
NA,95.23000003537163,sequential-stimulus-presentation,57,207335,0.0-14.0-1.6,SS1613021720387,trial,NA,40,800,895.2300000353716,images/stimuli/spore_stims/complex_07_B_a.gif,images/stimuli/spore_stims/complex_05_A_b.gif,NA,NA,NA,NA,2,complex_dissimilar,images/stimuli/spore_stims/complex_05_A_b.gif,left,NA,NA,NA,NA,NA
NA,null,html-keyboard-response,58,208625,0.0-14.0-0.7,SS1613021720387,NA,NA,null,NA,NA,NA,NA,"<p><img src= images/blank.png width =""200"" height = ""200"" style = ""float:right""></p><p><img src=images/blank.png width =""800"" height = ""200""></p>",NA,NA,NA,NA,NA,NA,NA,NA,NA,NA,NA,NA
NA,952.5349999894388,sequential-stimulus-presentation,59,210385,0.0-14.0-1.7,SS1613021720387,trial,NA,40,800,1752.5349999894388,images/stimuli/spore_stims/complex_07_B_a.gif,images/stimuli/spore_stims/complex_05_A_b.gif,NA,NA,NA,NA,2,complex_dissimilar,images/stimuli/spore_stims/complex_05_A_b.gif,left,NA,NA,NA,NA,NA
NA,7107.010000036098,html-keyboard-response,60,217496,0.0-15.0,SS1613021720387,pref_question,NA,51,NA,NA,NA,NA,<video width ='960' height = '540' style='padding-top:8%' autoplay muted><source src='images/stimuli/wall_pref.mp4' type='video/mp4'></video>,3,right,66%,2,NA,NA,NA,NA,NA,NA,NA,NA
NA,465.81999998306856,sequential-stimulus-presentation,61,218769,0.0-16.0,SS1613021720387,pref_reveal,NA,40,800,1265.8199999830686,null,null,NA,NA,NA,NA,2,NA,NA,NA,deviant,NA,NA,NA,NA
NA,null,html-keyboard-response,62,219821,0.0-17.0-0.0,SS1613021720387,NA,NA,null,NA,NA,NA,NA,"<p><img src= images/blank.png width =""200"" height = ""200"" style = ""float:right""></p><p><img src=images/blank.png width =""800"" height = ""200""></p>",NA,NA,NA,NA,NA,NA,NA,NA,NA,NA,NA,NA
NA,1345.7700000144541,sequential-stimulus-presentation,63,221976,0.0-17.0-1.0,SS1613021720387,trial,NA,40,800,2145.770000014454,images/stimuli/spore_stims/complex_02_B_d.gif,images/stimuli/spore_stims/complex_02_A_d.gif,NA,NA,NA,NA,3,complex_similar,images/stimuli/spore_stims/complex_02_A_d.gif,right,NA,NA,NA,NA,NA
NA,null,html-keyboard-response,64,223237,0.0-17.0-0.1,SS1613021720387,NA,NA,null,NA,NA,NA,NA,"<p><img src= images/blank.png width =""200"" height = ""200"" style = ""float:right""></p><p><img src=images/blank.png width =""800"" height = ""200""></p>",NA,NA,NA,NA,NA,NA,NA,NA,NA,NA,NA,NA
NA,316.3499999791384,sequential-stimulus-presentation,65,224361,0.0-17.0-1.1,SS1613021720387,trial,NA,40,800,1116.3499999791384,images/stimuli/spore_stims/complex_02_B_d.gif,images/stimuli/spore_stims/complex_02_A_d.gif,NA,NA,NA,NA,3,complex_similar,images/stimuli/spore_stims/complex_02_A_d.gif,right,NA,NA,NA,NA,NA
NA,null,html-keyboard-response,66,225577,0.0-17.0-0.2,SS1613021720387,NA,NA,null,NA,NA,NA,NA,"<p><img src= images/blank.png width =""200"" height = ""200"" style = ""float:right""></p><p><img src=images/blank.png width =""800"" height = ""200""></p>",NA,NA,NA,NA,NA,NA,NA,NA,NA,NA,NA,NA
NA,73.73500004177913,sequential-stimulus-presentation,67,226458,0.0-17.0-1.2,SS1613021720387,trial,NA,40,800,873.7350000417791,images/stimuli/spore_stims/complex_02_B_d.gif,images/stimuli/spore_stims/complex_02_A_d.gif,NA,NA,NA,NA,3,complex_similar,images/stimuli/spore_stims/complex_02_A_d.gif,right,NA,NA,NA,NA,NA
NA,null,html-keyboard-response,68,227571,0.0-17.0-0.3,SS1613021720387,NA,NA,null,NA,NA,NA,NA,"<p><img src= images/blank.png width =""200"" height = ""200"" style = ""float:right""></p><p><img src=images/blank.png width =""800"" height = ""200""></p>",NA,NA,NA,NA,NA,NA,NA,NA,NA,NA,NA,NA
NA,1746.91999994684,sequential-stimulus-presentation,69,230128,0.0-17.0-1.3,SS1613021720387,trial,NA,40,800,2546.91999994684,images/stimuli/spore_stims/complex_02_B_d.gif,images/stimuli/spore_stims/complex_02_A_d.gif,NA,NA,NA,NA,3,complex_similar,images/stimuli/spore_stims/complex_02_A_d.gif,right,NA,NA,NA,NA,NA
NA,null,html-keyboard-response,70,231101,0.0-17.0-0.4,SS1613021720387,NA,NA,null,NA,NA,NA,NA,"<p><img src= images/blank.png width =""200"" height = ""200"" style = ""float:right""></p><p><img src=images/blank.png width =""800"" height = ""200""></p>",NA,NA,NA,NA,NA,NA,NA,NA,NA,NA,NA,NA
NA,2906.5149999805726,sequential-stimulus-presentation,71,234816,0.0-17.0-1.4,SS1613021720387,trial,NA,40,800,3706.5149999805726,images/stimuli/spore_stims/complex_02_B_d.gif,images/stimuli/spore_stims/complex_02_A_d.gif,NA,NA,NA,NA,3,complex_similar,images/stimuli/spore_stims/complex_02_A_d.gif,right,NA,NA,NA,NA,NA
NA,null,html-keyboard-response,72,235816,0.0-17.0-0.5,SS1613021720387,NA,NA,null,NA,NA,NA,NA,"<p><img src= images/blank.png width =""200"" height = ""200"" style = ""float:right""></p><p><img src=images/blank.png width =""800"" height = ""200""></p>",NA,NA,NA,NA,NA,NA,NA,NA,NA,NA,NA,NA
NA,254.59000002592802,sequential-stimulus-presentation,73,236882,0.0-17.0-1.5,SS1613021720387,trial,NA,40,800,1054.590000025928,images/stimuli/spore_stims/complex_02_B_d.gif,images/stimuli/spore_stims/complex_02_A_d.gif,NA,NA,NA,NA,3,complex_similar,images/stimuli/spore_stims/complex_02_B_d.gif,middle,NA,NA,NA,NA,NA
NA,null,html-keyboard-response,74,237998,0.0-17.0-0.6,SS1613021720387,NA,NA,null,NA,NA,NA,NA,"<p><img src= images/blank.png width =""200"" height = ""200"" style = ""float:right""></p><p><img src=images/blank.png width =""800"" height = ""200""></p>",NA,NA,NA,NA,NA,NA,NA,NA,NA,NA,NA,NA
NA,369.4450000184588,sequential-stimulus-presentation,75,239178,0.0-17.0-1.6,SS1613021720387,trial,NA,40,800,1169.4450000184588,images/stimuli/spore_stims/complex_02_B_d.gif,images/stimuli/spore_stims/complex_02_A_d.gif,NA,NA,NA,NA,3,complex_similar,images/stimuli/spore_stims/complex_02_A_d.gif,right,NA,NA,NA,NA,NA
NA,null,html-keyboard-response,76,240424,0.0-17.0-0.7,SS1613021720387,NA,NA,null,NA,NA,NA,NA,"<p><img src= images/blank.png width =""200"" height = ""200"" style = ""float:right""></p><p><img src=images/blank.png width =""800"" height = ""200""></p>",NA,NA,NA,NA,NA,NA,NA,NA,NA,NA,NA,NA
NA,899.4449999881908,sequential-stimulus-presentation,77,242135,0.0-17.0-1.7,SS1613021720387,trial,NA,40,800,1699.4449999881908,images/stimuli/spore_stims/complex_02_B_d.gif,images/stimuli/spore_stims/complex_02_A_d.gif,NA,NA,NA,NA,3,complex_similar,images/stimuli/spore_stims/complex_02_A_d.gif,right,NA,NA,NA,NA,NA
NA,9014.510000008158,html-keyboard-response,78,251153,0.0-18.0,SS1613021720387,pref_question,NA,50,NA,NA,NA,NA,<video width ='960' height = '540' style='padding-top:8%' autoplay muted><source src='images/stimuli/wall_pref.mp4' type='video/mp4'></video>,2,middle,45%,3,NA,NA,NA,NA,NA,NA,NA,NA
NA,255.17999997828156,sequential-stimulus-presentation,79,252217,0.0-19.0,SS1613021720387,pref_reveal,NA,40,800,1055.1799999782816,null,null,NA,NA,NA,NA,3,NA,NA,NA,deviant,NA,NA,NA,NA
NA,null,html-keyboard-response,80,253317,0.0-20.0-0.0,SS1613021720387,NA,NA,null,NA,NA,NA,NA,"<p><img src= images/blank.png width =""200"" height = ""200"" style = ""float:right""></p><p><img src=images/blank.png width =""800"" height = ""200""></p>",NA,NA,NA,NA,NA,NA,NA,NA,NA,NA,NA,NA
NA,1364.4949999870732,sequential-stimulus-presentation,81,255505,0.0-20.0-1.0,SS1613021720387,trial,NA,40,800,2164.4949999870732,images/stimuli/spore_stims/simple_08_B_d.gif,images/stimuli/spore_stims/simple_08_A_d.gif,NA,NA,NA,NA,4,simple_similar,images/stimuli/spore_stims/simple_08_A_d.gif,middle,NA,NA,NA,NA,NA
NA,null,html-keyboard-response,82,256696,0.0-20.0-0.1,SS1613021720387,NA,NA,null,NA,NA,NA,NA,"<p><img src= images/blank.png width =""200"" height = ""200"" style = ""float:right""></p><p><img src=images/blank.png width =""800"" height = ""200""></p>",NA,NA,NA,NA,NA,NA,NA,NA,NA,NA,NA,NA
NA,682.1150000323541,sequential-stimulus-presentation,83,258186,0.0-20.0-1.1,SS1613021720387,trial,NA,40,800,1482.1150000323541,images/stimuli/spore_stims/simple_08_B_d.gif,images/stimuli/spore_stims/simple_08_A_d.gif,NA,NA,NA,NA,4,simple_similar,images/stimuli/spore_stims/simple_08_A_d.gif,middle,NA,NA,NA,NA,NA
NA,null,html-keyboard-response,84,259166,0.0-20.0-0.2,SS1613021720387,NA,NA,null,NA,NA,NA,NA,"<p><img src= images/blank.png width =""200"" height = ""200"" style = ""float:right""></p><p><img src=images/blank.png width =""800"" height = ""200""></p>",NA,NA,NA,NA,NA,NA,NA,NA,NA,NA,NA,NA
NA,594.3400000105612,sequential-stimulus-presentation,85,260569,0.0-20.0-1.2,SS1613021720387,trial,NA,40,800,1394.3400000105612,images/stimuli/spore_stims/simple_08_B_d.gif,images/stimuli/spore_stims/simple_08_A_d.gif,NA,NA,NA,NA,4,simple_similar,images/stimuli/spore_stims/simple_08_A_d.gif,middle,NA,NA,NA,NA,NA
NA,null,html-keyboard-response,86,261423,0.0-20.0-0.3,SS1613021720387,NA,NA,null,NA,NA,NA,NA,"<p><img src= images/blank.png width =""200"" height = ""200"" style = ""float:right""></p><p><img src=images/blank.png width =""800"" height = ""200""></p>",NA,NA,NA,NA,NA,NA,NA,NA,NA,NA,NA,NA
NA,433.24000004213303,sequential-stimulus-presentation,87,262664,0.0-20.0-1.3,SS1613021720387,trial,NA,40,800,1233.240000042133,images/stimuli/spore_stims/simple_08_B_d.gif,images/stimuli/spore_stims/simple_08_A_d.gif,NA,NA,NA,NA,4,simple_similar,images/stimuli/spore_stims/simple_08_A_d.gif,middle,NA,NA,NA,NA,NA
NA,null,html-keyboard-response,88,263579,0.0-20.0-0.4,SS1613021720387,NA,NA,null,NA,NA,NA,NA,"<p><img src= images/blank.png width =""200"" height = ""200"" style = ""float:right""></p><p><img src=images/blank.png width =""800"" height = ""200""></p>",NA,NA,NA,NA,NA,NA,NA,NA,NA,NA,NA,NA
NA,917.0199999934994,sequential-stimulus-presentation,89,265303,0.0-20.0-1.4,SS1613021720387,trial,NA,40,800,1717.0199999934994,images/stimuli/spore_stims/simple_08_B_d.gif,images/stimuli/spore_stims/simple_08_A_d.gif,NA,NA,NA,NA,4,simple_similar,images/stimuli/spore_stims/simple_08_A_d.gif,middle,NA,NA,NA,NA,NA
NA,null,html-keyboard-response,90,266400,0.0-20.0-0.5,SS1613021720387,NA,NA,null,NA,NA,NA,NA,"<p><img src= images/blank.png width =""200"" height = ""200"" style = ""float:right""></p><p><img src=images/blank.png width =""800"" height = ""200""></p>",NA,NA,NA,NA,NA,NA,NA,NA,NA,NA,NA,NA
NA,615.2899999869987,sequential-stimulus-presentation,91,267825,0.0-20.0-1.5,SS1613021720387,trial,NA,40,800,1415.2899999869987,images/stimuli/spore_stims/simple_08_B_d.gif,images/stimuli/spore_stims/simple_08_A_d.gif,NA,NA,NA,NA,4,simple_similar,images/stimuli/spore_stims/simple_08_B_d.gif,left,NA,NA,NA,NA,NA
NA,null,html-keyboard-response,92,268656,0.0-20.0-0.6,SS1613021720387,NA,NA,null,NA,NA,NA,NA,"<p><img src= images/blank.png width =""200"" height = ""200"" style = ""float:right""></p><p><img src=images/blank.png width =""800"" height = ""200""></p>",NA,NA,NA,NA,NA,NA,NA,NA,NA,NA,NA,NA
NA,133.34499998018146,sequential-stimulus-presentation,93,269600,0.0-20.0-1.6,SS1613021720387,trial,NA,40,800,933.3449999801815,images/stimuli/spore_stims/simple_08_B_d.gif,images/stimuli/spore_stims/simple_08_A_d.gif,NA,NA,NA,NA,4,simple_similar,images/stimuli/spore_stims/simple_08_A_d.gif,middle,NA,NA,NA,NA,NA
NA,null,html-keyboard-response,94,270446,0.0-20.0-0.7,SS1613021720387,NA,NA,null,NA,NA,NA,NA,"<p><img src= images/blank.png width =""200"" height = ""200"" style = ""float:right""></p><p><img src=images/blank.png width =""800"" height = ""200""></p>",NA,NA,NA,NA,NA,NA,NA,NA,NA,NA,NA,NA
NA,11.545000015757978,sequential-stimulus-presentation,95,271267,0.0-20.0-1.7,SS1613021720387,trial,NA,40,800,811.545000015758,images/stimuli/spore_stims/simple_08_B_d.gif,images/stimuli/spore_stims/simple_08_A_d.gif,NA,NA,NA,NA,4,simple_similar,images/stimuli/spore_stims/simple_08_A_d.gif,middle,NA,NA,NA,NA,NA
NA,10265.924999956042,html-keyboard-response,96,281538,0.0-21.0,SS1613021720387,pref_question,NA,50,NA,NA,NA,NA,<video width ='960' height = '540' style='padding-top:8%' autoplay muted><source src='images/stimuli/wall_pref.mp4' type='video/mp4'></video>,2,middle,45%,4,NA,NA,NA,NA,NA,NA,NA,NA
NA,663.5300000198185,sequential-stimulus-presentation,97,283010,0.0-22.0,SS1613021720387,pref_reveal,NA,40,800,1463.5300000198185,null,null,NA,NA,NA,NA,4,NA,NA,NA,background,NA,NA,NA,NA
NA,null,html-keyboard-response,98,283905,0.0-23.0-0.0,SS1613021720387,NA,NA,null,NA,NA,NA,NA,"<p><img src= images/blank.png width =""200"" height = ""200"" style = ""float:right""></p><p><img src=images/blank.png width =""800"" height = ""200""></p>",NA,NA,NA,NA,NA,NA,NA,NA,NA,NA,NA,NA
NA,1319.954999955371,sequential-stimulus-presentation,99,286032,0.0-23.0-1.0,SS1613021720387,trial,NA,40,800,2119.954999955371,images/stimuli/spore_stims/simple_20_A_b.gif,images/stimuli/spore_stims/simple_11_B_b.gif,NA,NA,NA,NA,5,simple_dissimilar,images/stimuli/spore_stims/simple_11_B_b.gif,right,NA,NA,NA,NA,NA
NA,null,html-keyboard-response,100,287335,0.0-23.0-0.1,SS1613021720387,NA,NA,null,NA,NA,NA,NA,"<p><img src= images/blank.png width =""200"" height = ""200"" style = ""float:right""></p><p><img src=images/blank.png width =""800"" height = ""200""></p>",NA,NA,NA,NA,NA,NA,NA,NA,NA,NA,NA,NA
NA,591.4449999690987,sequential-stimulus-presentation,101,288736,0.0-23.0-1.1,SS1613021720387,trial,NA,40,800,1391.4449999690987,images/stimuli/spore_stims/simple_20_A_b.gif,images/stimuli/spore_stims/simple_11_B_b.gif,NA,NA,NA,NA,5,simple_dissimilar,images/stimuli/spore_stims/simple_11_B_b.gif,right,NA,NA,NA,NA,NA
NA,null,html-keyboard-response,102,289936,0.0-23.0-0.2,SS1613021720387,NA,NA,null,NA,NA,NA,NA,"<p><img src= images/blank.png width =""200"" height = ""200"" style = ""float:right""></p><p><img src=images/blank.png width =""800"" height = ""200""></p>",NA,NA,NA,NA,NA,NA,NA,NA,NA,NA,NA,NA
NA,526.5749999671243,sequential-stimulus-presentation,103,291272,0.0-23.0-1.2,SS1613021720387,trial,NA,40,800,1326.5749999671243,images/stimuli/spore_stims/simple_20_A_b.gif,images/stimuli/spore_stims/simple_11_B_b.gif,NA,NA,NA,NA,5,simple_dissimilar,images/stimuli/spore_stims/simple_11_B_b.gif,right,NA,NA,NA,NA,NA
NA,null,html-keyboard-response,104,292340,0.0-23.0-0.3,SS1613021720387,NA,NA,null,NA,NA,NA,NA,"<p><img src= images/blank.png width =""200"" height = ""200"" style = ""float:right""></p><p><img src=images/blank.png width =""800"" height = ""200""></p>",NA,NA,NA,NA,NA,NA,NA,NA,NA,NA,NA,NA
NA,894.4949999568053,sequential-stimulus-presentation,105,294041,0.0-23.0-1.3,SS1613021720387,trial,NA,40,800,1694.4949999568053,images/stimuli/spore_stims/simple_20_A_b.gif,images/stimuli/spore_stims/simple_11_B_b.gif,NA,NA,NA,NA,5,simple_dissimilar,images/stimuli/spore_stims/simple_11_B_b.gif,right,NA,NA,NA,NA,NA
NA,null,html-keyboard-response,106,295092,0.0-23.0-0.4,SS1613021720387,NA,NA,null,NA,NA,NA,NA,"<p><img src= images/blank.png width =""200"" height = ""200"" style = ""float:right""></p><p><img src=images/blank.png width =""800"" height = ""200""></p>",NA,NA,NA,NA,NA,NA,NA,NA,NA,NA,NA,NA
NA,1249.9199999729171,sequential-stimulus-presentation,107,297153,0.0-23.0-1.4,SS1613021720387,trial,NA,40,800,2049.919999972917,images/stimuli/spore_stims/simple_20_A_b.gif,images/stimuli/spore_stims/simple_11_B_b.gif,NA,NA,NA,NA,5,simple_dissimilar,images/stimuli/spore_stims/simple_20_A_b.gif,middle,NA,NA,NA,NA,NA
NA,null,html-keyboard-response,108,298224,0.0-23.0-0.5,SS1613021720387,NA,NA,null,NA,NA,NA,NA,"<p><img src= images/blank.png width =""200"" height = ""200"" style = ""float:right""></p><p><img src=images/blank.png width =""800"" height = ""200""></p>",NA,NA,NA,NA,NA,NA,NA,NA,NA,NA,NA,NA
NA,64.200000022538,sequential-stimulus-presentation,109,299097,0.0-23.0-1.5,SS1613021720387,trial,NA,40,800,864.200000022538,images/stimuli/spore_stims/simple_20_A_b.gif,images/stimuli/spore_stims/simple_11_B_b.gif,NA,NA,NA,NA,5,simple_dissimilar,images/stimuli/spore_stims/simple_11_B_b.gif,right,NA,NA,NA,NA,NA
NA,null,html-keyboard-response,110,300038,0.0-23.0-0.6,SS1613021720387,NA,NA,null,NA,NA,NA,NA,"<p><img src= images/blank.png width =""200"" height = ""200"" style = ""float:right""></p><p><img src=images/blank.png width =""800"" height = ""200""></p>",NA,NA,NA,NA,NA,NA,NA,NA,NA,NA,NA,NA
NA,517.104999977164,sequential-stimulus-presentation,111,301363,0.0-23.0-1.6,SS1613021720387,trial,NA,40,800,1317.104999977164,images/stimuli/spore_stims/simple_20_A_b.gif,images/stimuli/spore_stims/simple_11_B_b.gif,NA,NA,NA,NA,5,simple_dissimilar,images/stimuli/spore_stims/simple_11_B_b.gif,right,NA,NA,NA,NA,NA
NA,null,html-keyboard-response,112,302192,0.0-23.0-0.7,SS1613021720387,NA,NA,null,NA,NA,NA,NA,"<p><img src= images/blank.png width =""200"" height = ""200"" style = ""float:right""></p><p><img src=images/blank.png width =""800"" height = ""200""></p>",NA,NA,NA,NA,NA,NA,NA,NA,NA,NA,NA,NA
NA,197.3299999954179,sequential-stimulus-presentation,113,303196,0.0-23.0-1.7,SS1613021720387,trial,NA,40,800,997.3299999954179,images/stimuli/spore_stims/simple_20_A_b.gif,images/stimuli/spore_stims/simple_11_B_b.gif,NA,NA,NA,NA,5,simple_dissimilar,images/stimuli/spore_stims/simple_11_B_b.gif,right,NA,NA,NA,NA,NA
NA,2960.4399999952875,html-keyboard-response,114,306161,0.0-24.0,SS1613021720387,pref_question,NA,50,NA,NA,NA,NA,<video width ='960' height = '540' style='padding-top:8%' autoplay muted><source src='images/stimuli/wall_pref.mp4' type='video/mp4'></video>,2,middle,45%,5,NA,NA,NA,NA,NA,NA,NA,NA
NA,1916.9899999978952,sequential-stimulus-presentation,115,308888,0.0-25.0,SS1613021720387,pref_reveal,NA,40,800,2716.989999997895,null,null,NA,NA,NA,NA,5,NA,NA,NA,deviant,NA,NA,NA,NA
NA,null,html-keyboard-response,116,310150,0.0-26.0-0.0,SS1613021720387,NA,NA,null,NA,NA,NA,NA,"<p><img src= images/blank.png width =""200"" height = ""200"" style = ""float:right""></p><p><img src=images/blank.png width =""800"" height = ""200""></p>",NA,NA,NA,NA,NA,NA,NA,NA,NA,NA,NA,NA
NA,1920.6000000122003,sequential-stimulus-presentation,117,312883,0.0-26.0-1.0,SS1613021720387,trial,NA,40,800,2720.6000000122003,images/stimuli/spore_stims/complex_17_A_d.gif,images/stimuli/spore_stims/complex_01_B_b.gif,NA,NA,NA,NA,6,complex_dissimilar,images/stimuli/spore_stims/complex_01_B_b.gif,middle,NA,NA,NA,NA,NA
NA,null,html-keyboard-response,118,314055,0.0-26.0-0.1,SS1613021720387,NA,NA,null,NA,NA,NA,NA,"<p><img src= images/blank.png width =""200"" height = ""200"" style = ""float:right""></p><p><img src=images/blank.png width =""800"" height = ""200""></p>",NA,NA,NA,NA,NA,NA,NA,NA,NA,NA,NA,NA
NA,348.5499999951571,sequential-stimulus-presentation,119,315215,0.0-26.0-1.1,SS1613021720387,trial,NA,40,800,1148.5499999951571,images/stimuli/spore_stims/complex_17_A_d.gif,images/stimuli/spore_stims/complex_01_B_b.gif,NA,NA,NA,NA,6,complex_dissimilar,images/stimuli/spore_stims/complex_01_B_b.gif,middle,NA,NA,NA,NA,NA
NA,null,html-keyboard-response,120,316122,0.0-26.0-0.2,SS1613021720387,NA,NA,null,NA,NA,NA,NA,"<p><img src= images/blank.png width =""200"" height = ""200"" style = ""float:right""></p><p><img src=images/blank.png width =""800"" height = ""200""></p>",NA,NA,NA,NA,NA,NA,NA,NA,NA,NA,NA,NA
NA,1368.4899999643676,sequential-stimulus-presentation,121,318303,0.0-26.0-1.2,SS1613021720387,trial,NA,40,800,2168.4899999643676,images/stimuli/spore_stims/complex_17_A_d.gif,images/stimuli/spore_stims/complex_01_B_b.gif,NA,NA,NA,NA,6,complex_dissimilar,images/stimuli/spore_stims/complex_01_B_b.gif,middle,NA,NA,NA,NA,NA
NA,null,html-keyboard-response,122,319178,0.0-26.0-0.3,SS1613021720387,NA,NA,null,NA,NA,NA,NA,"<p><img src= images/blank.png width =""200"" height = ""200"" style = ""float:right""></p><p><img src=images/blank.png width =""800"" height = ""200""></p>",NA,NA,NA,NA,NA,NA,NA,NA,NA,NA,NA,NA
NA,876.8699999782257,sequential-stimulus-presentation,123,320874,0.0-26.0-1.3,SS1613021720387,trial,NA,40,800,1676.8699999782257,images/stimuli/spore_stims/complex_17_A_d.gif,images/stimuli/spore_stims/complex_01_B_b.gif,NA,NA,NA,NA,6,complex_dissimilar,images/stimuli/spore_stims/complex_17_A_d.gif,right,NA,NA,NA,NA,NA
NA,null,html-keyboard-response,124,321813,0.0-26.0-0.4,SS1613021720387,NA,NA,null,NA,NA,NA,NA,"<p><img src= images/blank.png width =""200"" height = ""200"" style = ""float:right""></p><p><img src=images/blank.png width =""800"" height = ""200""></p>",NA,NA,NA,NA,NA,NA,NA,NA,NA,NA,NA,NA
NA,34.54999998211861,sequential-stimulus-presentation,125,322656,0.0-26.0-1.4,SS1613021720387,trial,NA,40,800,834.5499999821186,images/stimuli/spore_stims/complex_17_A_d.gif,images/stimuli/spore_stims/complex_01_B_b.gif,NA,NA,NA,NA,6,complex_dissimilar,images/stimuli/spore_stims/complex_01_B_b.gif,middle,NA,NA,NA,NA,NA
NA,null,html-keyboard-response,126,323918,0.0-26.0-0.5,SS1613021720387,NA,NA,null,NA,NA,NA,NA,"<p><img src= images/blank.png width =""200"" height = ""200"" style = ""float:right""></p><p><img src=images/blank.png width =""800"" height = ""200""></p>",NA,NA,NA,NA,NA,NA,NA,NA,NA,NA,NA,NA
NA,574.8599999933504,sequential-stimulus-presentation,127,325301,0.0-26.0-1.5,SS1613021720387,trial,NA,40,800,1374.8599999933504,images/stimuli/spore_stims/complex_17_A_d.gif,images/stimuli/spore_stims/complex_01_B_b.gif,NA,NA,NA,NA,6,complex_dissimilar,images/stimuli/spore_stims/complex_01_B_b.gif,middle,NA,NA,NA,NA,NA
NA,null,html-keyboard-response,128,326305,0.0-26.0-0.6,SS1613021720387,NA,NA,null,NA,NA,NA,NA,"<p><img src= images/blank.png width =""200"" height = ""200"" style = ""float:right""></p><p><img src=images/blank.png width =""800"" height = ""200""></p>",NA,NA,NA,NA,NA,NA,NA,NA,NA,NA,NA,NA
NA,156.80999995674938,sequential-stimulus-presentation,129,327272,0.0-26.0-1.6,SS1613021720387,trial,NA,40,800,956.8099999567494,images/stimuli/spore_stims/complex_17_A_d.gif,images/stimuli/spore_stims/complex_01_B_b.gif,NA,NA,NA,NA,6,complex_dissimilar,images/stimuli/spore_stims/complex_01_B_b.gif,middle,NA,NA,NA,NA,NA
NA,null,html-keyboard-response,130,328341,0.0-26.0-0.7,SS1613021720387,NA,NA,null,NA,NA,NA,NA,"<p><img src= images/blank.png width =""200"" height = ""200"" style = ""float:right""></p><p><img src=images/blank.png width =""800"" height = ""200""></p>",NA,NA,NA,NA,NA,NA,NA,NA,NA,NA,NA,NA
NA,2813.6950000189245,sequential-stimulus-presentation,131,331965,0.0-26.0-1.7,SS1613021720387,trial,NA,40,800,3613.6950000189245,images/stimuli/spore_stims/complex_17_A_d.gif,images/stimuli/spore_stims/complex_01_B_b.gif,NA,NA,NA,NA,6,complex_dissimilar,images/stimuli/spore_stims/complex_01_B_b.gif,middle,NA,NA,NA,NA,NA
NA,4736.340000003111,html-keyboard-response,132,336707,0.0-27.0,SS1613021720387,pref_question,NA,51,NA,NA,NA,NA,<video width ='960' height = '540' style='padding-top:8%' autoplay muted><source src='images/stimuli/wall_pref.mp4' type='video/mp4'></video>,3,right,66%,6,NA,NA,NA,NA,NA,NA,NA,NA
NA,3851.7050000373274,sequential-stimulus-presentation,133,341367,0.0-28.0,SS1613021720387,pref_reveal,NA,40,800,4651.705000037327,null,null,NA,NA,NA,NA,6,NA,NA,NA,deviant,NA,NA,NA,NA
NA,null,html-keyboard-response,134,342546,0.0-29.0-0.0,SS1613021720387,NA,NA,null,NA,NA,NA,NA,"<p><img src= images/blank.png width =""200"" height = ""200"" style = ""float:right""></p><p><img src=images/blank.png width =""800"" height = ""200""></p>",NA,NA,NA,NA,NA,NA,NA,NA,NA,NA,NA,NA
NA,687.1749999700114,sequential-stimulus-presentation,135,344042,0.0-29.0-1.0,SS1613021720387,trial,NA,40,800,1487.1749999700114,images/stimuli/spore_stims/simple_14_A_a.gif,images/stimuli/spore_stims/simple_14_B_a.gif,NA,NA,NA,NA,7,simple_similar,images/stimuli/spore_stims/simple_14_B_a.gif,right,NA,NA,NA,NA,NA
NA,null,html-keyboard-response,136,345267,0.0-29.0-0.1,SS1613021720387,NA,NA,null,NA,NA,NA,NA,"<p><img src= images/blank.png width =""200"" height = ""200"" style = ""float:right""></p><p><img src=images/blank.png width =""800"" height = ""200""></p>",NA,NA,NA,NA,NA,NA,NA,NA,NA,NA,NA,NA
NA,993.5950000071898,sequential-stimulus-presentation,137,347074,0.0-29.0-1.1,SS1613021720387,trial,NA,40,800,1793.5950000071898,images/stimuli/spore_stims/simple_14_A_a.gif,images/stimuli/spore_stims/simple_14_B_a.gif,NA,NA,NA,NA,7,simple_similar,images/stimuli/spore_stims/simple_14_B_a.gif,right,NA,NA,NA,NA,NA
NA,null,html-keyboard-response,138,348310,0.0-29.0-0.2,SS1613021720387,NA,NA,null,NA,NA,NA,NA,"<p><img src= images/blank.png width =""200"" height = ""200"" style = ""float:right""></p><p><img src=images/blank.png width =""800"" height = ""200""></p>",NA,NA,NA,NA,NA,NA,NA,NA,NA,NA,NA,NA
NA,1375.560000014957,sequential-stimulus-presentation,139,350496,0.0-29.0-1.2,SS1613021720387,trial,NA,40,800,2175.560000014957,images/stimuli/spore_stims/simple_14_A_a.gif,images/stimuli/spore_stims/simple_14_B_a.gif,NA,NA,NA,NA,7,simple_similar,images/stimuli/spore_stims/simple_14_B_a.gif,right,NA,NA,NA,NA,NA
NA,null,html-keyboard-response,140,351516,0.0-29.0-0.3,SS1613021720387,NA,NA,null,NA,NA,NA,NA,"<p><img src= images/blank.png width =""200"" height = ""200"" style = ""float:right""></p><p><img src=images/blank.png width =""800"" height = ""200""></p>",NA,NA,NA,NA,NA,NA,NA,NA,NA,NA,NA,NA
NA,434.4099999871105,sequential-stimulus-presentation,141,352761,0.0-29.0-1.3,SS1613021720387,trial,NA,40,800,1234.4099999871105,images/stimuli/spore_stims/simple_14_A_a.gif,images/stimuli/spore_stims/simple_14_B_a.gif,NA,NA,NA,NA,7,simple_similar,images/stimuli/spore_stims/simple_14_B_a.gif,right,NA,NA,NA,NA,NA
NA,null,html-keyboard-response,142,353695,0.0-29.0-0.4,SS1613021720387,NA,NA,null,NA,NA,NA,NA,"<p><img src= images/blank.png width =""200"" height = ""200"" style = ""float:right""></p><p><img src=images/blank.png width =""800"" height = ""200""></p>",NA,NA,NA,NA,NA,NA,NA,NA,NA,NA,NA,NA
NA,3306.7400000290945,sequential-stimulus-presentation,143,357812,0.0-29.0-1.4,SS1613021720387,trial,NA,40,800,4106.7400000290945,images/stimuli/spore_stims/simple_14_A_a.gif,images/stimuli/spore_stims/simple_14_B_a.gif,NA,NA,NA,NA,7,simple_similar,images/stimuli/spore_stims/simple_14_B_a.gif,right,NA,NA,NA,NA,NA
NA,null,html-keyboard-response,144,359024,0.0-29.0-0.5,SS1613021720387,NA,NA,null,NA,NA,NA,NA,"<p><img src= images/blank.png width =""200"" height = ""200"" style = ""float:right""></p><p><img src=images/blank.png width =""800"" height = ""200""></p>",NA,NA,NA,NA,NA,NA,NA,NA,NA,NA,NA,NA
NA,1635.6900000246242,sequential-stimulus-presentation,145,361469,0.0-29.0-1.5,SS1613021720387,trial,NA,40,800,2435.690000024624,images/stimuli/spore_stims/simple_14_A_a.gif,images/stimuli/spore_stims/simple_14_B_a.gif,NA,NA,NA,NA,7,simple_similar,images/stimuli/spore_stims/simple_14_B_a.gif,right,NA,NA,NA,NA,NA
NA,null,html-keyboard-response,146,362622,0.0-29.0-0.6,SS1613021720387,NA,NA,null,NA,NA,NA,NA,"<p><img src= images/blank.png width =""200"" height = ""200"" style = ""float:right""></p><p><img src=images/blank.png width =""800"" height = ""200""></p>",NA,NA,NA,NA,NA,NA,NA,NA,NA,NA,NA,NA
NA,975.9949999861419,sequential-stimulus-presentation,147,364408,0.0-29.0-1.6,SS1613021720387,trial,NA,40,800,1775.994999986142,images/stimuli/spore_stims/simple_14_A_a.gif,images/stimuli/spore_stims/simple_14_B_a.gif,NA,NA,NA,NA,7,simple_similar,images/stimuli/spore_stims/simple_14_B_a.gif,right,NA,NA,NA,NA,NA
NA,null,html-keyboard-response,148,365484,0.0-29.0-0.7,SS1613021720387,NA,NA,null,NA,NA,NA,NA,"<p><img src= images/blank.png width =""200"" height = ""200"" style = ""float:right""></p><p><img src=images/blank.png width =""800"" height = ""200""></p>",NA,NA,NA,NA,NA,NA,NA,NA,NA,NA,NA,NA
NA,4428.009999974165,sequential-stimulus-presentation,149,370726,0.0-29.0-1.7,SS1613021720387,trial,NA,40,800,5228.009999974165,images/stimuli/spore_stims/simple_14_A_a.gif,images/stimuli/spore_stims/simple_14_B_a.gif,NA,NA,NA,NA,7,simple_similar,images/stimuli/spore_stims/simple_14_A_a.gif,middle,NA,NA,NA,NA,NA
NA,657.550000003539,html-keyboard-response,150,371386,0.0-30.0,SS1613021720387,pref_question,NA,49,NA,NA,NA,NA,<video width ='960' height = '540' style='padding-top:8%' autoplay muted><source src='images/stimuli/wall_pref.mp4' type='video/mp4'></video>,1,left,25%,7,NA,NA,NA,NA,NA,NA,NA,NA
NA,1996.6099999728613,sequential-stimulus-presentation,151,374203,0.0-31.0,SS1613021720387,pref_reveal,NA,40,800,2796.6099999728613,null,null,NA,NA,NA,NA,7,NA,NA,NA,novel,NA,NA,NA,NA
NA,null,html-keyboard-response,152,375133,0.0-32.0-0.0,SS1613021720387,NA,NA,null,NA,NA,NA,NA,"<p><img src= images/blank.png width =""200"" height = ""200"" style = ""float:right""></p><p><img src=images/blank.png width =""800"" height = ""200""></p>",NA,NA,NA,NA,NA,NA,NA,NA,NA,NA,NA,NA
NA,1081.5300000249408,sequential-stimulus-presentation,153,377027,0.0-32.0-1.0,SS1613021720387,trial,NA,40,800,1881.5300000249408,images/stimuli/spore_stims/simple_20_B_c.gif,images/stimuli/spore_stims/simple_12_B_c.gif,NA,NA,NA,NA,8,simple_dissimilar,images/stimuli/spore_stims/simple_12_B_c.gif,left,NA,NA,NA,NA,NA
NA,null,html-keyboard-response,154,377984,0.0-32.0-0.1,SS1613021720387,NA,NA,null,NA,NA,NA,NA,"<p><img src= images/blank.png width =""200"" height = ""200"" style = ""float:right""></p><p><img src=images/blank.png width =""800"" height = ""200""></p>",NA,NA,NA,NA,NA,NA,NA,NA,NA,NA,NA,NA
NA,130.7950000045821,sequential-stimulus-presentation,155,378926,0.0-32.0-1.1,SS1613021720387,trial,NA,40,800,930.7950000045821,images/stimuli/spore_stims/simple_20_B_c.gif,images/stimuli/spore_stims/simple_12_B_c.gif,NA,NA,NA,NA,8,simple_dissimilar,images/stimuli/spore_stims/simple_12_B_c.gif,left,NA,NA,NA,NA,NA
NA,null,html-keyboard-response,156,380087,0.0-32.0-0.2,SS1613021720387,NA,NA,null,NA,NA,NA,NA,"<p><img src= images/blank.png width =""200"" height = ""200"" style = ""float:right""></p><p><img src=images/blank.png width =""800"" height = ""200""></p>",NA,NA,NA,NA,NA,NA,NA,NA,NA,NA,NA,NA
NA,875.44999999227,sequential-stimulus-presentation,157,381780,0.0-32.0-1.2,SS1613021720387,trial,NA,40,800,1675.44999999227,images/stimuli/spore_stims/simple_20_B_c.gif,images/stimuli/spore_stims/simple_12_B_c.gif,NA,NA,NA,NA,8,simple_dissimilar,images/stimuli/spore_stims/simple_12_B_c.gif,left,NA,NA,NA,NA,NA
NA,null,html-keyboard-response,158,383020,0.0-32.0-0.3,SS1613021720387,NA,NA,null,NA,NA,NA,NA,"<p><img src= images/blank.png width =""200"" height = ""200"" style = ""float:right""></p><p><img src=images/blank.png width =""800"" height = ""200""></p>",NA,NA,NA,NA,NA,NA,NA,NA,NA,NA,NA,NA
NA,354.2299999971874,sequential-stimulus-presentation,159,384185,0.0-32.0-1.3,SS1613021720387,trial,NA,40,800,1154.2299999971874,images/stimuli/spore_stims/simple_20_B_c.gif,images/stimuli/spore_stims/simple_12_B_c.gif,NA,NA,NA,NA,8,simple_dissimilar,images/stimuli/spore_stims/simple_12_B_c.gif,left,NA,NA,NA,NA,NA
NA,null,html-keyboard-response,160,385258,0.0-32.0-0.4,SS1613021720387,NA,NA,null,NA,NA,NA,NA,"<p><img src= images/blank.png width =""200"" height = ""200"" style = ""float:right""></p><p><img src=images/blank.png width =""800"" height = ""200""></p>",NA,NA,NA,NA,NA,NA,NA,NA,NA,NA,NA,NA
NA,1752.2699999972247,sequential-stimulus-presentation,161,387819,0.0-32.0-1.4,SS1613021720387,trial,NA,40,800,2552.2699999972247,images/stimuli/spore_stims/simple_20_B_c.gif,images/stimuli/spore_stims/simple_12_B_c.gif,NA,NA,NA,NA,8,simple_dissimilar,images/stimuli/spore_stims/simple_12_B_c.gif,left,NA,NA,NA,NA,NA
NA,null,html-keyboard-response,162,388861,0.0-32.0-0.5,SS1613021720387,NA,NA,null,NA,NA,NA,NA,"<p><img src= images/blank.png width =""200"" height = ""200"" style = ""float:right""></p><p><img src=images/blank.png width =""800"" height = ""200""></p>",NA,NA,NA,NA,NA,NA,NA,NA,NA,NA,NA,NA
NA,621.2150000501424,sequential-stimulus-presentation,163,390289,0.0-32.0-1.5,SS1613021720387,trial,NA,40,800,1421.2150000501424,images/stimuli/spore_stims/simple_20_B_c.gif,images/stimuli/spore_stims/simple_12_B_c.gif,NA,NA,NA,NA,8,simple_dissimilar,images/stimuli/spore_stims/simple_12_B_c.gif,left,NA,NA,NA,NA,NA
NA,null,html-keyboard-response,164,391585,0.0-32.0-0.6,SS1613021720387,NA,NA,null,NA,NA,NA,NA,"<p><img src= images/blank.png width =""200"" height = ""200"" style = ""float:right""></p><p><img src=images/blank.png width =""800"" height = ""200""></p>",NA,NA,NA,NA,NA,NA,NA,NA,NA,NA,NA,NA
NA,9.415000036824495,sequential-stimulus-presentation,165,392402,0.0-32.0-1.6,SS1613021720387,trial,NA,40,800,809.4150000368245,images/stimuli/spore_stims/simple_20_B_c.gif,images/stimuli/spore_stims/simple_12_B_c.gif,NA,NA,NA,NA,8,simple_dissimilar,images/stimuli/spore_stims/simple_12_B_c.gif,left,NA,NA,NA,NA,NA
NA,null,html-keyboard-response,166,393611,0.0-32.0-0.7,SS1613021720387,NA,NA,null,NA,NA,NA,NA,"<p><img src= images/blank.png width =""200"" height = ""200"" style = ""float:right""></p><p><img src=images/blank.png width =""800"" height = ""200""></p>",NA,NA,NA,NA,NA,NA,NA,NA,NA,NA,NA,NA
NA,524.4799999636598,sequential-stimulus-presentation,167,394947,0.0-32.0-1.7,SS1613021720387,trial,NA,40,800,1324.4799999636598,images/stimuli/spore_stims/simple_20_B_c.gif,images/stimuli/spore_stims/simple_12_B_c.gif,NA,NA,NA,NA,8,simple_dissimilar,images/stimuli/spore_stims/simple_20_B_c.gif,middle,NA,NA,NA,NA,NA
NA,895.5999999889173,html-keyboard-response,168,395850,0.0-33.0,SS1613021720387,pref_question,NA,50,NA,NA,NA,NA,<video width ='960' height = '540' style='padding-top:8%' autoplay muted><source src='images/stimuli/wall_pref.mp4' type='video/mp4'></video>,2,middle,45%,8,NA,NA,NA,NA,NA,NA,NA,NA
NA,328.0549999908544,sequential-stimulus-presentation,169,396985,0.0-34.0,SS1613021720387,pref_reveal,NA,40,800,1128.0549999908544,null,null,NA,NA,NA,NA,8,NA,NA,NA,deviant,NA,NA,NA,NA
NA,null,html-keyboard-response,170,398159,0.0-35.0-0.0,SS1613021720387,NA,NA,null,NA,NA,NA,NA,"<p><img src= images/blank.png width =""200"" height = ""200"" style = ""float:right""></p><p><img src=images/blank.png width =""800"" height = ""200""></p>",NA,NA,NA,NA,NA,NA,NA,NA,NA,NA,NA,NA
NA,195.31999999890104,sequential-stimulus-presentation,171,399164,0.0-35.0-1.0,SS1613021720387,trial,NA,40,800,995.319999998901,images/stimuli/spore_stims/complex_16_A_d.gif,images/stimuli/spore_stims/complex_12_A_d.gif,NA,NA,NA,NA,9,complex_dissimilar,images/stimuli/spore_stims/complex_12_A_d.gif,left,NA,NA,NA,NA,NA
NA,null,html-keyboard-response,172,400019,0.0-35.0-0.1,SS1613021720387,NA,NA,null,NA,NA,NA,NA,"<p><img src= images/blank.png width =""200"" height = ""200"" style = ""float:right""></p><p><img src=images/blank.png width =""800"" height = ""200""></p>",NA,NA,NA,NA,NA,NA,NA,NA,NA,NA,NA,NA
NA,96.59000003011897,sequential-stimulus-presentation,173,400929,0.0-35.0-1.1,SS1613021720387,trial,NA,40,800,896.590000030119,images/stimuli/spore_stims/complex_16_A_d.gif,images/stimuli/spore_stims/complex_12_A_d.gif,NA,NA,NA,NA,9,complex_dissimilar,images/stimuli/spore_stims/complex_12_A_d.gif,left,NA,NA,NA,NA,NA
NA,null,html-keyboard-response,174,402128,0.0-35.0-0.2,SS1613021720387,NA,NA,null,NA,NA,NA,NA,"<p><img src= images/blank.png width =""200"" height = ""200"" style = ""float:right""></p><p><img src=images/blank.png width =""800"" height = ""200""></p>",NA,NA,NA,NA,NA,NA,NA,NA,NA,NA,NA,NA
NA,74.52999998349696,sequential-stimulus-presentation,175,403010,0.0-35.0-1.2,SS1613021720387,trial,NA,40,800,874.529999983497,images/stimuli/spore_stims/complex_16_A_d.gif,images/stimuli/spore_stims/complex_12_A_d.gif,NA,NA,NA,NA,9,complex_dissimilar,images/stimuli/spore_stims/complex_12_A_d.gif,left,NA,NA,NA,NA,NA
NA,null,html-keyboard-response,176,403970,0.0-35.0-0.3,SS1613021720387,NA,NA,null,NA,NA,NA,NA,"<p><img src= images/blank.png width =""200"" height = ""200"" style = ""float:right""></p><p><img src=images/blank.png width =""800"" height = ""200""></p>",NA,NA,NA,NA,NA,NA,NA,NA,NA,NA,NA,NA
NA,613.5299999732524,sequential-stimulus-presentation,177,405395,0.0-35.0-1.3,SS1613021720387,trial,NA,40,800,1413.5299999732524,images/stimuli/spore_stims/complex_16_A_d.gif,images/stimuli/spore_stims/complex_12_A_d.gif,NA,NA,NA,NA,9,complex_dissimilar,images/stimuli/spore_stims/complex_16_A_d.gif,right,NA,NA,NA,NA,NA
NA,null,html-keyboard-response,178,406560,0.0-35.0-0.4,SS1613021720387,NA,NA,null,NA,NA,NA,NA,"<p><img src= images/blank.png width =""200"" height = ""200"" style = ""float:right""></p><p><img src=images/blank.png width =""800"" height = ""200""></p>",NA,NA,NA,NA,NA,NA,NA,NA,NA,NA,NA,NA
NA,26.095000037457794,sequential-stimulus-presentation,179,407395,0.0-35.0-1.4,SS1613021720387,trial,NA,40,800,826.0950000374578,images/stimuli/spore_stims/complex_16_A_d.gif,images/stimuli/spore_stims/complex_12_A_d.gif,NA,NA,NA,NA,9,complex_dissimilar,images/stimuli/spore_stims/complex_12_A_d.gif,left,NA,NA,NA,NA,NA
NA,null,html-keyboard-response,180,408461,0.0-35.0-0.5,SS1613021720387,NA,NA,null,NA,NA,NA,NA,"<p><img src= images/blank.png width =""200"" height = ""200"" style = ""float:right""></p><p><img src=images/blank.png width =""800"" height = ""200""></p>",NA,NA,NA,NA,NA,NA,NA,NA,NA,NA,NA,NA
NA,520.1349999988452,sequential-stimulus-presentation,181,409803,0.0-35.0-1.5,SS1613021720387,trial,NA,40,800,1320.1349999988452,images/stimuli/spore_stims/complex_16_A_d.gif,images/stimuli/spore_stims/complex_12_A_d.gif,NA,NA,NA,NA,9,complex_dissimilar,images/stimuli/spore_stims/complex_12_A_d.gif,left,NA,NA,NA,NA,NA
NA,null,html-keyboard-response,182,410831,0.0-35.0-0.6,SS1613021720387,NA,NA,null,NA,NA,NA,NA,"<p><img src= images/blank.png width =""200"" height = ""200"" style = ""float:right""></p><p><img src=images/blank.png width =""800"" height = ""200""></p>",NA,NA,NA,NA,NA,NA,NA,NA,NA,NA,NA,NA
NA,251.78000004962087,sequential-stimulus-presentation,183,411892,0.0-35.0-1.6,SS1613021720387,trial,NA,40,800,1051.7800000496209,images/stimuli/spore_stims/complex_16_A_d.gif,images/stimuli/spore_stims/complex_12_A_d.gif,NA,NA,NA,NA,9,complex_dissimilar,images/stimuli/spore_stims/complex_12_A_d.gif,left,NA,NA,NA,NA,NA
NA,null,html-keyboard-response,184,412825,0.0-35.0-0.7,SS1613021720387,NA,NA,null,NA,NA,NA,NA,"<p><img src= images/blank.png width =""200"" height = ""200"" style = ""float:right""></p><p><img src=images/blank.png width =""800"" height = ""200""></p>",NA,NA,NA,NA,NA,NA,NA,NA,NA,NA,NA,NA
NA,222.20499999821186,sequential-stimulus-presentation,185,413858,0.0-35.0-1.7,SS1613021720387,trial,NA,40,800,1022.2049999982119,images/stimuli/spore_stims/complex_16_A_d.gif,images/stimuli/spore_stims/complex_12_A_d.gif,NA,NA,NA,NA,9,complex_dissimilar,images/stimuli/spore_stims/complex_12_A_d.gif,left,NA,NA,NA,NA,NA
NA,858.8899999740534,html-keyboard-response,186,414721,0.0-36.0,SS1613021720387,pref_question,NA,51,NA,NA,NA,NA,<video width ='960' height = '540' style='padding-top:8%' autoplay muted><source src='images/stimuli/wall_pref.mp4' type='video/mp4'></video>,3,right,66%,9,NA,NA,NA,NA,NA,NA,NA,NA
NA,332.51499995822087,sequential-stimulus-presentation,187,415865,0.0-37.0,SS1613021720387,pref_reveal,NA,40,800,1132.5149999582209,null,null,NA,NA,NA,NA,9,NA,NA,NA,deviant,NA,NA,NA,NA
NA,null,html-keyboard-response,188,416685,0.0-38.0-0.0,SS1613021720387,NA,NA,null,NA,NA,NA,NA,"<p><img src= images/blank.png width =""200"" height = ""200"" style = ""float:right""></p><p><img src=images/blank.png width =""800"" height = ""200""></p>",NA,NA,NA,NA,NA,NA,NA,NA,NA,NA,NA,NA
NA,475.70499998982996,sequential-stimulus-presentation,189,417972,0.0-38.0-1.0,SS1613021720387,trial,NA,40,800,1275.70499998983,images/stimuli/spore_stims/simple_17_B_b.gif,images/stimuli/spore_stims/simple_17_A_b.gif,NA,NA,NA,NA,10,simple_similar,images/stimuli/spore_stims/simple_17_A_b.gif,right,NA,NA,NA,NA,NA
NA,null,html-keyboard-response,190,419085,0.0-38.0-0.1,SS1613021720387,NA,NA,null,NA,NA,NA,NA,"<p><img src= images/blank.png width =""200"" height = ""200"" style = ""float:right""></p><p><img src=images/blank.png width =""800"" height = ""200""></p>",NA,NA,NA,NA,NA,NA,NA,NA,NA,NA,NA,NA
NA,354.86999998101965,sequential-stimulus-presentation,191,420249,0.0-38.0-1.1,SS1613021720387,trial,NA,40,800,1154.8699999810196,images/stimuli/spore_stims/simple_17_B_b.gif,images/stimuli/spore_stims/simple_17_A_b.gif,NA,NA,NA,NA,10,simple_similar,images/stimuli/spore_stims/simple_17_A_b.gif,right,NA,NA,NA,NA,NA
NA,null,html-keyboard-response,192,421382,0.0-38.0-0.2,SS1613021720387,NA,NA,null,NA,NA,NA,NA,"<p><img src= images/blank.png width =""200"" height = ""200"" style = ""float:right""></p><p><img src=images/blank.png width =""800"" height = ""200""></p>",NA,NA,NA,NA,NA,NA,NA,NA,NA,NA,NA,NA
NA,125.27499999850988,sequential-stimulus-presentation,193,422319,0.0-38.0-1.2,SS1613021720387,trial,NA,40,800,925.2749999985099,images/stimuli/spore_stims/simple_17_B_b.gif,images/stimuli/spore_stims/simple_17_A_b.gif,NA,NA,NA,NA,10,simple_similar,images/stimuli/spore_stims/simple_17_A_b.gif,right,NA,NA,NA,NA,NA
NA,null,html-keyboard-response,194,423438,0.0-38.0-0.3,SS1613021720387,NA,NA,null,NA,NA,NA,NA,"<p><img src= images/blank.png width =""200"" height = ""200"" style = ""float:right""></p><p><img src=images/blank.png width =""800"" height = ""200""></p>",NA,NA,NA,NA,NA,NA,NA,NA,NA,NA,NA,NA
NA,286.35499998927116,sequential-stimulus-presentation,195,424547,0.0-38.0-1.3,SS1613021720387,trial,NA,40,800,1086.3549999892712,images/stimuli/spore_stims/simple_17_B_b.gif,images/stimuli/spore_stims/simple_17_A_b.gif,NA,NA,NA,NA,10,simple_similar,images/stimuli/spore_stims/simple_17_A_b.gif,right,NA,NA,NA,NA,NA
NA,null,html-keyboard-response,196,425617,0.0-38.0-0.4,SS1613021720387,NA,NA,null,NA,NA,NA,NA,"<p><img src= images/blank.png width =""200"" height = ""200"" style = ""float:right""></p><p><img src=images/blank.png width =""800"" height = ""200""></p>",NA,NA,NA,NA,NA,NA,NA,NA,NA,NA,NA,NA
NA,20.93500003684312,sequential-stimulus-presentation,197,426446,0.0-38.0-1.4,SS1613021720387,trial,NA,40,800,820.9350000368431,images/stimuli/spore_stims/simple_17_B_b.gif,images/stimuli/spore_stims/simple_17_A_b.gif,NA,NA,NA,NA,10,simple_similar,images/stimuli/spore_stims/simple_17_A_b.gif,right,NA,NA,NA,NA,NA
NA,null,html-keyboard-response,198,427683,0.0-38.0-0.5,SS1613021720387,NA,NA,null,NA,NA,NA,NA,"<p><img src= images/blank.png width =""200"" height = ""200"" style = ""float:right""></p><p><img src=images/blank.png width =""800"" height = ""200""></p>",NA,NA,NA,NA,NA,NA,NA,NA,NA,NA,NA,NA
NA,229.24499999498948,sequential-stimulus-presentation,199,428720,0.0-38.0-1.5,SS1613021720387,trial,NA,40,800,1029.2449999949895,images/stimuli/spore_stims/simple_17_B_b.gif,images/stimuli/spore_stims/simple_17_A_b.gif,NA,NA,NA,NA,10,simple_similar,images/stimuli/spore_stims/simple_17_A_b.gif,right,NA,NA,NA,NA,NA
NA,null,html-keyboard-response,200,429657,0.0-38.0-0.6,SS1613021720387,NA,NA,null,NA,NA,NA,NA,"<p><img src= images/blank.png width =""200"" height = ""200"" style = ""float:right""></p><p><img src=images/blank.png width =""800"" height = ""200""></p>",NA,NA,NA,NA,NA,NA,NA,NA,NA,NA,NA,NA
NA,280.655000009574,sequential-stimulus-presentation,201,430747,0.0-38.0-1.6,SS1613021720387,trial,NA,40,800,1080.655000009574,images/stimuli/spore_stims/simple_17_B_b.gif,images/stimuli/spore_stims/simple_17_A_b.gif,NA,NA,NA,NA,10,simple_similar,images/stimuli/spore_stims/simple_17_B_b.gif,middle,NA,NA,NA,NA,NA
NA,null,html-keyboard-response,202,431788,0.0-38.0-0.7,SS1613021720387,NA,NA,null,NA,NA,NA,NA,"<p><img src= images/blank.png width =""200"" height = ""200"" style = ""float:right""></p><p><img src=images/blank.png width =""800"" height = ""200""></p>",NA,NA,NA,NA,NA,NA,NA,NA,NA,NA,NA,NA
NA,435.7850000378676,sequential-stimulus-presentation,203,433034,0.0-38.0-1.7,SS1613021720387,trial,NA,40,800,1235.7850000378676,images/stimuli/spore_stims/simple_17_B_b.gif,images/stimuli/spore_stims/simple_17_A_b.gif,NA,NA,NA,NA,10,simple_similar,images/stimuli/spore_stims/simple_17_A_b.gif,right,NA,NA,NA,NA,NA
NA,1139.4100000034086,html-keyboard-response,204,434179,0.0-39.0,SS1613021720387,pref_question,NA,51,NA,NA,NA,NA,<video width ='960' height = '540' style='padding-top:8%' autoplay muted><source src='images/stimuli/wall_pref.mp4' type='video/mp4'></video>,3,right,66%,10,NA,NA,NA,NA,NA,NA,NA,NA
NA,444.3500000052154,sequential-stimulus-presentation,205,435435,0.0-40.0,SS1613021720387,pref_reveal,NA,40,800,1244.3500000052154,null,null,NA,NA,NA,NA,10,NA,NA,NA,background,NA,NA,NA,NA
NA,null,html-keyboard-response,206,436606,0.0-41.0-0.0,SS1613021720387,NA,NA,null,NA,NA,NA,NA,"<p><img src= images/blank.png width =""200"" height = ""200"" style = ""float:right""></p><p><img src=images/blank.png width =""800"" height = ""200""></p>",NA,NA,NA,NA,NA,NA,NA,NA,NA,NA,NA,NA
NA,708.9450000203215,sequential-stimulus-presentation,207,438129,0.0-41.0-1.0,SS1613021720387,trial,NA,40,800,1508.9450000203215,images/stimuli/spore_stims/complex_10_B_d.gif,images/stimuli/spore_stims/complex_03_B_b.gif,NA,NA,NA,NA,11,complex_dissimilar,images/stimuli/spore_stims/complex_03_B_b.gif,middle,NA,NA,NA,NA,NA
NA,null,html-keyboard-response,208,439384,0.0-41.0-0.1,SS1613021720387,NA,NA,null,NA,NA,NA,NA,"<p><img src= images/blank.png width =""200"" height = ""200"" style = ""float:right""></p><p><img src=images/blank.png width =""800"" height = ""200""></p>",NA,NA,NA,NA,NA,NA,NA,NA,NA,NA,NA,NA
NA,197.8549999766983,sequential-stimulus-presentation,209,440395,0.0-41.0-1.1,SS1613021720387,trial,NA,40,800,997.8549999766983,images/stimuli/spore_stims/complex_10_B_d.gif,images/stimuli/spore_stims/complex_03_B_b.gif,NA,NA,NA,NA,11,complex_dissimilar,images/stimuli/spore_stims/complex_03_B_b.gif,middle,NA,NA,NA,NA,NA
NA,null,html-keyboard-response,210,441258,0.0-41.0-0.2,SS1613021720387,NA,NA,null,NA,NA,NA,NA,"<p><img src= images/blank.png width =""200"" height = ""200"" style = ""float:right""></p><p><img src=images/blank.png width =""800"" height = ""200""></p>",NA,NA,NA,NA,NA,NA,NA,NA,NA,NA,NA,NA
NA,475.83499999018386,sequential-stimulus-presentation,211,442548,0.0-41.0-1.2,SS1613021720387,trial,NA,40,800,1275.8349999901839,images/stimuli/spore_stims/complex_10_B_d.gif,images/stimuli/spore_stims/complex_03_B_b.gif,NA,NA,NA,NA,11,complex_dissimilar,images/stimuli/spore_stims/complex_10_B_d.gif,left,NA,NA,NA,NA,NA
NA,null,html-keyboard-response,212,443580,0.0-41.0-0.3,SS1613021720387,NA,NA,null,NA,NA,NA,NA,"<p><img src= images/blank.png width =""200"" height = ""200"" style = ""float:right""></p><p><img src=images/blank.png width =""800"" height = ""200""></p>",NA,NA,NA,NA,NA,NA,NA,NA,NA,NA,NA,NA
NA,641.0150000010617,sequential-stimulus-presentation,213,445035,0.0-41.0-1.3,SS1613021720387,trial,NA,40,800,1441.0150000010617,images/stimuli/spore_stims/complex_10_B_d.gif,images/stimuli/spore_stims/complex_03_B_b.gif,NA,NA,NA,NA,11,complex_dissimilar,images/stimuli/spore_stims/complex_03_B_b.gif,middle,NA,NA,NA,NA,NA
NA,null,html-keyboard-response,214,446005,0.0-41.0-0.4,SS1613021720387,NA,NA,null,NA,NA,NA,NA,"<p><img src= images/blank.png width =""200"" height = ""200"" style = ""float:right""></p><p><img src=images/blank.png width =""800"" height = ""200""></p>",NA,NA,NA,NA,NA,NA,NA,NA,NA,NA,NA,NA
NA,313.3450000314042,sequential-stimulus-presentation,215,447130,0.0-41.0-1.4,SS1613021720387,trial,NA,40,800,1113.3450000314042,images/stimuli/spore_stims/complex_10_B_d.gif,images/stimuli/spore_stims/complex_03_B_b.gif,NA,NA,NA,NA,11,complex_dissimilar,images/stimuli/spore_stims/complex_03_B_b.gif,middle,NA,NA,NA,NA,NA
NA,null,html-keyboard-response,216,448270,0.0-41.0-0.5,SS1613021720387,NA,NA,null,NA,NA,NA,NA,"<p><img src= images/blank.png width =""200"" height = ""200"" style = ""float:right""></p><p><img src=images/blank.png width =""800"" height = ""200""></p>",NA,NA,NA,NA,NA,NA,NA,NA,NA,NA,NA,NA
NA,436.165000020992,sequential-stimulus-presentation,217,449513,0.0-41.0-1.5,SS1613021720387,trial,NA,40,800,1236.165000020992,images/stimuli/spore_stims/complex_10_B_d.gif,images/stimuli/spore_stims/complex_03_B_b.gif,NA,NA,NA,NA,11,complex_dissimilar,images/stimuli/spore_stims/complex_03_B_b.gif,middle,NA,NA,NA,NA,NA
NA,null,html-keyboard-response,218,450714,0.0-41.0-0.6,SS1613021720387,NA,NA,null,NA,NA,NA,NA,"<p><img src= images/blank.png width =""200"" height = ""200"" style = ""float:right""></p><p><img src=images/blank.png width =""800"" height = ""200""></p>",NA,NA,NA,NA,NA,NA,NA,NA,NA,NA,NA,NA
NA,80.59999998658895,sequential-stimulus-presentation,219,451601,0.0-41.0-1.6,SS1613021720387,trial,NA,40,800,880.599999986589,images/stimuli/spore_stims/complex_10_B_d.gif,images/stimuli/spore_stims/complex_03_B_b.gif,NA,NA,NA,NA,11,complex_dissimilar,images/stimuli/spore_stims/complex_03_B_b.gif,middle,NA,NA,NA,NA,NA
NA,null,html-keyboard-response,220,452814,0.0-41.0-0.7,SS1613021720387,NA,NA,null,NA,NA,NA,NA,"<p><img src= images/blank.png width =""200"" height = ""200"" style = ""float:right""></p><p><img src=images/blank.png width =""800"" height = ""200""></p>",NA,NA,NA,NA,NA,NA,NA,NA,NA,NA,NA,NA
NA,821.3649999815971,sequential-stimulus-presentation,221,454447,0.0-41.0-1.7,SS1613021720387,trial,NA,40,800,1621.364999981597,images/stimuli/spore_stims/complex_10_B_d.gif,images/stimuli/spore_stims/complex_03_B_b.gif,NA,NA,NA,NA,11,complex_dissimilar,images/stimuli/spore_stims/complex_03_B_b.gif,middle,NA,NA,NA,NA,NA
NA,1048.5450000269338,html-keyboard-response,222,455501,0.0-42.0,SS1613021720387,pref_question,NA,49,NA,NA,NA,NA,<video width ='960' height = '540' style='padding-top:8%' autoplay muted><source src='images/stimuli/wall_pref.mp4' type='video/mp4'></video>,1,left,25%,11,NA,NA,NA,NA,NA,NA,NA,NA
NA,625.8299999753945,sequential-stimulus-presentation,223,456938,0.0-43.0,SS1613021720387,pref_reveal,NA,40,800,1425.8299999753945,null,null,NA,NA,NA,NA,11,NA,NA,NA,deviant,NA,NA,NA,NA
NA,null,html-keyboard-response,224,457880,0.0-44.0-0.0,SS1613021720387,NA,NA,null,NA,NA,NA,NA,"<p><img src= images/blank.png width =""200"" height = ""200"" style = ""float:right""></p><p><img src=images/blank.png width =""800"" height = ""200""></p>",NA,NA,NA,NA,NA,NA,NA,NA,NA,NA,NA,NA
NA,166.63499997230247,sequential-stimulus-presentation,225,458858,0.0-44.0-1.0,SS1613021720387,trial,NA,40,800,966.6349999723025,images/stimuli/spore_stims/complex_19_B_b.gif,images/stimuli/spore_stims/complex_19_A_b.gif,NA,NA,NA,NA,12,complex_similar,images/stimuli/spore_stims/complex_19_A_b.gif,right,NA,NA,NA,NA,NA
NA,null,html-keyboard-response,226,459745,0.0-44.0-0.1,SS1613021720387,NA,NA,null,NA,NA,NA,NA,"<p><img src= images/blank.png width =""200"" height = ""200"" style = ""float:right""></p><p><img src=images/blank.png width =""800"" height = ""200""></p>",NA,NA,NA,NA,NA,NA,NA,NA,NA,NA,NA,NA
NA,603.705000015907,sequential-stimulus-presentation,227,461170,0.0-44.0-1.1,SS1613021720387,trial,NA,40,800,1403.705000015907,images/stimuli/spore_stims/complex_19_B_b.gif,images/stimuli/spore_stims/complex_19_A_b.gif,NA,NA,NA,NA,12,complex_similar,images/stimuli/spore_stims/complex_19_A_b.gif,right,NA,NA,NA,NA,NA
NA,null,html-keyboard-response,228,462297,0.0-44.0-0.2,SS1613021720387,NA,NA,null,NA,NA,NA,NA,"<p><img src= images/blank.png width =""200"" height = ""200"" style = ""float:right""></p><p><img src=images/blank.png width =""800"" height = ""200""></p>",NA,NA,NA,NA,NA,NA,NA,NA,NA,NA,NA,NA
NA,506.180000025779,sequential-stimulus-presentation,229,463613,0.0-44.0-1.2,SS1613021720387,trial,NA,40,800,1306.180000025779,images/stimuli/spore_stims/complex_19_B_b.gif,images/stimuli/spore_stims/complex_19_A_b.gif,NA,NA,NA,NA,12,complex_similar,images/stimuli/spore_stims/complex_19_A_b.gif,right,NA,NA,NA,NA,NA
NA,null,html-keyboard-response,230,464648,0.0-44.0-0.3,SS1613021720387,NA,NA,null,NA,NA,NA,NA,"<p><img src= images/blank.png width =""200"" height = ""200"" style = ""float:right""></p><p><img src=images/blank.png width =""800"" height = ""200""></p>",NA,NA,NA,NA,NA,NA,NA,NA,NA,NA,NA,NA
NA,830.6899999734014,sequential-stimulus-presentation,231,466292,0.0-44.0-1.3,SS1613021720387,trial,NA,40,800,1630.6899999734014,images/stimuli/spore_stims/complex_19_B_b.gif,images/stimuli/spore_stims/complex_19_A_b.gif,NA,NA,NA,NA,12,complex_similar,images/stimuli/spore_stims/complex_19_A_b.gif,right,NA,NA,NA,NA,NA
NA,null,html-keyboard-response,232,467146,0.0-44.0-0.4,SS1613021720387,NA,NA,null,NA,NA,NA,NA,"<p><img src= images/blank.png width =""200"" height = ""200"" style = ""float:right""></p><p><img src=images/blank.png width =""800"" height = ""200""></p>",NA,NA,NA,NA,NA,NA,NA,NA,NA,NA,NA,NA
NA,359.07999996561557,sequential-stimulus-presentation,233,468315,0.0-44.0-1.4,SS1613021720387,trial,NA,40,800,1159.0799999656156,images/stimuli/spore_stims/complex_19_B_b.gif,images/stimuli/spore_stims/complex_19_A_b.gif,NA,NA,NA,NA,12,complex_similar,images/stimuli/spore_stims/complex_19_A_b.gif,right,NA,NA,NA,NA,NA
NA,null,html-keyboard-response,234,469302,0.0-44.0-0.5,SS1613021720387,NA,NA,null,NA,NA,NA,NA,"<p><img src= images/blank.png width =""200"" height = ""200"" style = ""float:right""></p><p><img src=images/blank.png width =""800"" height = ""200""></p>",NA,NA,NA,NA,NA,NA,NA,NA,NA,NA,NA,NA
NA,242.57000000216067,sequential-stimulus-presentation,235,470355,0.0-44.0-1.5,SS1613021720387,trial,NA,40,800,1042.5700000021607,images/stimuli/spore_stims/complex_19_B_b.gif,images/stimuli/spore_stims/complex_19_A_b.gif,NA,NA,NA,NA,12,complex_similar,images/stimuli/spore_stims/complex_19_B_b.gif,middle,NA,NA,NA,NA,NA
NA,null,html-keyboard-response,236,471486,0.0-44.0-0.6,SS1613021720387,NA,NA,null,NA,NA,NA,NA,"<p><img src= images/blank.png width =""200"" height = ""200"" style = ""float:right""></p><p><img src=images/blank.png width =""800"" height = ""200""></p>",NA,NA,NA,NA,NA,NA,NA,NA,NA,NA,NA,NA
NA,543.5449999640696,sequential-stimulus-presentation,237,472842,0.0-44.0-1.6,SS1613021720387,trial,NA,40,800,1343.5449999640696,images/stimuli/spore_stims/complex_19_B_b.gif,images/stimuli/spore_stims/complex_19_A_b.gif,NA,NA,NA,NA,12,complex_similar,images/stimuli/spore_stims/complex_19_A_b.gif,right,NA,NA,NA,NA,NA
NA,null,html-keyboard-response,238,473786,0.0-44.0-0.7,SS1613021720387,NA,NA,null,NA,NA,NA,NA,"<p><img src= images/blank.png width =""200"" height = ""200"" style = ""float:right""></p><p><img src=images/blank.png width =""800"" height = ""200""></p>",NA,NA,NA,NA,NA,NA,NA,NA,NA,NA,NA,NA
NA,511.03000005241483,sequential-stimulus-presentation,239,475108,0.0-44.0-1.7,SS1613021720387,trial,NA,40,800,1311.0300000524148,images/stimuli/spore_stims/complex_19_B_b.gif,images/stimuli/spore_stims/complex_19_A_b.gif,NA,NA,NA,NA,12,complex_similar,images/stimuli/spore_stims/complex_19_A_b.gif,right,NA,NA,NA,NA,NA
NA,905.0150000257418,html-keyboard-response,240,476020,0.0-45.0,SS1613021720387,pref_question,NA,50,NA,NA,NA,NA,<video width ='960' height = '540' style='padding-top:8%' autoplay muted><source src='images/stimuli/wall_pref.mp4' type='video/mp4'></video>,2,middle,45%,12,NA,NA,NA,NA,NA,NA,NA,NA
NA,267.57000002544373,sequential-stimulus-presentation,241,477108,0.0-46.0,SS1613021720387,pref_reveal,NA,40,800,1067.5700000254437,null,null,NA,NA,NA,NA,12,NA,NA,NA,deviant,NA,NA,NA,NA
NA,null,html-keyboard-response,242,478098,0.0-47.0-0.0,SS1613021720387,NA,NA,null,NA,NA,NA,NA,"<p><img src= images/blank.png width =""200"" height = ""200"" style = ""float:right""></p><p><img src=images/blank.png width =""800"" height = ""200""></p>",NA,NA,NA,NA,NA,NA,NA,NA,NA,NA,NA,NA
NA,72.0450000371784,sequential-stimulus-presentation,243,478991,0.0-47.0-1.0,SS1613021720387,trial,NA,40,800,872.0450000371784,images/stimuli/spore_stims/complex_20_A_a.gif,images/stimuli/spore_stims/complex_20_B_a.gif,NA,NA,NA,NA,13,complex_similar,images/stimuli/spore_stims/complex_20_B_a.gif,right,NA,NA,NA,NA,NA
NA,null,html-keyboard-response,244,480043,0.0-47.0-0.1,SS1613021720387,NA,NA,null,NA,NA,NA,NA,"<p><img src= images/blank.png width =""200"" height = ""200"" style = ""float:right""></p><p><img src=images/blank.png width =""800"" height = ""200""></p>",NA,NA,NA,NA,NA,NA,NA,NA,NA,NA,NA,NA
NA,151.16000000853091,sequential-stimulus-presentation,245,481004,0.0-47.0-1.1,SS1613021720387,trial,NA,40,800,951.1600000085309,images/stimuli/spore_stims/complex_20_A_a.gif,images/stimuli/spore_stims/complex_20_B_a.gif,NA,NA,NA,NA,13,complex_similar,images/stimuli/spore_stims/complex_20_B_a.gif,right,NA,NA,NA,NA,NA
NA,null,html-keyboard-response,246,482084,0.0-47.0-0.2,SS1613021720387,NA,NA,null,NA,NA,NA,NA,"<p><img src= images/blank.png width =""200"" height = ""200"" style = ""float:right""></p><p><img src=images/blank.png width =""800"" height = ""200""></p>",NA,NA,NA,NA,NA,NA,NA,NA,NA,NA,NA,NA
NA,379.2200000025332,sequential-stimulus-presentation,247,483274,0.0-47.0-1.2,SS1613021720387,trial,NA,40,800,1179.2200000025332,images/stimuli/spore_stims/complex_20_A_a.gif,images/stimuli/spore_stims/complex_20_B_a.gif,NA,NA,NA,NA,13,complex_similar,images/stimuli/spore_stims/complex_20_A_a.gif,left,NA,NA,NA,NA,NA
NA,null,html-keyboard-response,248,484228,0.0-47.0-0.3,SS1613021720387,NA,NA,null,NA,NA,NA,NA,"<p><img src= images/blank.png width =""200"" height = ""200"" style = ""float:right""></p><p><img src=images/blank.png width =""800"" height = ""200""></p>",NA,NA,NA,NA,NA,NA,NA,NA,NA,NA,NA,NA
NA,553.4999999799766,sequential-stimulus-presentation,249,485593,0.0-47.0-1.3,SS1613021720387,trial,NA,40,800,1353.4999999799766,images/stimuli/spore_stims/complex_20_A_a.gif,images/stimuli/spore_stims/complex_20_B_a.gif,NA,NA,NA,NA,13,complex_similar,images/stimuli/spore_stims/complex_20_B_a.gif,right,NA,NA,NA,NA,NA
NA,null,html-keyboard-response,250,486625,0.0-47.0-0.4,SS1613021720387,NA,NA,null,NA,NA,NA,NA,"<p><img src= images/blank.png width =""200"" height = ""200"" style = ""float:right""></p><p><img src=images/blank.png width =""800"" height = ""200""></p>",NA,NA,NA,NA,NA,NA,NA,NA,NA,NA,NA,NA
NA,40.824999974574894,sequential-stimulus-presentation,251,487480,0.0-47.0-1.4,SS1613021720387,trial,NA,40,800,840.8249999745749,images/stimuli/spore_stims/complex_20_A_a.gif,images/stimuli/spore_stims/complex_20_B_a.gif,NA,NA,NA,NA,13,complex_similar,images/stimuli/spore_stims/complex_20_B_a.gif,right,NA,NA,NA,NA,NA
NA,null,html-keyboard-response,252,488362,0.0-47.0-0.5,SS1613021720387,NA,NA,null,NA,NA,NA,NA,"<p><img src= images/blank.png width =""200"" height = ""200"" style = ""float:right""></p><p><img src=images/blank.png width =""800"" height = ""200""></p>",NA,NA,NA,NA,NA,NA,NA,NA,NA,NA,NA,NA
NA,348.9100000006147,sequential-stimulus-presentation,253,489524,0.0-47.0-1.5,SS1613021720387,trial,NA,40,800,1148.9100000006147,images/stimuli/spore_stims/complex_20_A_a.gif,images/stimuli/spore_stims/complex_20_B_a.gif,NA,NA,NA,NA,13,complex_similar,images/stimuli/spore_stims/complex_20_B_a.gif,right,NA,NA,NA,NA,NA
NA,null,html-keyboard-response,254,490435,0.0-47.0-0.6,SS1613021720387,NA,NA,null,NA,NA,NA,NA,"<p><img src= images/blank.png width =""200"" height = ""200"" style = ""float:right""></p><p><img src=images/blank.png width =""800"" height = ""200""></p>",NA,NA,NA,NA,NA,NA,NA,NA,NA,NA,NA,NA
NA,1070.114999951329,sequential-stimulus-presentation,255,492316,0.0-47.0-1.6,SS1613021720387,trial,NA,40,800,1870.114999951329,images/stimuli/spore_stims/complex_20_A_a.gif,images/stimuli/spore_stims/complex_20_B_a.gif,NA,NA,NA,NA,13,complex_similar,images/stimuli/spore_stims/complex_20_B_a.gif,right,NA,NA,NA,NA,NA
NA,null,html-keyboard-response,256,493146,0.0-47.0-0.7,SS1613021720387,NA,NA,null,NA,NA,NA,NA,"<p><img src= images/blank.png width =""200"" height = ""200"" style = ""float:right""></p><p><img src=images/blank.png width =""800"" height = ""200""></p>",NA,NA,NA,NA,NA,NA,NA,NA,NA,NA,NA,NA
NA,379.9950000247918,sequential-stimulus-presentation,257,494338,0.0-47.0-1.7,SS1613021720387,trial,NA,40,800,1179.9950000247918,images/stimuli/spore_stims/complex_20_A_a.gif,images/stimuli/spore_stims/complex_20_B_a.gif,NA,NA,NA,NA,13,complex_similar,images/stimuli/spore_stims/complex_20_B_a.gif,right,NA,NA,NA,NA,NA
NA,1107.335000007879,html-keyboard-response,258,495452,0.0-48.0,SS1613021720387,pref_question,NA,51,NA,NA,NA,NA,<video width ='960' height = '540' style='padding-top:8%' autoplay muted><source src='images/stimuli/wall_pref.mp4' type='video/mp4'></video>,3,right,66%,13,NA,NA,NA,NA,NA,NA,NA,NA
NA,240.30499998480082,sequential-stimulus-presentation,259,496502,0.0-49.0,SS1613021720387,pref_reveal,NA,40,800,1040.3049999848008,null,null,NA,NA,NA,NA,13,NA,NA,NA,background,NA,NA,NA,NA
NA,null,html-keyboard-response,260,497432,0.0-50.0-0.0,SS1613021720387,NA,NA,null,NA,NA,NA,NA,"<p><img src= images/blank.png width =""200"" height = ""200"" style = ""float:right""></p><p><img src=images/blank.png width =""800"" height = ""200""></p>",NA,NA,NA,NA,NA,NA,NA,NA,NA,NA,NA,NA
NA,593.8150000292808,sequential-stimulus-presentation,261,498850,0.0-50.0-1.0,SS1613021720387,trial,NA,40,800,1393.8150000292808,images/stimuli/spore_stims/simple_05_A_b.gif,images/stimuli/spore_stims/simple_18_B_b.gif,NA,NA,NA,NA,14,simple_dissimilar,images/stimuli/spore_stims/simple_18_B_b.gif,left,NA,NA,NA,NA,NA
NA,null,html-keyboard-response,262,499862,0.0-50.0-0.1,SS1613021720387,NA,NA,null,NA,NA,NA,NA,"<p><img src= images/blank.png width =""200"" height = ""200"" style = ""float:right""></p><p><img src=images/blank.png width =""800"" height = ""200""></p>",NA,NA,NA,NA,NA,NA,NA,NA,NA,NA,NA,NA
NA,1221.5849999920465,sequential-stimulus-presentation,263,501894,0.0-50.0-1.1,SS1613021720387,trial,NA,40,800,2021.5849999920465,images/stimuli/spore_stims/simple_05_A_b.gif,images/stimuli/spore_stims/simple_18_B_b.gif,NA,NA,NA,NA,14,simple_dissimilar,images/stimuli/spore_stims/simple_18_B_b.gif,left,NA,NA,NA,NA,NA
NA,null,html-keyboard-response,264,502968,0.0-50.0-0.2,SS1613021720387,NA,NA,null,NA,NA,NA,NA,"<p><img src= images/blank.png width =""200"" height = ""200"" style = ""float:right""></p><p><img src=images/blank.png width =""800"" height = ""200""></p>",NA,NA,NA,NA,NA,NA,NA,NA,NA,NA,NA,NA
NA,95.30499996617436,sequential-stimulus-presentation,265,503874,0.0-50.0-1.2,SS1613021720387,trial,NA,40,800,895.3049999661744,images/stimuli/spore_stims/simple_05_A_b.gif,images/stimuli/spore_stims/simple_18_B_b.gif,NA,NA,NA,NA,14,simple_dissimilar,images/stimuli/spore_stims/simple_18_B_b.gif,left,NA,NA,NA,NA,NA
NA,null,html-keyboard-response,266,505182,0.0-50.0-0.3,SS1613021720387,NA,NA,null,NA,NA,NA,NA,"<p><img src= images/blank.png width =""200"" height = ""200"" style = ""float:right""></p><p><img src=images/blank.png width =""800"" height = ""200""></p>",NA,NA,NA,NA,NA,NA,NA,NA,NA,NA,NA,NA
NA,133.53500002995133,sequential-stimulus-presentation,267,506139,0.0-50.0-1.3,SS1613021720387,trial,NA,40,800,933.5350000299513,images/stimuli/spore_stims/simple_05_A_b.gif,images/stimuli/spore_stims/simple_18_B_b.gif,NA,NA,NA,NA,14,simple_dissimilar,images/stimuli/spore_stims/simple_05_A_b.gif,right,NA,NA,NA,NA,NA
NA,null,html-keyboard-response,268,507362,0.0-50.0-0.4,SS1613021720387,NA,NA,null,NA,NA,NA,NA,"<p><img src= images/blank.png width =""200"" height = ""200"" style = ""float:right""></p><p><img src=images/blank.png width =""800"" height = ""200""></p>",NA,NA,NA,NA,NA,NA,NA,NA,NA,NA,NA,NA
NA,471.27500001806766,sequential-stimulus-presentation,269,508642,0.0-50.0-1.4,SS1613021720387,trial,NA,40,800,1271.2750000180677,images/stimuli/spore_stims/simple_05_A_b.gif,images/stimuli/spore_stims/simple_18_B_b.gif,NA,NA,NA,NA,14,simple_dissimilar,images/stimuli/spore_stims/simple_18_B_b.gif,left,NA,NA,NA,NA,NA
NA,null,html-keyboard-response,270,509925,0.0-50.0-0.5,SS1613021720387,NA,NA,null,NA,NA,NA,NA,"<p><img src= images/blank.png width =""200"" height = ""200"" style = ""float:right""></p><p><img src=images/blank.png width =""800"" height = ""200""></p>",NA,NA,NA,NA,NA,NA,NA,NA,NA,NA,NA,NA
NA,161.92499996395782,sequential-stimulus-presentation,271,510898,0.0-50.0-1.5,SS1613021720387,trial,NA,40,800,961.9249999639578,images/stimuli/spore_stims/simple_05_A_b.gif,images/stimuli/spore_stims/simple_18_B_b.gif,NA,NA,NA,NA,14,simple_dissimilar,images/stimuli/spore_stims/simple_18_B_b.gif,left,NA,NA,NA,NA,NA
NA,null,html-keyboard-response,272,511743,0.0-50.0-0.6,SS1613021720387,NA,NA,null,NA,NA,NA,NA,"<p><img src= images/blank.png width =""200"" height = ""200"" style = ""float:right""></p><p><img src=images/blank.png width =""800"" height = ""200""></p>",NA,NA,NA,NA,NA,NA,NA,NA,NA,NA,NA,NA
NA,271.92000002833083,sequential-stimulus-presentation,273,512825,0.0-50.0-1.6,SS1613021720387,trial,NA,40,800,1071.9200000283308,images/stimuli/spore_stims/simple_05_A_b.gif,images/stimuli/spore_stims/simple_18_B_b.gif,NA,NA,NA,NA,14,simple_dissimilar,images/stimuli/spore_stims/simple_18_B_b.gif,left,NA,NA,NA,NA,NA
NA,null,html-keyboard-response,274,514071,0.0-50.0-0.7,SS1613021720387,NA,NA,null,NA,NA,NA,NA,"<p><img src= images/blank.png width =""200"" height = ""200"" style = ""float:right""></p><p><img src=images/blank.png width =""800"" height = ""200""></p>",NA,NA,NA,NA,NA,NA,NA,NA,NA,NA,NA,NA
NA,705.2299999631941,sequential-stimulus-presentation,275,515586,0.0-50.0-1.7,SS1613021720387,trial,NA,40,800,1505.2299999631941,images/stimuli/spore_stims/simple_05_A_b.gif,images/stimuli/spore_stims/simple_18_B_b.gif,NA,NA,NA,NA,14,simple_dissimilar,images/stimuli/spore_stims/simple_18_B_b.gif,left,NA,NA,NA,NA,NA
NA,899.7400000225753,html-keyboard-response,276,516492,0.0-51.0,SS1613021720387,pref_question,NA,51,NA,NA,NA,NA,<video width ='960' height = '540' style='padding-top:8%' autoplay muted><source src='images/stimuli/wall_pref.mp4' type='video/mp4'></video>,3,right,66%,14,NA,NA,NA,NA,NA,NA,NA,NA
NA,323.4649999649264,sequential-stimulus-presentation,277,517636,0.0-52.0,SS1613021720387,pref_reveal,NA,40,800,1123.4649999649264,null,null,NA,NA,NA,NA,14,NA,NA,NA,deviant,NA,NA,NA,NA
NA,null,html-keyboard-response,278,518544,0.0-53.0-0.0,SS1613021720387,NA,NA,null,NA,NA,NA,NA,"<p><img src= images/blank.png width =""200"" height = ""200"" style = ""float:right""></p><p><img src=images/blank.png width =""800"" height = ""200""></p>",NA,NA,NA,NA,NA,NA,NA,NA,NA,NA,NA,NA
NA,355.7600000058301,sequential-stimulus-presentation,279,519712,0.0-53.0-1.0,SS1613021720387,trial,NA,40,800,1155.76000000583,images/stimuli/spore_stims/complex_08_B_b.gif,images/stimuli/spore_stims/complex_08_A_b.gif,NA,NA,NA,NA,15,complex_similar,images/stimuli/spore_stims/complex_08_A_b.gif,middle,NA,NA,NA,NA,NA
NA,null,html-keyboard-response,280,520877,0.0-53.0-0.1,SS1613021720387,NA,NA,null,NA,NA,NA,NA,"<p><img src= images/blank.png width =""200"" height = ""200"" style = ""float:right""></p><p><img src=images/blank.png width =""800"" height = ""200""></p>",NA,NA,NA,NA,NA,NA,NA,NA,NA,NA,NA,NA
NA,412.9800000227988,sequential-stimulus-presentation,281,522114,0.0-53.0-1.1,SS1613021720387,trial,NA,40,800,1212.9800000227988,images/stimuli/spore_stims/complex_08_B_b.gif,images/stimuli/spore_stims/complex_08_A_b.gif,NA,NA,NA,NA,15,complex_similar,images/stimuli/spore_stims/complex_08_A_b.gif,middle,NA,NA,NA,NA,NA
NA,null,html-keyboard-response,282,523169,0.0-53.0-0.2,SS1613021720387,NA,NA,null,NA,NA,NA,NA,"<p><img src= images/blank.png width =""200"" height = ""200"" style = ""float:right""></p><p><img src=images/blank.png width =""800"" height = ""200""></p>",NA,NA,NA,NA,NA,NA,NA,NA,NA,NA,NA,NA
NA,288.9649999560788,sequential-stimulus-presentation,283,524272,0.0-53.0-1.2,SS1613021720387,trial,NA,40,800,1088.9649999560788,images/stimuli/spore_stims/complex_08_B_b.gif,images/stimuli/spore_stims/complex_08_A_b.gif,NA,NA,NA,NA,15,complex_similar,images/stimuli/spore_stims/complex_08_A_b.gif,middle,NA,NA,NA,NA,NA
NA,null,html-keyboard-response,284,525398,0.0-53.0-0.3,SS1613021720387,NA,NA,null,NA,NA,NA,NA,"<p><img src= images/blank.png width =""200"" height = ""200"" style = ""float:right""></p><p><img src=images/blank.png width =""800"" height = ""200""></p>",NA,NA,NA,NA,NA,NA,NA,NA,NA,NA,NA,NA
NA,437.65999999595806,sequential-stimulus-presentation,285,526650,0.0-53.0-1.3,SS1613021720387,trial,NA,40,800,1237.659999995958,images/stimuli/spore_stims/complex_08_B_b.gif,images/stimuli/spore_stims/complex_08_A_b.gif,NA,NA,NA,NA,15,complex_similar,images/stimuli/spore_stims/complex_08_A_b.gif,middle,NA,NA,NA,NA,NA
NA,null,html-keyboard-response,286,527468,0.0-53.0-0.4,SS1613021720387,NA,NA,null,NA,NA,NA,NA,"<p><img src= images/blank.png width =""200"" height = ""200"" style = ""float:right""></p><p><img src=images/blank.png width =""800"" height = ""200""></p>",NA,NA,NA,NA,NA,NA,NA,NA,NA,NA,NA,NA
NA,1905.9099999722093,sequential-stimulus-presentation,287,530188,0.0-53.0-1.4,SS1613021720387,trial,NA,40,800,2705.9099999722093,images/stimuli/spore_stims/complex_08_B_b.gif,images/stimuli/spore_stims/complex_08_A_b.gif,NA,NA,NA,NA,15,complex_similar,images/stimuli/spore_stims/complex_08_A_b.gif,middle,NA,NA,NA,NA,NA
NA,null,html-keyboard-response,288,531144,0.0-53.0-0.5,SS1613021720387,NA,NA,null,NA,NA,NA,NA,"<p><img src= images/blank.png width =""200"" height = ""200"" style = ""float:right""></p><p><img src=images/blank.png width =""800"" height = ""200""></p>",NA,NA,NA,NA,NA,NA,NA,NA,NA,NA,NA,NA
NA,207.37999997800216,sequential-stimulus-presentation,289,532163,0.0-53.0-1.5,SS1613021720387,trial,NA,40,800,1007.3799999780022,images/stimuli/spore_stims/complex_08_B_b.gif,images/stimuli/spore_stims/complex_08_A_b.gif,NA,NA,NA,NA,15,complex_similar,images/stimuli/spore_stims/complex_08_A_b.gif,middle,NA,NA,NA,NA,NA
NA,null,html-keyboard-response,290,533394,0.0-53.0-0.6,SS1613021720387,NA,NA,null,NA,NA,NA,NA,"<p><img src= images/blank.png width =""200"" height = ""200"" style = ""float:right""></p><p><img src=images/blank.png width =""800"" height = ""200""></p>",NA,NA,NA,NA,NA,NA,NA,NA,NA,NA,NA,NA
NA,293.8500000163913,sequential-stimulus-presentation,291,534500,0.0-53.0-1.6,SS1613021720387,trial,NA,40,800,1093.8500000163913,images/stimuli/spore_stims/complex_08_B_b.gif,images/stimuli/spore_stims/complex_08_A_b.gif,NA,NA,NA,NA,15,complex_similar,images/stimuli/spore_stims/complex_08_B_b.gif,left,NA,NA,NA,NA,NA
NA,null,html-keyboard-response,292,535353,0.0-53.0-0.7,SS1613021720387,NA,NA,null,NA,NA,NA,NA,"<p><img src= images/blank.png width =""200"" height = ""200"" style = ""float:right""></p><p><img src=images/blank.png width =""800"" height = ""200""></p>",NA,NA,NA,NA,NA,NA,NA,NA,NA,NA,NA,NA
NA,135.10499999392778,sequential-stimulus-presentation,293,536299,0.0-53.0-1.7,SS1613021720387,trial,NA,40,800,935.1049999939278,images/stimuli/spore_stims/complex_08_B_b.gif,images/stimuli/spore_stims/complex_08_A_b.gif,NA,NA,NA,NA,15,complex_similar,images/stimuli/spore_stims/complex_08_A_b.gif,middle,NA,NA,NA,NA,NA
NA,906.9850000087172,html-keyboard-response,294,537212,0.0-54.0,SS1613021720387,pref_question,NA,49,NA,NA,NA,NA,<video width ='960' height = '540' style='padding-top:8%' autoplay muted><source src='images/stimuli/wall_pref.mp4' type='video/mp4'></video>,1,left,25%,15,NA,NA,NA,NA,NA,NA,NA,NA
NA,240.38999999174848,sequential-stimulus-presentation,295,538261,0.0-55.0,SS1613021720387,pref_reveal,NA,40,800,1040.3899999917485,null,null,NA,NA,NA,NA,15,NA,NA,NA,deviant,NA,NA,NA,NA
NA,null,html-keyboard-response,296,539358,0.0-56.0-0.0,SS1613021720387,NA,NA,null,NA,NA,NA,NA,"<p><img src= images/blank.png width =""200"" height = ""200"" style = ""float:right""></p><p><img src=images/blank.png width =""800"" height = ""200""></p>",NA,NA,NA,NA,NA,NA,NA,NA,NA,NA,NA,NA
NA,367.39500000840053,sequential-stimulus-presentation,297,540538,0.0-56.0-1.0,SS1613021720387,trial,NA,40,800,1167.3950000084005,images/stimuli/spore_stims/complex_14_A_a.gif,images/stimuli/spore_stims/complex_10_A_a.gif,NA,NA,NA,NA,16,complex_dissimilar,images/stimuli/spore_stims/complex_10_A_a.gif,right,NA,NA,NA,NA,NA
NA,null,html-keyboard-response,298,541833,0.0-56.0-0.1,SS1613021720387,NA,NA,null,NA,NA,NA,NA,"<p><img src= images/blank.png width =""200"" height = ""200"" style = ""float:right""></p><p><img src=images/blank.png width =""800"" height = ""200""></p>",NA,NA,NA,NA,NA,NA,NA,NA,NA,NA,NA,NA
NA,209.74500000011176,sequential-stimulus-presentation,299,542851,0.0-56.0-1.1,SS1613021720387,trial,NA,40,800,1009.7450000001118,images/stimuli/spore_stims/complex_14_A_a.gif,images/stimuli/spore_stims/complex_10_A_a.gif,NA,NA,NA,NA,16,complex_dissimilar,images/stimuli/spore_stims/complex_10_A_a.gif,right,NA,NA,NA,NA,NA
NA,null,html-keyboard-response,300,543715,0.0-56.0-0.2,SS1613021720387,NA,NA,null,NA,NA,NA,NA,"<p><img src= images/blank.png width =""200"" height = ""200"" style = ""float:right""></p><p><img src=images/blank.png width =""800"" height = ""200""></p>",NA,NA,NA,NA,NA,NA,NA,NA,NA,NA,NA,NA
NA,240.48499995842576,sequential-stimulus-presentation,301,544770,0.0-56.0-1.2,SS1613021720387,trial,NA,40,800,1040.4849999584258,images/stimuli/spore_stims/complex_14_A_a.gif,images/stimuli/spore_stims/complex_10_A_a.gif,NA,NA,NA,NA,16,complex_dissimilar,images/stimuli/spore_stims/complex_14_A_a.gif,left,NA,NA,NA,NA,NA
NA,null,html-keyboard-response,302,545650,0.0-56.0-0.3,SS1613021720387,NA,NA,null,NA,NA,NA,NA,"<p><img src= images/blank.png width =""200"" height = ""200"" style = ""float:right""></p><p><img src=images/blank.png width =""800"" height = ""200""></p>",NA,NA,NA,NA,NA,NA,NA,NA,NA,NA,NA,NA
NA,203.08999996632338,sequential-stimulus-presentation,303,546666,0.0-56.0-1.3,SS1613021720387,trial,NA,40,800,1003.0899999663234,images/stimuli/spore_stims/complex_14_A_a.gif,images/stimuli/spore_stims/complex_10_A_a.gif,NA,NA,NA,NA,16,complex_dissimilar,images/stimuli/spore_stims/complex_10_A_a.gif,right,NA,NA,NA,NA,NA
NA,null,html-keyboard-response,304,547700,0.0-56.0-0.4,SS1613021720387,NA,NA,null,NA,NA,NA,NA,"<p><img src= images/blank.png width =""200"" height = ""200"" style = ""float:right""></p><p><img src=images/blank.png width =""800"" height = ""200""></p>",NA,NA,NA,NA,NA,NA,NA,NA,NA,NA,NA,NA
NA,800.1449999865144,sequential-stimulus-presentation,305,549323,0.0-56.0-1.4,SS1613021720387,trial,NA,40,800,1600.1449999865144,images/stimuli/spore_stims/complex_14_A_a.gif,images/stimuli/spore_stims/complex_10_A_a.gif,NA,NA,NA,NA,16,complex_dissimilar,images/stimuli/spore_stims/complex_10_A_a.gif,right,NA,NA,NA,NA,NA
NA,null,html-keyboard-response,306,550588,0.0-56.0-0.5,SS1613021720387,NA,NA,null,NA,NA,NA,NA,"<p><img src= images/blank.png width =""200"" height = ""200"" style = ""float:right""></p><p><img src=images/blank.png width =""800"" height = ""200""></p>",NA,NA,NA,NA,NA,NA,NA,NA,NA,NA,NA,NA
NA,334.5949999638833,sequential-stimulus-presentation,307,551736,0.0-56.0-1.5,SS1613021720387,trial,NA,40,800,1134.5949999638833,images/stimuli/spore_stims/complex_14_A_a.gif,images/stimuli/spore_stims/complex_10_A_a.gif,NA,NA,NA,NA,16,complex_dissimilar,images/stimuli/spore_stims/complex_10_A_a.gif,right,NA,NA,NA,NA,NA
NA,null,html-keyboard-response,308,552705,0.0-56.0-0.6,SS1613021720387,NA,NA,null,NA,NA,NA,NA,"<p><img src= images/blank.png width =""200"" height = ""200"" style = ""float:right""></p><p><img src=images/blank.png width =""800"" height = ""200""></p>",NA,NA,NA,NA,NA,NA,NA,NA,NA,NA,NA,NA
NA,220.5299999914132,sequential-stimulus-presentation,309,553737,0.0-56.0-1.6,SS1613021720387,trial,NA,40,800,1020.5299999914132,images/stimuli/spore_stims/complex_14_A_a.gif,images/stimuli/spore_stims/complex_10_A_a.gif,NA,NA,NA,NA,16,complex_dissimilar,images/stimuli/spore_stims/complex_10_A_a.gif,right,NA,NA,NA,NA,NA
NA,null,html-keyboard-response,310,554801,0.0-56.0-0.7,SS1613021720387,NA,NA,null,NA,NA,NA,NA,"<p><img src= images/blank.png width =""200"" height = ""200"" style = ""float:right""></p><p><img src=images/blank.png width =""800"" height = ""200""></p>",NA,NA,NA,NA,NA,NA,NA,NA,NA,NA,NA,NA
NA,204.23499995376915,sequential-stimulus-presentation,311,555816,0.0-56.0-1.7,SS1613021720387,trial,NA,40,800,1004.2349999537691,images/stimuli/spore_stims/complex_14_A_a.gif,images/stimuli/spore_stims/complex_10_A_a.gif,NA,NA,NA,NA,16,complex_dissimilar,images/stimuli/spore_stims/complex_10_A_a.gif,right,NA,NA,NA,NA,NA
NA,1157.7999999863096,html-keyboard-response,312,556981,0.0-57.0,SS1613021720387,pref_question,NA,51,NA,NA,NA,NA,<video width ='960' height = '540' style='padding-top:8%' autoplay muted><source src='images/stimuli/wall_pref.mp4' type='video/mp4'></video>,3,right,66%,16,NA,NA,NA,NA,NA,NA,NA,NA
NA,292.86500002490357,sequential-stimulus-presentation,313,558083,0.0-58.0,SS1613021720387,pref_reveal,NA,40,800,1092.8650000249036,null,null,NA,NA,NA,NA,16,NA,NA,NA,background,NA,NA,NA,NA
NA,null,html-keyboard-response,314,559228,0.0-59.0-0.0,SS1613021720387,NA,NA,null,NA,NA,NA,NA,"<p><img src= images/blank.png width =""200"" height = ""200"" style = ""float:right""></p><p><img src=images/blank.png width =""800"" height = ""200""></p>",NA,NA,NA,NA,NA,NA,NA,NA,NA,NA,NA,NA
NA,722.3999999696389,sequential-stimulus-presentation,315,560761,0.0-59.0-1.0,SS1613021720387,trial,NA,40,800,1522.3999999696389,images/stimuli/spore_stims/simple_16_B_c.gif,images/stimuli/spore_stims/simple_10_A_b.gif,NA,NA,NA,NA,17,simple_dissimilar,images/stimuli/spore_stims/simple_10_A_b.gif,right,NA,NA,NA,NA,NA
NA,null,html-keyboard-response,316,561847,0.0-59.0-0.1,SS1613021720387,NA,NA,null,NA,NA,NA,NA,"<p><img src= images/blank.png width =""200"" height = ""200"" style = ""float:right""></p><p><img src=images/blank.png width =""800"" height = ""200""></p>",NA,NA,NA,NA,NA,NA,NA,NA,NA,NA,NA,NA
NA,548.6750000272878,sequential-stimulus-presentation,317,563212,0.0-59.0-1.1,SS1613021720387,trial,NA,40,800,1348.6750000272878,images/stimuli/spore_stims/simple_16_B_c.gif,images/stimuli/spore_stims/simple_10_A_b.gif,NA,NA,NA,NA,17,simple_dissimilar,images/stimuli/spore_stims/simple_10_A_b.gif,right,NA,NA,NA,NA,NA
NA,null,html-keyboard-response,318,564270,0.0-59.0-0.2,SS1613021720387,NA,NA,null,NA,NA,NA,NA,"<p><img src= images/blank.png width =""200"" height = ""200"" style = ""float:right""></p><p><img src=images/blank.png width =""800"" height = ""200""></p>",NA,NA,NA,NA,NA,NA,NA,NA,NA,NA,NA,NA
NA,370.7099999883212,sequential-stimulus-presentation,319,565452,0.0-59.0-1.2,SS1613021720387,trial,NA,40,800,1170.7099999883212,images/stimuli/spore_stims/simple_16_B_c.gif,images/stimuli/spore_stims/simple_10_A_b.gif,NA,NA,NA,NA,17,simple_dissimilar,images/stimuli/spore_stims/simple_10_A_b.gif,right,NA,NA,NA,NA,NA
NA,null,html-keyboard-response,320,566607,0.0-59.0-0.3,SS1613021720387,NA,NA,null,NA,NA,NA,NA,"<p><img src= images/blank.png width =""200"" height = ""200"" style = ""float:right""></p><p><img src=images/blank.png width =""800"" height = ""200""></p>",NA,NA,NA,NA,NA,NA,NA,NA,NA,NA,NA,NA
NA,728.4249999793246,sequential-stimulus-presentation,321,568148,0.0-59.0-1.3,SS1613021720387,trial,NA,40,800,1528.4249999793246,images/stimuli/spore_stims/simple_16_B_c.gif,images/stimuli/spore_stims/simple_10_A_b.gif,NA,NA,NA,NA,17,simple_dissimilar,images/stimuli/spore_stims/simple_10_A_b.gif,right,NA,NA,NA,NA,NA
NA,null,html-keyboard-response,322,568999,0.0-59.0-0.4,SS1613021720387,NA,NA,null,NA,NA,NA,NA,"<p><img src= images/blank.png width =""200"" height = ""200"" style = ""float:right""></p><p><img src=images/blank.png width =""800"" height = ""200""></p>",NA,NA,NA,NA,NA,NA,NA,NA,NA,NA,NA,NA
NA,17.834999947808683,sequential-stimulus-presentation,323,569831,0.0-59.0-1.4,SS1613021720387,trial,NA,40,800,817.8349999478087,images/stimuli/spore_stims/simple_16_B_c.gif,images/stimuli/spore_stims/simple_10_A_b.gif,NA,NA,NA,NA,17,simple_dissimilar,images/stimuli/spore_stims/simple_10_A_b.gif,right,NA,NA,NA,NA,NA
NA,null,html-keyboard-response,324,570908,0.0-59.0-0.5,SS1613021720387,NA,NA,null,NA,NA,NA,NA,"<p><img src= images/blank.png width =""200"" height = ""200"" style = ""float:right""></p><p><img src=images/blank.png width =""800"" height = ""200""></p>",NA,NA,NA,NA,NA,NA,NA,NA,NA,NA,NA,NA
NA,1964.139999996405,sequential-stimulus-presentation,325,573684,0.0-59.0-1.5,SS1613021720387,trial,NA,40,800,2764.139999996405,images/stimuli/spore_stims/simple_16_B_c.gif,images/stimuli/spore_stims/simple_10_A_b.gif,NA,NA,NA,NA,17,simple_dissimilar,images/stimuli/spore_stims/simple_16_B_c.gif,left,NA,NA,NA,NA,NA
NA,null,html-keyboard-response,326,574780,0.0-59.0-0.6,SS1613021720387,NA,NA,null,NA,NA,NA,NA,"<p><img src= images/blank.png width =""200"" height = ""200"" style = ""float:right""></p><p><img src=images/blank.png width =""800"" height = ""200""></p>",NA,NA,NA,NA,NA,NA,NA,NA,NA,NA,NA,NA
NA,98.60999998636544,sequential-stimulus-presentation,327,575694,0.0-59.0-1.6,SS1613021720387,trial,NA,40,800,898.6099999863654,images/stimuli/spore_stims/simple_16_B_c.gif,images/stimuli/spore_stims/simple_10_A_b.gif,NA,NA,NA,NA,17,simple_dissimilar,images/stimuli/spore_stims/simple_10_A_b.gif,right,NA,NA,NA,NA,NA
NA,null,html-keyboard-response,328,576507,0.0-59.0-0.7,SS1613021720387,NA,NA,null,NA,NA,NA,NA,"<p><img src= images/blank.png width =""200"" height = ""200"" style = ""float:right""></p><p><img src=images/blank.png width =""800"" height = ""200""></p>",NA,NA,NA,NA,NA,NA,NA,NA,NA,NA,NA,NA
NA,405.034999945201,sequential-stimulus-presentation,329,577725,0.0-59.0-1.7,SS1613021720387,trial,NA,40,800,1205.034999945201,images/stimuli/spore_stims/simple_16_B_c.gif,images/stimuli/spore_stims/simple_10_A_b.gif,NA,NA,NA,NA,17,simple_dissimilar,images/stimuli/spore_stims/simple_10_A_b.gif,right,NA,NA,NA,NA,NA
NA,848.8900000229478,html-keyboard-response,330,578581,0.0-60.0,SS1613021720387,pref_question,NA,49,NA,NA,NA,NA,<video width ='960' height = '540' style='padding-top:8%' autoplay muted><source src='images/stimuli/wall_pref.mp4' type='video/mp4'></video>,1,left,25%,17,NA,NA,NA,NA,NA,NA,NA,NA
NA,314.45499998517334,sequential-stimulus-presentation,331,579708,0.0-61.0,SS1613021720387,pref_reveal,NA,40,800,1114.4549999851733,null,null,NA,NA,NA,NA,17,NA,NA,NA,deviant,NA,NA,NA,NA
NA,null,html-keyboard-response,332,580753,0.0-62.0-0.0,SS1613021720387,NA,NA,null,NA,NA,NA,NA,"<p><img src= images/blank.png width =""200"" height = ""200"" style = ""float:right""></p><p><img src=images/blank.png width =""800"" height = ""200""></p>",NA,NA,NA,NA,NA,NA,NA,NA,NA,NA,NA,NA
NA,540.0950000039302,sequential-stimulus-presentation,333,582106,0.0-62.0-1.0,SS1613021720387,trial,NA,40,800,1340.0950000039302,images/stimuli/spore_stims/simple_19_B_a.gif,images/stimuli/spore_stims/simple_19_A_a.gif,NA,NA,NA,NA,18,simple_similar,images/stimuli/spore_stims/simple_19_A_a.gif,left,NA,NA,NA,NA,NA
NA,null,html-keyboard-response,334,582983,0.0-62.0-0.1,SS1613021720387,NA,NA,null,NA,NA,NA,NA,"<p><img src= images/blank.png width =""200"" height = ""200"" style = ""float:right""></p><p><img src=images/blank.png width =""800"" height = ""200""></p>",NA,NA,NA,NA,NA,NA,NA,NA,NA,NA,NA,NA
NA,592.8200000198558,sequential-stimulus-presentation,335,584387,0.0-62.0-1.1,SS1613021720387,trial,NA,40,800,1392.8200000198558,images/stimuli/spore_stims/simple_19_B_a.gif,images/stimuli/spore_stims/simple_19_A_a.gif,NA,NA,NA,NA,18,simple_similar,images/stimuli/spore_stims/simple_19_A_a.gif,left,NA,NA,NA,NA,NA
NA,null,html-keyboard-response,336,585202,0.0-62.0-0.2,SS1613021720387,NA,NA,null,NA,NA,NA,NA,"<p><img src= images/blank.png width =""200"" height = ""200"" style = ""float:right""></p><p><img src=images/blank.png width =""800"" height = ""200""></p>",NA,NA,NA,NA,NA,NA,NA,NA,NA,NA,NA,NA
NA,166.2699999869801,sequential-stimulus-presentation,337,586179,0.0-62.0-1.2,SS1613021720387,trial,NA,40,800,966.2699999869801,images/stimuli/spore_stims/simple_19_B_a.gif,images/stimuli/spore_stims/simple_19_A_a.gif,NA,NA,NA,NA,18,simple_similar,images/stimuli/spore_stims/simple_19_A_a.gif,left,NA,NA,NA,NA,NA
NA,null,html-keyboard-response,338,587197,0.0-62.0-0.3,SS1613021720387,NA,NA,null,NA,NA,NA,NA,"<p><img src= images/blank.png width =""200"" height = ""200"" style = ""float:right""></p><p><img src=images/blank.png width =""800"" height = ""200""></p>",NA,NA,NA,NA,NA,NA,NA,NA,NA,NA,NA,NA
