view_history,rt,trial_type,trial_index,time_elapsed,internal_node_id,subject,stimulus_type,trial_stimulus,key_press,minimum_viewing_duration,trial_looking_time,block_deviant,block_background,stimulus,block_number,block_type,stimulus_displayed,responses,question_order,math_correct_answer,stimulus_left,stimulus_right,exposure_type
"[{""page_index"":0,""viewing_time"":14311}]",14311,instructions,0,14313,0.0-0.0,SS1617819278525,NA,NA,NA,NA,NA,NA,NA,NA,NA,NA,NA,NA,NA,NA,NA,NA,NA
"[{""page_index"":0,""viewing_time"":16828},{""page_index"":1,""viewing_time"":10437}]",27265,instructions,1,43581,0.0-1.0,SS1617819278525,instructions,NA,NA,NA,NA,NA,NA,NA,NA,NA,NA,NA,NA,NA,NA,NA,NA
NA,6332,sequential-stimulus-presentation-old,2,50515,0.0-2.0,SS1617819278525,NA,NA,40,600,6932,null,null,NA,NA,NA,NA,NA,NA,NA,NA,NA,NA
NA,7642.000000000015,sequential-stimulus-presentation-old,3,58660,0.0-3.0,SS1617819278525,NA,NA,40,500,8142.000000000015,null,null,NA,NA,NA,NA,NA,NA,NA,NA,NA,NA
"[{""page_index"":0,""viewing_time"":17218}]",17218,instructions,4,75879,0.0-4.0,SS1617819278525,instructions,NA,NA,NA,NA,NA,NA,NA,NA,NA,NA,NA,NA,NA,NA,NA,NA
NA,4757,sequential-stimulus-presentation,5,81641,0.0-5.0,SS1617819278525,NA,NA,40,1000,5757,null,null,NA,NA,NA,NA,NA,NA,NA,NA,NA,NA
"[{""page_index"":0,""viewing_time"":5354}]",5354,instructions,6,86996,0.0-6.0,SS1617819278525,instructions,NA,NA,NA,NA,NA,NA,NA,NA,NA,NA,NA,NA,NA,NA,NA,NA
"[{""page_index"":0,""viewing_time"":8118},{""page_index"":1,""viewing_time"":8357},{""page_index"":2,""viewing_time"":5123.000000000015},{""page_index"":3,""viewing_time"":1491.9999999999854},{""page_index"":4,""viewing_time"":2461}]",25552,instructions,7,112548,0.0-7.0,SS1617819278525,instructions,NA,NA,NA,NA,NA,NA,NA,NA,NA,NA,NA,NA,NA,NA,NA,NA
NA,null,html-keyboard-response,8,113768,0.0-8.0-0.0,SS1617819278525,NA,NA,null,NA,NA,NA,NA,"<p><img src= images/blank.png width =""600"" height = ""600"" style=""position:fixed;top:50%; left:50%; transform: translate(-50%, -50%); border:5px solid black"">",NA,NA,NA,NA,NA,NA,NA,NA,NA
NA,3652,sequential-stimulus-presentation,9,118424,0.0-8.0-1.0,SS1617819278525,trial,NA,40,1000,4652,images/stimuli/spore_stims/simple_17_A_a.gif,images/stimuli/spore_stims/simple_07_A_b.gif,NA,0,simple_dissimilar,images/stimuli/spore_stims/simple_07_A_b.gif,NA,NA,NA,NA,NA,NA
NA,null,html-keyboard-response,10,119584,0.0-8.0-0.1,SS1617819278525,NA,NA,null,NA,NA,NA,NA,"<p><img src= images/blank.png width =""600"" height = ""600"" style=""position:fixed;top:50%; left:50%; transform: translate(-50%, -50%); border:5px solid black"">",NA,NA,NA,NA,NA,NA,NA,NA,NA
NA,2183,sequential-stimulus-presentation,11,122770,0.0-8.0-1.1,SS1617819278525,trial,NA,40,1000,3183,images/stimuli/spore_stims/simple_17_A_a.gif,images/stimuli/spore_stims/simple_07_A_b.gif,NA,0,simple_dissimilar,images/stimuli/spore_stims/simple_07_A_b.gif,NA,NA,NA,NA,NA,NA
NA,null,html-keyboard-response,12,123992,0.0-8.0-0.2,SS1617819278525,NA,NA,null,NA,NA,NA,NA,"<p><img src= images/blank.png width =""600"" height = ""600"" style=""position:fixed;top:50%; left:50%; transform: translate(-50%, -50%); border:5px solid black"">",NA,NA,NA,NA,NA,NA,NA,NA,NA
NA,4533,sequential-stimulus-presentation,13,129528,0.0-8.0-1.2,SS1617819278525,trial,NA,40,1000,5533,images/stimuli/spore_stims/simple_17_A_a.gif,images/stimuli/spore_stims/simple_07_A_b.gif,NA,0,simple_dissimilar,images/stimuli/spore_stims/simple_17_A_a.gif,NA,NA,NA,NA,NA,NA
NA,null,html-keyboard-response,14,130629,0.0-8.0-0.3,SS1617819278525,NA,NA,null,NA,NA,NA,NA,"<p><img src= images/blank.png width =""600"" height = ""600"" style=""position:fixed;top:50%; left:50%; transform: translate(-50%, -50%); border:5px solid black"">",NA,NA,NA,NA,NA,NA,NA,NA,NA
NA,3270,sequential-stimulus-presentation,15,134903,0.0-8.0-1.3,SS1617819278525,trial,NA,40,1000,4270,images/stimuli/spore_stims/simple_17_A_a.gif,images/stimuli/spore_stims/simple_07_A_b.gif,NA,0,simple_dissimilar,images/stimuli/spore_stims/simple_07_A_b.gif,NA,NA,NA,NA,NA,NA
NA,null,html-keyboard-response,16,135898,0.0-8.0-0.4,SS1617819278525,NA,NA,null,NA,NA,NA,NA,"<p><img src= images/blank.png width =""600"" height = ""600"" style=""position:fixed;top:50%; left:50%; transform: translate(-50%, -50%); border:5px solid black"">",NA,NA,NA,NA,NA,NA,NA,NA,NA
NA,5816,sequential-stimulus-presentation,17,142718,0.0-8.0-1.4,SS1617819278525,trial,NA,40,1000,6816,images/stimuli/spore_stims/simple_17_A_a.gif,images/stimuli/spore_stims/simple_07_A_b.gif,NA,0,simple_dissimilar,images/stimuli/spore_stims/simple_07_A_b.gif,NA,NA,NA,NA,NA,NA
NA,3810,survey-multi-choice,18,146531,0.0-9.0,SS1617819278525,math_question,NA,NA,NA,NA,NA,NA,NA,NA,NA,NA,"{""Q0"":""14""}",[0],14,NA,NA,NA
NA,null,html-keyboard-response,19,147448,0.0-10.0-0.0,SS1617819278525,NA,NA,null,NA,NA,NA,NA,"<p><img src= images/blank.png width =""600"" height = ""600"" style=""position:fixed;top:50%; left:50%; transform: translate(-50%, -50%); border:5px solid black"">",NA,NA,NA,NA,NA,NA,NA,NA,NA
NA,6051,sequential-stimulus-presentation,20,154502,0.0-10.0-1.0,SS1617819278525,trial,NA,40,1000,7051,images/stimuli/spore_stims/simple_11_A_b.gif,images/stimuli/spore_stims/simple_09_A_a.gif,NA,1,simple_dissimilar,images/stimuli/spore_stims/simple_09_A_a.gif,NA,NA,NA,NA,NA,NA
NA,null,html-keyboard-response,21,155761,0.0-10.0-0.1,SS1617819278525,NA,NA,null,NA,NA,NA,NA,"<p><img src= images/blank.png width =""600"" height = ""600"" style=""position:fixed;top:50%; left:50%; transform: translate(-50%, -50%); border:5px solid black"">",NA,NA,NA,NA,NA,NA,NA,NA,NA
NA,4513,sequential-stimulus-presentation,22,161275,0.0-10.0-1.1,SS1617819278525,trial,NA,40,1000,5513,images/stimuli/spore_stims/simple_11_A_b.gif,images/stimuli/spore_stims/simple_09_A_a.gif,NA,1,simple_dissimilar,images/stimuli/spore_stims/simple_09_A_a.gif,NA,NA,NA,NA,NA,NA
NA,null,html-keyboard-response,23,162112,0.0-10.0-0.2,SS1617819278525,NA,NA,null,NA,NA,NA,NA,"<p><img src= images/blank.png width =""600"" height = ""600"" style=""position:fixed;top:50%; left:50%; transform: translate(-50%, -50%); border:5px solid black"">",NA,NA,NA,NA,NA,NA,NA,NA,NA
NA,1316,sequential-stimulus-presentation,24,164430,0.0-10.0-1.2,SS1617819278525,trial,NA,40,1000,2316,images/stimuli/spore_stims/simple_11_A_b.gif,images/stimuli/spore_stims/simple_09_A_a.gif,NA,1,simple_dissimilar,images/stimuli/spore_stims/simple_09_A_a.gif,NA,NA,NA,NA,NA,NA
NA,null,html-keyboard-response,25,165398,0.0-10.0-0.3,SS1617819278525,NA,NA,null,NA,NA,NA,NA,"<p><img src= images/blank.png width =""600"" height = ""600"" style=""position:fixed;top:50%; left:50%; transform: translate(-50%, -50%); border:5px solid black"">",NA,NA,NA,NA,NA,NA,NA,NA,NA
NA,557,sequential-stimulus-presentation,26,166957,0.0-10.0-1.3,SS1617819278525,trial,NA,40,1000,1557,images/stimuli/spore_stims/simple_11_A_b.gif,images/stimuli/spore_stims/simple_09_A_a.gif,NA,1,simple_dissimilar,images/stimuli/spore_stims/simple_09_A_a.gif,NA,NA,NA,NA,NA,NA
NA,null,html-keyboard-response,27,168084,0.0-10.0-0.4,SS1617819278525,NA,NA,null,NA,NA,NA,NA,"<p><img src= images/blank.png width =""600"" height = ""600"" style=""position:fixed;top:50%; left:50%; transform: translate(-50%, -50%); border:5px solid black"">",NA,NA,NA,NA,NA,NA,NA,NA,NA
NA,3078,sequential-stimulus-presentation,28,172166,0.0-10.0-1.4,SS1617819278525,trial,NA,40,1000,4078,images/stimuli/spore_stims/simple_11_A_b.gif,images/stimuli/spore_stims/simple_09_A_a.gif,NA,1,simple_dissimilar,images/stimuli/spore_stims/simple_11_A_b.gif,NA,NA,NA,NA,NA,NA
NA,2727,survey-multi-choice,29,174895,0.0-11.0,SS1617819278525,math_question,NA,NA,NA,NA,NA,NA,NA,NA,NA,NA,"{""Q0"":""16""}",[0],16,NA,NA,NA
NA,null,html-keyboard-response,30,175905,0.0-12.0-0.0,SS1617819278525,NA,NA,null,NA,NA,NA,NA,"<p><img src= images/blank.png width =""600"" height = ""600"" style=""position:fixed;top:50%; left:50%; transform: translate(-50%, -50%); border:5px solid black"">",NA,NA,NA,NA,NA,NA,NA,NA,NA
NA,9460,sequential-stimulus-presentation,31,186368,0.0-12.0-1.0,SS1617819278525,trial,NA,40,1000,10460,images/stimuli/spore_stims/complex_10_A_b.gif,images/stimuli/spore_stims/complex_16_A_a.gif,NA,2,complex_dissimilar,images/stimuli/spore_stims/complex_16_A_a.gif,NA,NA,NA,NA,NA,NA
NA,null,html-keyboard-response,32,187599,0.0-12.0-0.1,SS1617819278525,NA,NA,null,NA,NA,NA,NA,"<p><img src= images/blank.png width =""600"" height = ""600"" style=""position:fixed;top:50%; left:50%; transform: translate(-50%, -50%); border:5px solid black"">",NA,NA,NA,NA,NA,NA,NA,NA,NA
NA,8459,sequential-stimulus-presentation,33,197062,0.0-12.0-1.1,SS1617819278525,trial,NA,40,1000,9459,images/stimuli/spore_stims/complex_10_A_b.gif,images/stimuli/spore_stims/complex_16_A_a.gif,NA,2,complex_dissimilar,images/stimuli/spore_stims/complex_16_A_a.gif,NA,NA,NA,NA,NA,NA
NA,null,html-keyboard-response,34,198349,0.0-12.0-0.2,SS1617819278525,NA,NA,null,NA,NA,NA,NA,"<p><img src= images/blank.png width =""600"" height = ""600"" style=""position:fixed;top:50%; left:50%; transform: translate(-50%, -50%); border:5px solid black"">",NA,NA,NA,NA,NA,NA,NA,NA,NA
NA,2337,sequential-stimulus-presentation,35,201690,0.0-12.0-1.2,SS1617819278525,trial,NA,40,1000,3337,images/stimuli/spore_stims/complex_10_A_b.gif,images/stimuli/spore_stims/complex_16_A_a.gif,NA,2,complex_dissimilar,images/stimuli/spore_stims/complex_16_A_a.gif,NA,NA,NA,NA,NA,NA
NA,null,html-keyboard-response,36,202831,0.0-12.0-0.3,SS1617819278525,NA,NA,null,NA,NA,NA,NA,"<p><img src= images/blank.png width =""600"" height = ""600"" style=""position:fixed;top:50%; left:50%; transform: translate(-50%, -50%); border:5px solid black"">",NA,NA,NA,NA,NA,NA,NA,NA,NA
NA,2575,sequential-stimulus-presentation,37,206410,0.0-12.0-1.3,SS1617819278525,trial,NA,40,1000,3575,images/stimuli/spore_stims/complex_10_A_b.gif,images/stimuli/spore_stims/complex_16_A_a.gif,NA,2,complex_dissimilar,images/stimuli/spore_stims/complex_16_A_a.gif,NA,NA,NA,NA,NA,NA
NA,2317,survey-multi-choice,38,208728,0.0-13.0,SS1617819278525,math_question,NA,NA,NA,NA,NA,NA,NA,NA,NA,NA,"{""Q0"":""12""}",[0],12,NA,NA,NA
NA,null,html-keyboard-response,39,209823,0.0-14.0-0.0,SS1617819278525,NA,NA,null,NA,NA,NA,NA,"<p><img src= images/blank.png width =""600"" height = ""600"" style=""position:fixed;top:50%; left:50%; transform: translate(-50%, -50%); border:5px solid black"">",NA,NA,NA,NA,NA,NA,NA,NA,NA
NA,5941,sequential-stimulus-presentation,40,216768,0.0-14.0-1.0,SS1617819278525,trial,NA,40,1000,6941,images/stimuli/spore_stims/simple_17_A_b.gif,images/stimuli/spore_stims/simple_04_A_a.gif,NA,3,simple_dissimilar,images/stimuli/spore_stims/simple_04_A_a.gif,NA,NA,NA,NA,NA,NA
NA,null,html-keyboard-response,41,217902,0.0-14.0-0.1,SS1617819278525,NA,NA,null,NA,NA,NA,NA,"<p><img src= images/blank.png width =""600"" height = ""600"" style=""position:fixed;top:50%; left:50%; transform: translate(-50%, -50%); border:5px solid black"">",NA,NA,NA,NA,NA,NA,NA,NA,NA
NA,4458,sequential-stimulus-presentation,42,223367,0.0-14.0-1.1,SS1617819278525,trial,NA,40,1000,5458,images/stimuli/spore_stims/simple_17_A_b.gif,images/stimuli/spore_stims/simple_04_A_a.gif,NA,3,simple_dissimilar,images/stimuli/spore_stims/simple_04_A_a.gif,NA,NA,NA,NA,NA,NA
NA,null,html-keyboard-response,43,224430,0.0-14.0-0.2,SS1617819278525,NA,NA,null,NA,NA,NA,NA,"<p><img src= images/blank.png width =""600"" height = ""600"" style=""position:fixed;top:50%; left:50%; transform: translate(-50%, -50%); border:5px solid black"">",NA,NA,NA,NA,NA,NA,NA,NA,NA
NA,2887.999999999971,sequential-stimulus-presentation,44,228322,0.0-14.0-1.2,SS1617819278525,trial,NA,40,1000,3887.999999999971,images/stimuli/spore_stims/simple_17_A_b.gif,images/stimuli/spore_stims/simple_04_A_a.gif,NA,3,simple_dissimilar,images/stimuli/spore_stims/simple_04_A_a.gif,NA,NA,NA,NA,NA,NA
NA,null,html-keyboard-response,45,229569,0.0-14.0-0.3,SS1617819278525,NA,NA,null,NA,NA,NA,NA,"<p><img src= images/blank.png width =""600"" height = ""600"" style=""position:fixed;top:50%; left:50%; transform: translate(-50%, -50%); border:5px solid black"">",NA,NA,NA,NA,NA,NA,NA,NA,NA
NA,859,sequential-stimulus-presentation,46,231432,0.0-14.0-1.3,SS1617819278525,trial,NA,40,1000,1859,images/stimuli/spore_stims/simple_17_A_b.gif,images/stimuli/spore_stims/simple_04_A_a.gif,NA,3,simple_dissimilar,images/stimuli/spore_stims/simple_04_A_a.gif,NA,NA,NA,NA,NA,NA
NA,2387,survey-multi-choice,47,233820,0.0-15.0,SS1617819278525,math_question,NA,NA,NA,NA,NA,NA,NA,NA,NA,NA,"{""Q0"":""16""}",[0],16,NA,NA,NA
NA,null,html-keyboard-response,48,234631,0.0-16.0-0.0,SS1617819278525,NA,NA,null,NA,NA,NA,NA,"<p><img src= images/blank.png width =""600"" height = ""600"" style=""position:fixed;top:50%; left:50%; transform: translate(-50%, -50%); border:5px solid black"">",NA,NA,NA,NA,NA,NA,NA,NA,NA
NA,4056,sequential-stimulus-presentation,49,239692,0.0-16.0-1.0,SS1617819278525,trial,NA,40,1000,5056,images/stimuli/spore_stims/simple_11_A_a.gif,images/stimuli/spore_stims/simple_05_A_b.gif,NA,4,simple_dissimilar,images/stimuli/spore_stims/simple_05_A_b.gif,NA,NA,NA,NA,NA,NA
NA,null,html-keyboard-response,50,240576,0.0-16.0-0.1,SS1617819278525,NA,NA,null,NA,NA,NA,NA,"<p><img src= images/blank.png width =""600"" height = ""600"" style=""position:fixed;top:50%; left:50%; transform: translate(-50%, -50%); border:5px solid black"">",NA,NA,NA,NA,NA,NA,NA,NA,NA
NA,5218,sequential-stimulus-presentation,51,246799,0.0-16.0-1.1,SS1617819278525,trial,NA,40,1000,6218,images/stimuli/spore_stims/simple_11_A_a.gif,images/stimuli/spore_stims/simple_05_A_b.gif,NA,4,simple_dissimilar,images/stimuli/spore_stims/simple_11_A_a.gif,NA,NA,NA,NA,NA,NA
NA,null,html-keyboard-response,52,247725,0.0-16.0-0.2,SS1617819278525,NA,NA,null,NA,NA,NA,NA,"<p><img src= images/blank.png width =""600"" height = ""600"" style=""position:fixed;top:50%; left:50%; transform: translate(-50%, -50%); border:5px solid black"">",NA,NA,NA,NA,NA,NA,NA,NA,NA
NA,6147,sequential-stimulus-presentation,53,254875,0.0-16.0-1.2,SS1617819278525,trial,NA,40,1000,7147,images/stimuli/spore_stims/simple_11_A_a.gif,images/stimuli/spore_stims/simple_05_A_b.gif,NA,4,simple_dissimilar,images/stimuli/spore_stims/simple_05_A_b.gif,NA,NA,NA,NA,NA,NA
NA,null,html-keyboard-response,54,256073,0.0-16.0-0.3,SS1617819278525,NA,NA,null,NA,NA,NA,NA,"<p><img src= images/blank.png width =""600"" height = ""600"" style=""position:fixed;top:50%; left:50%; transform: translate(-50%, -50%); border:5px solid black"">",NA,NA,NA,NA,NA,NA,NA,NA,NA
NA,5199,sequential-stimulus-presentation,55,262275,0.0-16.0-1.3,SS1617819278525,trial,NA,40,1000,6199,images/stimuli/spore_stims/simple_11_A_a.gif,images/stimuli/spore_stims/simple_05_A_b.gif,NA,4,simple_dissimilar,images/stimuli/spore_stims/simple_05_A_b.gif,NA,NA,NA,NA,NA,NA
NA,null,html-keyboard-response,56,263262,0.0-16.0-0.4,SS1617819278525,NA,NA,null,NA,NA,NA,NA,"<p><img src= images/blank.png width =""600"" height = ""600"" style=""position:fixed;top:50%; left:50%; transform: translate(-50%, -50%); border:5px solid black"">",NA,NA,NA,NA,NA,NA,NA,NA,NA
NA,380,sequential-stimulus-presentation,57,264646,0.0-16.0-1.4,SS1617819278525,trial,NA,40,1000,1380,images/stimuli/spore_stims/simple_11_A_a.gif,images/stimuli/spore_stims/simple_05_A_b.gif,NA,4,simple_dissimilar,images/stimuli/spore_stims/simple_11_A_a.gif,NA,NA,NA,NA,NA,NA
NA,2758,survey-multi-choice,58,267407,0.0-17.0,SS1617819278525,math_question,NA,NA,NA,NA,NA,NA,NA,NA,NA,NA,"{""Q0"":""9""}",[0],9,NA,NA,NA
NA,null,html-keyboard-response,59,268433,0.0-18.0-0.0,SS1617819278525,NA,NA,null,NA,NA,NA,NA,"<p><img src= images/blank.png width =""600"" height = ""600"" style=""position:fixed;top:50%; left:50%; transform: translate(-50%, -50%); border:5px solid black"">",NA,NA,NA,NA,NA,NA,NA,NA,NA
NA,11060.999999999942,sequential-stimulus-presentation,60,280498,0.0-18.0-1.0,SS1617819278525,trial,NA,40,1000,12060.999999999942,images/stimuli/spore_stims/complex_05_A_a.gif,images/stimuli/spore_stims/complex_03_A_b.gif,NA,5,complex_dissimilar,images/stimuli/spore_stims/complex_03_A_b.gif,NA,NA,NA,NA,NA,NA
NA,null,html-keyboard-response,61,281794,0.0-18.0-0.1,SS1617819278525,NA,NA,null,NA,NA,NA,NA,"<p><img src= images/blank.png width =""600"" height = ""600"" style=""position:fixed;top:50%; left:50%; transform: translate(-50%, -50%); border:5px solid black"">",NA,NA,NA,NA,NA,NA,NA,NA,NA
NA,8840,sequential-stimulus-presentation,62,291638,0.0-18.0-1.1,SS1617819278525,trial,NA,40,1000,9840,images/stimuli/spore_stims/complex_05_A_a.gif,images/stimuli/spore_stims/complex_03_A_b.gif,NA,5,complex_dissimilar,images/stimuli/spore_stims/complex_03_A_b.gif,NA,NA,NA,NA,NA,NA
NA,null,html-keyboard-response,63,292546,0.0-18.0-0.2,SS1617819278525,NA,NA,null,NA,NA,NA,NA,"<p><img src= images/blank.png width =""600"" height = ""600"" style=""position:fixed;top:50%; left:50%; transform: translate(-50%, -50%); border:5px solid black"">",NA,NA,NA,NA,NA,NA,NA,NA,NA
NA,3304.999999999942,sequential-stimulus-presentation,64,296855,0.0-18.0-1.2,SS1617819278525,trial,NA,40,1000,4304.999999999942,images/stimuli/spore_stims/complex_05_A_a.gif,images/stimuli/spore_stims/complex_03_A_b.gif,NA,5,complex_dissimilar,images/stimuli/spore_stims/complex_03_A_b.gif,NA,NA,NA,NA,NA,NA
NA,null,html-keyboard-response,65,297704,0.0-18.0-0.3,SS1617819278525,NA,NA,null,NA,NA,NA,NA,"<p><img src= images/blank.png width =""600"" height = ""600"" style=""position:fixed;top:50%; left:50%; transform: translate(-50%, -50%); border:5px solid black"">",NA,NA,NA,NA,NA,NA,NA,NA,NA
NA,13881,sequential-stimulus-presentation,66,312589,0.0-18.0-1.3,SS1617819278525,trial,NA,40,1000,14881,images/stimuli/spore_stims/complex_05_A_a.gif,images/stimuli/spore_stims/complex_03_A_b.gif,NA,5,complex_dissimilar,images/stimuli/spore_stims/complex_05_A_a.gif,NA,NA,NA,NA,NA,NA
NA,8418.999999999942,survey-multi-choice,67,321010,0.0-19.0,SS1617819278525,math_question,NA,NA,NA,NA,NA,NA,NA,NA,NA,NA,"{""Q0"":""13""}",[0],13,NA,NA,NA
NA,null,html-keyboard-response,68,321931,0.0-20.0-0.0,SS1617819278525,NA,NA,null,NA,NA,NA,NA,"<p><img src= images/blank.png width =""600"" height = ""600"" style=""position:fixed;top:50%; left:50%; transform: translate(-50%, -50%); border:5px solid black"">",NA,NA,NA,NA,NA,NA,NA,NA,NA
NA,8324,sequential-stimulus-presentation,69,331259,0.0-20.0-1.0,SS1617819278525,trial,NA,40,1000,9324,images/stimuli/spore_stims/complex_19_A_a.gif,images/stimuli/spore_stims/complex_05_A_b.gif,NA,6,complex_dissimilar,images/stimuli/spore_stims/complex_05_A_b.gif,NA,NA,NA,NA,NA,NA
NA,null,html-keyboard-response,70,332207,0.0-20.0-0.1,SS1617819278525,NA,NA,null,NA,NA,NA,NA,"<p><img src= images/blank.png width =""600"" height = ""600"" style=""position:fixed;top:50%; left:50%; transform: translate(-50%, -50%); border:5px solid black"">",NA,NA,NA,NA,NA,NA,NA,NA,NA
NA,9167.000000000058,sequential-stimulus-presentation,71,342377,0.0-20.0-1.1,SS1617819278525,trial,NA,40,1000,10167.000000000058,images/stimuli/spore_stims/complex_19_A_a.gif,images/stimuli/spore_stims/complex_05_A_b.gif,NA,6,complex_dissimilar,images/stimuli/spore_stims/complex_19_A_a.gif,NA,NA,NA,NA,NA,NA
NA,null,html-keyboard-response,72,343281,0.0-20.0-0.2,SS1617819278525,NA,NA,null,NA,NA,NA,NA,"<p><img src= images/blank.png width =""600"" height = ""600"" style=""position:fixed;top:50%; left:50%; transform: translate(-50%, -50%); border:5px solid black"">",NA,NA,NA,NA,NA,NA,NA,NA,NA
NA,2446,sequential-stimulus-presentation,73,346733,0.0-20.0-1.2,SS1617819278525,trial,NA,40,1000,3446,images/stimuli/spore_stims/complex_19_A_a.gif,images/stimuli/spore_stims/complex_05_A_b.gif,NA,6,complex_dissimilar,images/stimuli/spore_stims/complex_05_A_b.gif,NA,NA,NA,NA,NA,NA
NA,null,html-keyboard-response,74,347843,0.0-20.0-0.3,SS1617819278525,NA,NA,null,NA,NA,NA,NA,"<p><img src= images/blank.png width =""600"" height = ""600"" style=""position:fixed;top:50%; left:50%; transform: translate(-50%, -50%); border:5px solid black"">",NA,NA,NA,NA,NA,NA,NA,NA,NA
NA,4950.999999999942,sequential-stimulus-presentation,75,353799,0.0-20.0-1.3,SS1617819278525,trial,NA,40,1000,5950.999999999942,images/stimuli/spore_stims/complex_19_A_a.gif,images/stimuli/spore_stims/complex_05_A_b.gif,NA,6,complex_dissimilar,images/stimuli/spore_stims/complex_19_A_a.gif,NA,NA,NA,NA,NA,NA
NA,null,html-keyboard-response,76,354640,0.0-20.0-0.4,SS1617819278525,NA,NA,null,NA,NA,NA,NA,"<p><img src= images/blank.png width =""600"" height = ""600"" style=""position:fixed;top:50%; left:50%; transform: translate(-50%, -50%); border:5px solid black"">",NA,NA,NA,NA,NA,NA,NA,NA,NA
NA,3976,sequential-stimulus-presentation,77,359621,0.0-20.0-1.4,SS1617819278525,trial,NA,40,1000,4976,images/stimuli/spore_stims/complex_19_A_a.gif,images/stimuli/spore_stims/complex_05_A_b.gif,NA,6,complex_dissimilar,images/stimuli/spore_stims/complex_05_A_b.gif,NA,NA,NA,NA,NA,NA
NA,3517,survey-multi-choice,78,363140,0.0-21.0,SS1617819278525,math_question,NA,NA,NA,NA,NA,NA,NA,NA,NA,NA,"{""Q0"":""2""}",[0],2,NA,NA,NA
NA,null,html-keyboard-response,79,364440,0.0-22.0-0.0,SS1617819278525,NA,NA,null,NA,NA,NA,NA,"<p><img src= images/blank.png width =""600"" height = ""600"" style=""position:fixed;top:50%; left:50%; transform: translate(-50%, -50%); border:5px solid black"">",NA,NA,NA,NA,NA,NA,NA,NA,NA
NA,9048,sequential-stimulus-presentation,80,374492,0.0-22.0-1.0,SS1617819278525,trial,NA,40,1000,10048,images/stimuli/spore_stims/complex_02_A_b.gif,images/stimuli/spore_stims/complex_12_A_a.gif,NA,7,complex_dissimilar,images/stimuli/spore_stims/complex_12_A_a.gif,NA,NA,NA,NA,NA,NA
NA,null,html-keyboard-response,81,375627,0.0-22.0-0.1,SS1617819278525,NA,NA,null,NA,NA,NA,NA,"<p><img src= images/blank.png width =""600"" height = ""600"" style=""position:fixed;top:50%; left:50%; transform: translate(-50%, -50%); border:5px solid black"">",NA,NA,NA,NA,NA,NA,NA,NA,NA
NA,5697,sequential-stimulus-presentation,82,382328,0.0-22.0-1.1,SS1617819278525,trial,NA,40,1000,6697,images/stimuli/spore_stims/complex_02_A_b.gif,images/stimuli/spore_stims/complex_12_A_a.gif,NA,7,complex_dissimilar,images/stimuli/spore_stims/complex_12_A_a.gif,NA,NA,NA,NA,NA,NA
NA,null,html-keyboard-response,83,383296,0.0-22.0-0.2,SS1617819278525,NA,NA,null,NA,NA,NA,NA,"<p><img src= images/blank.png width =""600"" height = ""600"" style=""position:fixed;top:50%; left:50%; transform: translate(-50%, -50%); border:5px solid black"">",NA,NA,NA,NA,NA,NA,NA,NA,NA
NA,6789,sequential-stimulus-presentation,84,391091,0.0-22.0-1.2,SS1617819278525,trial,NA,40,1000,7789,images/stimuli/spore_stims/complex_02_A_b.gif,images/stimuli/spore_stims/complex_12_A_a.gif,NA,7,complex_dissimilar,images/stimuli/spore_stims/complex_02_A_b.gif,NA,NA,NA,NA,NA,NA
NA,null,html-keyboard-response,85,392099,0.0-22.0-0.3,SS1617819278525,NA,NA,null,NA,NA,NA,NA,"<p><img src= images/blank.png width =""600"" height = ""600"" style=""position:fixed;top:50%; left:50%; transform: translate(-50%, -50%); border:5px solid black"">",NA,NA,NA,NA,NA,NA,NA,NA,NA
NA,2613,sequential-stimulus-presentation,86,395717,0.0-22.0-1.3,SS1617819278525,trial,NA,40,1000,3613,images/stimuli/spore_stims/complex_02_A_b.gif,images/stimuli/spore_stims/complex_12_A_a.gif,NA,7,complex_dissimilar,images/stimuli/spore_stims/complex_12_A_a.gif,NA,NA,NA,NA,NA,NA
NA,3382,survey-multi-choice,87,399102,0.0-23.0,SS1617819278525,math_question,NA,NA,NA,NA,NA,NA,NA,NA,NA,NA,"{""Q0"":""7""}",[0],7,NA,NA,NA
NA,null,html-keyboard-response,88,400086,0.0-24.0-0.0,SS1617819278525,NA,NA,null,NA,NA,NA,NA,"<p><img src= images/blank.png width =""600"" height = ""600"" style=""position:fixed;top:50%; left:50%; transform: translate(-50%, -50%); border:5px solid black"">",NA,NA,NA,NA,NA,NA,NA,NA,NA
NA,11835.000000000058,sequential-stimulus-presentation,89,412925,0.0-24.0-1.0,SS1617819278525,trial,NA,40,1000,12835.000000000058,images/stimuli/spore_stims/complex_19_A_b.gif,images/stimuli/spore_stims/complex_02_A_a.gif,NA,8,complex_dissimilar,images/stimuli/spore_stims/complex_02_A_a.gif,NA,NA,NA,NA,NA,NA
NA,null,html-keyboard-response,90,413806,0.0-24.0-0.1,SS1617819278525,NA,NA,null,NA,NA,NA,NA,"<p><img src= images/blank.png width =""600"" height = ""600"" style=""position:fixed;top:50%; left:50%; transform: translate(-50%, -50%); border:5px solid black"">",NA,NA,NA,NA,NA,NA,NA,NA,NA
NA,4148,sequential-stimulus-presentation,91,418960,0.0-24.0-1.1,SS1617819278525,trial,NA,40,1000,5148,images/stimuli/spore_stims/complex_19_A_b.gif,images/stimuli/spore_stims/complex_02_A_a.gif,NA,8,complex_dissimilar,images/stimuli/spore_stims/complex_02_A_a.gif,NA,NA,NA,NA,NA,NA
NA,null,html-keyboard-response,92,420109,0.0-24.0-0.2,SS1617819278525,NA,NA,null,NA,NA,NA,NA,"<p><img src= images/blank.png width =""600"" height = ""600"" style=""position:fixed;top:50%; left:50%; transform: translate(-50%, -50%); border:5px solid black"">",NA,NA,NA,NA,NA,NA,NA,NA,NA
NA,1335.0000000000582,sequential-stimulus-presentation,93,422449,0.0-24.0-1.2,SS1617819278525,trial,NA,40,1000,2335.000000000058,images/stimuli/spore_stims/complex_19_A_b.gif,images/stimuli/spore_stims/complex_02_A_a.gif,NA,8,complex_dissimilar,images/stimuli/spore_stims/complex_02_A_a.gif,NA,NA,NA,NA,NA,NA
NA,null,html-keyboard-response,94,423734,0.0-24.0-0.3,SS1617819278525,NA,NA,null,NA,NA,NA,NA,"<p><img src= images/blank.png width =""600"" height = ""600"" style=""position:fixed;top:50%; left:50%; transform: translate(-50%, -50%); border:5px solid black"">",NA,NA,NA,NA,NA,NA,NA,NA,NA
NA,6761,sequential-stimulus-presentation,95,431498,0.0-24.0-1.3,SS1617819278525,trial,NA,40,1000,7761,images/stimuli/spore_stims/complex_19_A_b.gif,images/stimuli/spore_stims/complex_02_A_a.gif,NA,8,complex_dissimilar,images/stimuli/spore_stims/complex_02_A_a.gif,NA,NA,NA,NA,NA,NA
NA,null,html-keyboard-response,96,432625,0.0-24.0-0.4,SS1617819278525,NA,NA,null,NA,NA,NA,NA,"<p><img src= images/blank.png width =""600"" height = ""600"" style=""position:fixed;top:50%; left:50%; transform: translate(-50%, -50%); border:5px solid black"">",NA,NA,NA,NA,NA,NA,NA,NA,NA
NA,9858,sequential-stimulus-presentation,97,443488,0.0-24.0-1.4,SS1617819278525,trial,NA,40,1000,10858,images/stimuli/spore_stims/complex_19_A_b.gif,images/stimuli/spore_stims/complex_02_A_a.gif,NA,8,complex_dissimilar,images/stimuli/spore_stims/complex_02_A_a.gif,NA,NA,NA,NA,NA,NA
NA,4770.000000000058,survey-multi-choice,98,448264,0.0-25.0,SS1617819278525,math_question,NA,NA,NA,NA,NA,NA,NA,NA,NA,NA,"{""Q0"":""10""}",[0],10,NA,NA,NA
NA,null,html-keyboard-response,99,449255,0.0-26.0-0.0,SS1617819278525,NA,NA,null,NA,NA,NA,NA,"<p><img src= images/blank.png width =""600"" height = ""600"" style=""position:fixed;top:50%; left:50%; transform: translate(-50%, -50%); border:5px solid black"">",NA,NA,NA,NA,NA,NA,NA,NA,NA
NA,9753.999999999942,sequential-stimulus-presentation,100,460013,0.0-26.0-1.0,SS1617819278525,trial,NA,40,1000,10753.999999999942,images/stimuli/spore_stims/complex_16_A_b.gif,images/stimuli/spore_stims/complex_08_A_a.gif,NA,9,complex_dissimilar,images/stimuli/spore_stims/complex_08_A_a.gif,NA,NA,NA,NA,NA,NA
NA,null,html-keyboard-response,101,461072,0.0-26.0-0.1,SS1617819278525,NA,NA,null,NA,NA,NA,NA,"<p><img src= images/blank.png width =""600"" height = ""600"" style=""position:fixed;top:50%; left:50%; transform: translate(-50%, -50%); border:5px solid black"">",NA,NA,NA,NA,NA,NA,NA,NA,NA
NA,947,sequential-stimulus-presentation,102,463023,0.0-26.0-1.1,SS1617819278525,trial,NA,40,1000,1947,images/stimuli/spore_stims/complex_16_A_b.gif,images/stimuli/spore_stims/complex_08_A_a.gif,NA,9,complex_dissimilar,images/stimuli/spore_stims/complex_08_A_a.gif,NA,NA,NA,NA,NA,NA
NA,null,html-keyboard-response,103,464320,0.0-26.0-0.2,SS1617819278525,NA,NA,null,NA,NA,NA,NA,"<p><img src= images/blank.png width =""600"" height = ""600"" style=""position:fixed;top:50%; left:50%; transform: translate(-50%, -50%); border:5px solid black"">",NA,NA,NA,NA,NA,NA,NA,NA,NA
NA,587,sequential-stimulus-presentation,104,465912,0.0-26.0-1.2,SS1617819278525,trial,NA,40,1000,1587,images/stimuli/spore_stims/complex_16_A_b.gif,images/stimuli/spore_stims/complex_08_A_a.gif,NA,9,complex_dissimilar,images/stimuli/spore_stims/complex_08_A_a.gif,NA,NA,NA,NA,NA,NA
NA,null,html-keyboard-response,105,466767,0.0-26.0-0.3,SS1617819278525,NA,NA,null,NA,NA,NA,NA,"<p><img src= images/blank.png width =""600"" height = ""600"" style=""position:fixed;top:50%; left:50%; transform: translate(-50%, -50%); border:5px solid black"">",NA,NA,NA,NA,NA,NA,NA,NA,NA
NA,4815,sequential-stimulus-presentation,106,472588,0.0-26.0-1.3,SS1617819278525,trial,NA,40,1000,5815,images/stimuli/spore_stims/complex_16_A_b.gif,images/stimuli/spore_stims/complex_08_A_a.gif,NA,9,complex_dissimilar,images/stimuli/spore_stims/complex_08_A_a.gif,NA,NA,NA,NA,NA,NA
NA,null,html-keyboard-response,107,473749,0.0-26.0-0.4,SS1617819278525,NA,NA,null,NA,NA,NA,NA,"<p><img src= images/blank.png width =""600"" height = ""600"" style=""position:fixed;top:50%; left:50%; transform: translate(-50%, -50%); border:5px solid black"">",NA,NA,NA,NA,NA,NA,NA,NA,NA
NA,1882,sequential-stimulus-presentation,108,476637,0.0-26.0-1.4,SS1617819278525,trial,NA,40,1000,2882,images/stimuli/spore_stims/complex_16_A_b.gif,images/stimuli/spore_stims/complex_08_A_a.gif,NA,9,complex_dissimilar,images/stimuli/spore_stims/complex_08_A_a.gif,NA,NA,NA,NA,NA,NA
NA,null,html-keyboard-response,109,477775,0.0-26.0-0.5,SS1617819278525,NA,NA,null,NA,NA,NA,NA,"<p><img src= images/blank.png width =""600"" height = ""600"" style=""position:fixed;top:50%; left:50%; transform: translate(-50%, -50%); border:5px solid black"">",NA,NA,NA,NA,NA,NA,NA,NA,NA
NA,766,sequential-stimulus-presentation,110,479548,0.0-26.0-1.5,SS1617819278525,trial,NA,40,1000,1766,images/stimuli/spore_stims/complex_16_A_b.gif,images/stimuli/spore_stims/complex_08_A_a.gif,NA,9,complex_dissimilar,images/stimuli/spore_stims/complex_08_A_a.gif,NA,NA,NA,NA,NA,NA
NA,2594,survey-multi-choice,111,482144,0.0-27.0,SS1617819278525,math_question,NA,NA,NA,NA,NA,NA,NA,NA,NA,NA,"{""Q0"":""8""}",[0],8,NA,NA,NA
NA,null,html-keyboard-response,112,483310,0.0-28.0-0.0,SS1617819278525,NA,NA,null,NA,NA,NA,NA,"<p><img src= images/blank.png width =""600"" height = ""600"" style=""position:fixed;top:50%; left:50%; transform: translate(-50%, -50%); border:5px solid black"">",NA,NA,NA,NA,NA,NA,NA,NA,NA
NA,7418,sequential-stimulus-presentation,113,491732,0.0-28.0-1.0,SS1617819278525,trial,NA,40,1000,8418,images/stimuli/spore_stims/simple_20_A_b.gif,images/stimuli/spore_stims/simple_19_A_a.gif,NA,10,simple_dissimilar,images/stimuli/spore_stims/simple_19_A_a.gif,NA,NA,NA,NA,NA,NA
NA,null,html-keyboard-response,114,492917,0.0-28.0-0.1,SS1617819278525,NA,NA,null,NA,NA,NA,NA,"<p><img src= images/blank.png width =""600"" height = ""600"" style=""position:fixed;top:50%; left:50%; transform: translate(-50%, -50%); border:5px solid black"">",NA,NA,NA,NA,NA,NA,NA,NA,NA
NA,1734.0000000000582,sequential-stimulus-presentation,115,495658,0.0-28.0-1.1,SS1617819278525,trial,NA,40,1000,2734.000000000058,images/stimuli/spore_stims/simple_20_A_b.gif,images/stimuli/spore_stims/simple_19_A_a.gif,NA,10,simple_dissimilar,images/stimuli/spore_stims/simple_20_A_b.gif,NA,NA,NA,NA,NA,NA
NA,null,html-keyboard-response,116,496612,0.0-28.0-0.2,SS1617819278525,NA,NA,null,NA,NA,NA,NA,"<p><img src= images/blank.png width =""600"" height = ""600"" style=""position:fixed;top:50%; left:50%; transform: translate(-50%, -50%); border:5px solid black"">",NA,NA,NA,NA,NA,NA,NA,NA,NA
NA,623.0000000000582,sequential-stimulus-presentation,117,498241,0.0-28.0-1.2,SS1617819278525,trial,NA,40,1000,1623.0000000000582,images/stimuli/spore_stims/simple_20_A_b.gif,images/stimuli/spore_stims/simple_19_A_a.gif,NA,10,simple_dissimilar,images/stimuli/spore_stims/simple_19_A_a.gif,NA,NA,NA,NA,NA,NA
NA,null,html-keyboard-response,118,499090,0.0-28.0-0.3,SS1617819278525,NA,NA,null,NA,NA,NA,NA,"<p><img src= images/blank.png width =""600"" height = ""600"" style=""position:fixed;top:50%; left:50%; transform: translate(-50%, -50%); border:5px solid black"">",NA,NA,NA,NA,NA,NA,NA,NA,NA
NA,1518,sequential-stimulus-presentation,119,501613,0.0-28.0-1.3,SS1617819278525,trial,NA,40,1000,2518,images/stimuli/spore_stims/simple_20_A_b.gif,images/stimuli/spore_stims/simple_19_A_a.gif,NA,10,simple_dissimilar,images/stimuli/spore_stims/simple_19_A_a.gif,NA,NA,NA,NA,NA,NA
NA,3093.999999999942,survey-multi-choice,120,504710,0.0-29.0,SS1617819278525,math_question,NA,NA,NA,NA,NA,NA,NA,NA,NA,NA,"{""Q0"":""4""}",[0],4,NA,NA,NA
NA,null,html-keyboard-response,121,505977,0.0-30.0-0.0,SS1617819278525,NA,NA,null,NA,NA,NA,NA,"<p><img src= images/blank.png width =""600"" height = ""600"" style=""position:fixed;top:50%; left:50%; transform: translate(-50%, -50%); border:5px solid black"">",NA,NA,NA,NA,NA,NA,NA,NA,NA
NA,4595,sequential-stimulus-presentation,122,511576,0.0-30.0-1.0,SS1617819278525,trial,NA,40,1000,5595,images/stimuli/spore_stims/simple_13_A_b.gif,images/stimuli/spore_stims/simple_18_A_a.gif,NA,11,simple_dissimilar,images/stimuli/spore_stims/simple_18_A_a.gif,NA,NA,NA,NA,NA,NA
NA,null,html-keyboard-response,123,512505,0.0-30.0-0.1,SS1617819278525,NA,NA,null,NA,NA,NA,NA,"<p><img src= images/blank.png width =""600"" height = ""600"" style=""position:fixed;top:50%; left:50%; transform: translate(-50%, -50%); border:5px solid black"">",NA,NA,NA,NA,NA,NA,NA,NA,NA
NA,4379,sequential-stimulus-presentation,124,517887,0.0-30.0-1.1,SS1617819278525,trial,NA,40,1000,5379,images/stimuli/spore_stims/simple_13_A_b.gif,images/stimuli/spore_stims/simple_18_A_a.gif,NA,11,simple_dissimilar,images/stimuli/spore_stims/simple_18_A_a.gif,NA,NA,NA,NA,NA,NA
NA,null,html-keyboard-response,125,518961,0.0-30.0-0.2,SS1617819278525,NA,NA,null,NA,NA,NA,NA,"<p><img src= images/blank.png width =""600"" height = ""600"" style=""position:fixed;top:50%; left:50%; transform: translate(-50%, -50%); border:5px solid black"">",NA,NA,NA,NA,NA,NA,NA,NA,NA
NA,3050,sequential-stimulus-presentation,126,523016,0.0-30.0-1.2,SS1617819278525,trial,NA,40,1000,4050,images/stimuli/spore_stims/simple_13_A_b.gif,images/stimuli/spore_stims/simple_18_A_a.gif,NA,11,simple_dissimilar,images/stimuli/spore_stims/simple_18_A_a.gif,NA,NA,NA,NA,NA,NA
NA,null,html-keyboard-response,127,524152,0.0-30.0-0.3,SS1617819278525,NA,NA,null,NA,NA,NA,NA,"<p><img src= images/blank.png width =""600"" height = ""600"" style=""position:fixed;top:50%; left:50%; transform: translate(-50%, -50%); border:5px solid black"">",NA,NA,NA,NA,NA,NA,NA,NA,NA
NA,1579.0000000001164,sequential-stimulus-presentation,128,526736,0.0-30.0-1.3,SS1617819278525,trial,NA,40,1000,2579.0000000001164,images/stimuli/spore_stims/simple_13_A_b.gif,images/stimuli/spore_stims/simple_18_A_a.gif,NA,11,simple_dissimilar,images/stimuli/spore_stims/simple_18_A_a.gif,NA,NA,NA,NA,NA,NA
NA,null,html-keyboard-response,129,528011,0.0-30.0-0.4,SS1617819278525,NA,NA,null,NA,NA,NA,NA,"<p><img src= images/blank.png width =""600"" height = ""600"" style=""position:fixed;top:50%; left:50%; transform: translate(-50%, -50%); border:5px solid black"">",NA,NA,NA,NA,NA,NA,NA,NA,NA
NA,3400,sequential-stimulus-presentation,130,532416,0.0-30.0-1.4,SS1617819278525,trial,NA,40,1000,4400,images/stimuli/spore_stims/simple_13_A_b.gif,images/stimuli/spore_stims/simple_18_A_a.gif,NA,11,simple_dissimilar,images/stimuli/spore_stims/simple_13_A_b.gif,NA,NA,NA,NA,NA,NA
"[{""page_index"":0,""viewing_time"":7132.999999999884}]",7132.999999999884,instructions,131,539552,0.0-31.0,SS1617819278525,instructions,NA,NA,NA,NA,NA,NA,NA,NA,NA,NA,NA,NA,NA,NA,NA,NA
NA,10777,survey-likert,132,550333,0.0-32.0,SS1617819278525,similarity_question,NA,NA,NA,NA,NA,NA,NA,NA,NA,NA,"{""Q0"":4}",[0],NA,images/stimuli/spore_stims/complex_08_A_a.gif,images/stimuli/spore_stims/complex_16_A_b.gif,NA
NA,3317.9999999998836,survey-likert,133,553655,0.0-33.0,SS1617819278525,similarity_question,NA,NA,NA,NA,NA,NA,NA,NA,NA,NA,"{""Q0"":5}",[0],NA,images/stimuli/spore_stims/simple_04_A_a.gif,images/stimuli/spore_stims/simple_17_A_b.gif,NA
NA,4363,survey-likert,134,558021,0.0-34.0,SS1617819278525,similarity_question,NA,NA,NA,NA,NA,NA,NA,NA,NA,NA,"{""Q0"":2}",[0],NA,images/stimuli/spore_stims/simple_13_A_b.gif,images/stimuli/spore_stims/simple_18_A_a.gif,NA
NA,5829,survey-likert,135,563854,0.0-35.0,SS1617819278525,similarity_question,NA,NA,NA,NA,NA,NA,NA,NA,NA,NA,"{""Q0"":2}",[0],NA,images/stimuli/spore_stims/complex_03_A_b.gif,images/stimuli/spore_stims/complex_05_A_a.gif,NA
NA,4328,survey-likert,136,568186,0.0-36.0,SS1617819278525,similarity_question,NA,NA,NA,NA,NA,NA,NA,NA,NA,NA,"{""Q0"":4}",[0],NA,images/stimuli/spore_stims/complex_19_A_b.gif,images/stimuli/spore_stims/complex_02_A_a.gif,NA
NA,3369,survey-likert,137,571558,0.0-37.0,SS1617819278525,similarity_question,NA,NA,NA,NA,NA,NA,NA,NA,NA,NA,"{""Q0"":5}",[0],NA,images/stimuli/spore_stims/simple_11_A_a.gif,images/stimuli/spore_stims/simple_05_A_b.gif,NA
NA,6120,survey-likert,138,577682,0.0-38.0,SS1617819278525,similarity_question,NA,NA,NA,NA,NA,NA,NA,NA,NA,NA,"{""Q0"":5}",[0],NA,images/stimuli/spore_stims/simple_11_A_b.gif,images/stimuli/spore_stims/simple_09_A_a.gif,NA
NA,6849,survey-likert,139,584535,0.0-39.0,SS1617819278525,similarity_question,NA,NA,NA,NA,NA,NA,NA,NA,NA,NA,"{""Q0"":2}",[0],NA,images/stimuli/spore_stims/complex_12_A_a.gif,images/stimuli/spore_stims/complex_02_A_b.gif,NA
NA,5351.999999999884,survey-likert,140,589891,0.0-40.0,SS1617819278525,similarity_question,NA,NA,NA,NA,NA,NA,NA,NA,NA,NA,"{""Q0"":5}",[0],NA,images/stimuli/spore_stims/simple_07_A_b.gif,images/stimuli/spore_stims/simple_17_A_a.gif,NA
NA,3665.9999999998836,survey-likert,141,593561,0.0-41.0,SS1617819278525,similarity_question,NA,NA,NA,NA,NA,NA,NA,NA,NA,NA,"{""Q0"":4}",[0],NA,images/stimuli/spore_stims/complex_05_A_b.gif,images/stimuli/spore_stims/complex_19_A_a.gif,NA
NA,4997,survey-likert,142,598562,0.0-42.0,SS1617819278525,similarity_question,NA,NA,NA,NA,NA,NA,NA,NA,NA,NA,"{""Q0"":5}",[0],NA,images/stimuli/spore_stims/simple_20_A_b.gif,images/stimuli/spore_stims/simple_19_A_a.gif,NA
NA,8982,survey-likert,143,607548,0.0-43.0,SS1617819278525,similarity_question,NA,NA,NA,NA,NA,NA,NA,NA,NA,NA,"{""Q0"":3}",[0],NA,images/stimuli/spore_stims/complex_10_A_b.gif,images/stimuli/spore_stims/complex_16_A_a.gif,NA
"[{""page_index"":0,""viewing_time"":4292}]",4292,instructions,144,611843,0.0-44.0,SS1617819278525,instructions,NA,NA,NA,NA,NA,NA,NA,NA,NA,NA,NA,NA,NA,NA,NA,NA
NA,4448,survey-likert,145,616295,0.0-45.0,SS1617819278525,NA,NA,NA,NA,NA,NA,NA,images/stimuli/spore_stims/simple_17_A_b.gif,NA,NA,NA,"{""Q0"":1}",[0],NA,NA,NA,NA
NA,3041,survey-likert,146,619339,0.0-46.0,SS1617819278525,NA,NA,NA,NA,NA,NA,NA,images/stimuli/spore_stims/complex_16_A_a.gif,NA,NA,NA,"{""Q0"":5}",[0],NA,NA,NA,NA
NA,3210,survey-likert,147,622552,0.0-47.0,SS1617819278525,NA,NA,NA,NA,NA,NA,NA,images/stimuli/spore_stims/simple_13_A_b.gif,NA,NA,NA,"{""Q0"":0}",[0],NA,NA,NA,NA
NA,4612,survey-likert,148,627167,0.0-48.0,SS1617819278525,NA,NA,NA,NA,NA,NA,NA,images/stimuli/spore_stims/complex_02_A_b.gif,NA,NA,NA,"{""Q0"":5}",[0],NA,NA,NA,NA
NA,3444.0000000001164,survey-likert,149,630615,0.0-49.0,SS1617819278525,NA,NA,NA,NA,NA,NA,NA,images/stimuli/spore_stims/simple_11_A_b.gif,NA,NA,NA,"{""Q0"":1}",[0],NA,NA,NA,NA
NA,5508,survey-likert,150,636128,0.0-50.0,SS1617819278525,NA,NA,NA,NA,NA,NA,NA,images/stimuli/spore_stims/complex_19_A_a.gif,NA,NA,NA,"{""Q0"":5}",[0],NA,NA,NA,NA
NA,2317,survey-likert,151,638449,0.0-51.0,SS1617819278525,NA,NA,NA,NA,NA,NA,NA,images/stimuli/spore_stims/complex_19_A_b.gif,NA,NA,NA,"{""Q0"":5}",[0],NA,NA,NA,NA
NA,4148,survey-likert,152,642601,0.0-52.0,SS1617819278525,NA,NA,NA,NA,NA,NA,NA,images/stimuli/spore_stims/complex_03_A_b.gif,NA,NA,NA,"{""Q0"":4}",[0],NA,NA,NA,NA
NA,12027,survey-likert,153,654632,0.0-53.0,SS1617819278525,NA,NA,NA,NA,NA,NA,NA,images/stimuli/spore_stims/simple_11_A_a.gif,NA,NA,NA,"{""Q0"":1}",[0],NA,NA,NA,NA
NA,6020,survey-likert,154,660655,0.0-54.0,SS1617819278525,NA,NA,NA,NA,NA,NA,NA,images/stimuli/spore_stims/simple_19_A_a.gif,NA,NA,NA,"{""Q0"":1}",[0],NA,NA,NA,NA
NA,7967,survey-likert,155,668627,0.0-55.0,SS1617819278525,NA,NA,NA,NA,NA,NA,NA,images/stimuli/spore_stims/simple_17_A_a.gif,NA,NA,NA,"{""Q0"":0}",[0],NA,NA,NA,NA
NA,3289,survey-likert,156,671919,0.0-56.0,SS1617819278525,NA,NA,NA,NA,NA,NA,NA,images/stimuli/spore_stims/complex_16_A_b.gif,NA,NA,NA,"{""Q0"":6}",[0],NA,NA,NA,NA
"[{""page_index"":0,""viewing_time"":2099}]",2099,instructions,157,674022,0.0-57.0,SS1617819278525,instructions,NA,NA,NA,NA,NA,NA,NA,NA,NA,NA,NA,NA,NA,NA,NA,NA
NA,3515,demog-age,158,677548,0.0-58.0,SS1617819278525,NA,NA,NA,NA,NA,NA,NA,NA,NA,NA,NA,"{""age"":""20""}",NA,NA,NA,NA,NA
NA,4171,demog-ethnic-US,159,681724,0.0-59.0,SS1617819278525,NA,NA,NA,NA,NA,NA,NA,NA,NA,NA,NA,"{""ethnicity"":[""White""]}",[0],NA,NA,NA,NA
NA,16389,demog-gender-and-education,160,698116,0.0-60.0,SS1617819278525,NA,NA,NA,NA,NA,NA,NA,NA,NA,NA,NA,"{""gender"":""Male"",""education"":""Bachelor's Degree""}","[0,1]",NA,NA,NA,NA
NA,18607,survey-text,161,716733,0.0-61.0,SS1617819278525,feedback,NA,NA,NA,NA,NA,NA,NA,NA,NA,NA,"{""Q0"":""Everything was fine! :)""}",NA,NA,NA,NA,NA
"[{""page_index"":0,""viewing_time"":2489}]",2489,instructions,162,719225,0.0-62.0,SS1617819278525,instructions,NA,NA,NA,NA,NA,NA,NA,NA,NA,NA,NA,NA,NA,NA,NA,NA
"[{""page_index"":0,""viewing_time"":25877.45000000359}]",25878.375000000233,instructions,0,25880,0.0-0.0,SS1617819279925,NA,NA,NA,NA,NA,NA,NA,NA,NA,NA,NA,NA,NA,NA,NA,NA,NA
"[{""page_index"":0,""viewing_time"":13611.400000001595},{""page_index"":1,""viewing_time"":14799.979999999778}]",28411.61000000284,instructions,1,56295,0.0-1.0,SS1617819279925,instructions,NA,NA,NA,NA,NA,NA,NA,NA,NA,NA,NA,NA,NA,NA,NA,NA
NA,10174.560000003112,sequential-stimulus-presentation-old,2,67075,0.0-2.0,SS1617819279925,NA,NA,40,600,10774.560000003112,null,null,NA,NA,NA,NA,NA,NA,NA,NA,NA,NA
NA,7103.909999997995,sequential-stimulus-presentation-old,3,74682,0.0-3.0,SS1617819279925,NA,NA,40,500,7603.909999997995,null,null,NA,NA,NA,NA,NA,NA,NA,NA,NA,NA
"[{""page_index"":0,""viewing_time"":28515.369999997347}]",28515.595000000758,instructions,4,103199,0.0-4.0,SS1617819279925,instructions,NA,NA,NA,NA,NA,NA,NA,NA,NA,NA,NA,NA,NA,NA,NA,NA
NA,4029.2149999986577,sequential-stimulus-presentation,5,108232,0.0-5.0,SS1617819279925,NA,NA,40,1000,5029.214999998658,null,null,NA,NA,NA,NA,NA,NA,NA,NA,NA,NA
"[{""page_index"":0,""viewing_time"":5205.949999999575}]",5206.175000002986,instructions,6,113439,0.0-6.0,SS1617819279925,instructions,NA,NA,NA,NA,NA,NA,NA,NA,NA,NA,NA,NA,NA,NA,NA,NA
"[{""page_index"":0,""viewing_time"":10974.63499999867},{""page_index"":1,""viewing_time"":14720.024999998714},{""page_index"":2,""viewing_time"":4143.990000000485},{""page_index"":3,""viewing_time"":1464.060000002064},{""page_index"":4,""viewing_time"":1159.990000000107}]",32462.93499999956,instructions,7,145903,0.0-7.0,SS1617819279925,instructions,NA,NA,NA,NA,NA,NA,NA,NA,NA,NA,NA,NA,NA,NA,NA,NA
NA,null,html-keyboard-response,8,146800,0.0-8.0-0.0,SS1617819279925,NA,NA,null,NA,NA,NA,NA,"<p><img src= images/blank.png width =""600"" height = ""600"" style=""position:fixed;top:50%; left:50%; transform: translate(-50%, -50%); border:5px solid black"">",NA,NA,NA,NA,NA,NA,NA,NA,NA
NA,4397.820000001957,sequential-stimulus-presentation,9,152204,0.0-8.0-1.0,SS1617819279925,trial,NA,40,1000,5397.820000001957,images/stimuli/spore_stims/simple_18_A_a.gif,images/stimuli/spore_stims/simple_16_A_b.gif,NA,0,simple_dissimilar,images/stimuli/spore_stims/simple_16_A_b.gif,NA,NA,NA,NA,NA,NA
NA,null,html-keyboard-response,10,153506,0.0-8.0-0.1,SS1617819279925,NA,NA,null,NA,NA,NA,NA,"<p><img src= images/blank.png width =""600"" height = ""600"" style=""position:fixed;top:50%; left:50%; transform: translate(-50%, -50%); border:5px solid black"">",NA,NA,NA,NA,NA,NA,NA,NA,NA
NA,2909.2099999979837,sequential-stimulus-presentation,11,157418,0.0-8.0-1.1,SS1617819279925,trial,NA,40,1000,3909.2099999979837,images/stimuli/spore_stims/simple_18_A_a.gif,images/stimuli/spore_stims/simple_16_A_b.gif,NA,0,simple_dissimilar,images/stimuli/spore_stims/simple_16_A_b.gif,NA,NA,NA,NA,NA,NA
NA,null,html-keyboard-response,12,158495,0.0-8.0-0.2,SS1617819279925,NA,NA,null,NA,NA,NA,NA,"<p><img src= images/blank.png width =""600"" height = ""600"" style=""position:fixed;top:50%; left:50%; transform: translate(-50%, -50%); border:5px solid black"">",NA,NA,NA,NA,NA,NA,NA,NA,NA
NA,2809.290000001056,sequential-stimulus-presentation,13,162309,0.0-8.0-1.2,SS1617819279925,trial,NA,40,1000,3809.290000001056,images/stimuli/spore_stims/simple_18_A_a.gif,images/stimuli/spore_stims/simple_16_A_b.gif,NA,0,simple_dissimilar,images/stimuli/spore_stims/simple_16_A_b.gif,NA,NA,NA,NA,NA,NA
NA,null,html-keyboard-response,14,163522,0.0-8.0-0.3,SS1617819279925,NA,NA,null,NA,NA,NA,NA,"<p><img src= images/blank.png width =""600"" height = ""600"" style=""position:fixed;top:50%; left:50%; transform: translate(-50%, -50%); border:5px solid black"">",NA,NA,NA,NA,NA,NA,NA,NA,NA
NA,2462.48999999807,sequential-stimulus-presentation,15,166988,0.0-8.0-1.3,SS1617819279925,trial,NA,40,1000,3462.48999999807,images/stimuli/spore_stims/simple_18_A_a.gif,images/stimuli/spore_stims/simple_16_A_b.gif,NA,0,simple_dissimilar,images/stimuli/spore_stims/simple_16_A_b.gif,NA,NA,NA,NA,NA,NA
NA,null,html-keyboard-response,16,168245,0.0-8.0-0.4,SS1617819279925,NA,NA,null,NA,NA,NA,NA,"<p><img src= images/blank.png width =""600"" height = ""600"" style=""position:fixed;top:50%; left:50%; transform: translate(-50%, -50%); border:5px solid black"">",NA,NA,NA,NA,NA,NA,NA,NA,NA
NA,2066.4250000008906,sequential-stimulus-presentation,17,171315,0.0-8.0-1.4,SS1617819279925,trial,NA,40,1000,3066.4250000008906,images/stimuli/spore_stims/simple_18_A_a.gif,images/stimuli/spore_stims/simple_16_A_b.gif,NA,0,simple_dissimilar,images/stimuli/spore_stims/simple_16_A_b.gif,NA,NA,NA,NA,NA,NA
NA,4505.519999998796,survey-multi-choice,18,175823,0.0-9.0,SS1617819279925,math_question,NA,NA,NA,NA,NA,NA,NA,NA,NA,NA,"{""Q0"":""12""}",[0],12,NA,NA,NA
NA,null,html-keyboard-response,19,176949,0.0-10.0-0.0,SS1617819279925,NA,NA,null,NA,NA,NA,NA,"<p><img src= images/blank.png width =""600"" height = ""600"" style=""position:fixed;top:50%; left:50%; transform: translate(-50%, -50%); border:5px solid black"">",NA,NA,NA,NA,NA,NA,NA,NA,NA
NA,5020.479999999225,sequential-stimulus-presentation,20,182973,0.0-10.0-1.0,SS1617819279925,trial,NA,40,1000,6020.479999999225,images/stimuli/spore_stims/complex_12_A_a.gif,images/stimuli/spore_stims/complex_10_A_b.gif,NA,1,complex_dissimilar,images/stimuli/spore_stims/complex_10_A_b.gif,NA,NA,NA,NA,NA,NA
NA,null,html-keyboard-response,21,184046,0.0-10.0-0.1,SS1617819279925,NA,NA,null,NA,NA,NA,NA,"<p><img src= images/blank.png width =""600"" height = ""600"" style=""position:fixed;top:50%; left:50%; transform: translate(-50%, -50%); border:5px solid black"">",NA,NA,NA,NA,NA,NA,NA,NA,NA
NA,4836.235000002489,sequential-stimulus-presentation,22,189887,0.0-10.0-1.1,SS1617819279925,trial,NA,40,1000,5836.235000002489,images/stimuli/spore_stims/complex_12_A_a.gif,images/stimuli/spore_stims/complex_10_A_b.gif,NA,1,complex_dissimilar,images/stimuli/spore_stims/complex_12_A_a.gif,NA,NA,NA,NA,NA,NA
NA,null,html-keyboard-response,23,190859,0.0-10.0-0.2,SS1617819279925,NA,NA,null,NA,NA,NA,NA,"<p><img src= images/blank.png width =""600"" height = ""600"" style=""position:fixed;top:50%; left:50%; transform: translate(-50%, -50%); border:5px solid black"">",NA,NA,NA,NA,NA,NA,NA,NA,NA
NA,3691.1399999989953,sequential-stimulus-presentation,24,195555,0.0-10.0-1.2,SS1617819279925,trial,NA,40,1000,4691.139999998995,images/stimuli/spore_stims/complex_12_A_a.gif,images/stimuli/spore_stims/complex_10_A_b.gif,NA,1,complex_dissimilar,images/stimuli/spore_stims/complex_10_A_b.gif,NA,NA,NA,NA,NA,NA
NA,null,html-keyboard-response,25,196667,0.0-10.0-0.3,SS1617819279925,NA,NA,null,NA,NA,NA,NA,"<p><img src= images/blank.png width =""600"" height = ""600"" style=""position:fixed;top:50%; left:50%; transform: translate(-50%, -50%); border:5px solid black"">",NA,NA,NA,NA,NA,NA,NA,NA,NA
NA,3179.9800000007963,sequential-stimulus-presentation,26,200850,0.0-10.0-1.3,SS1617819279925,trial,NA,40,1000,4179.980000000796,images/stimuli/spore_stims/complex_12_A_a.gif,images/stimuli/spore_stims/complex_10_A_b.gif,NA,1,complex_dissimilar,images/stimuli/spore_stims/complex_10_A_b.gif,NA,NA,NA,NA,NA,NA
NA,null,html-keyboard-response,27,201806,0.0-10.0-0.4,SS1617819279925,NA,NA,null,NA,NA,NA,NA,"<p><img src= images/blank.png width =""600"" height = ""600"" style=""position:fixed;top:50%; left:50%; transform: translate(-50%, -50%); border:5px solid black"">",NA,NA,NA,NA,NA,NA,NA,NA,NA
NA,3552.915000000212,sequential-stimulus-presentation,28,206362,0.0-10.0-1.4,SS1617819279925,trial,NA,40,1000,4552.915000000212,images/stimuli/spore_stims/complex_12_A_a.gif,images/stimuli/spore_stims/complex_10_A_b.gif,NA,1,complex_dissimilar,images/stimuli/spore_stims/complex_12_A_a.gif,NA,NA,NA,NA,NA,NA
NA,3706.334999998944,survey-multi-choice,29,210071,0.0-11.0,SS1617819279925,math_question,NA,NA,NA,NA,NA,NA,NA,NA,NA,NA,"{""Q0"":""11""}",[0],11,NA,NA,NA
NA,null,html-keyboard-response,30,211225,0.0-12.0-0.0,SS1617819279925,NA,NA,null,NA,NA,NA,NA,"<p><img src= images/blank.png width =""600"" height = ""600"" style=""position:fixed;top:50%; left:50%; transform: translate(-50%, -50%); border:5px solid black"">",NA,NA,NA,NA,NA,NA,NA,NA,NA
NA,1862.6750000003085,sequential-stimulus-presentation,31,214091,0.0-12.0-1.0,SS1617819279925,trial,NA,40,1000,2862.6750000003085,images/stimuli/spore_stims/simple_15_A_a.gif,images/stimuli/spore_stims/simple_01_A_b.gif,NA,2,simple_dissimilar,images/stimuli/spore_stims/simple_01_A_b.gif,NA,NA,NA,NA,NA,NA
NA,null,html-keyboard-response,32,215188,0.0-12.0-0.1,SS1617819279925,NA,NA,null,NA,NA,NA,NA,"<p><img src= images/blank.png width =""600"" height = ""600"" style=""position:fixed;top:50%; left:50%; transform: translate(-50%, -50%); border:5px solid black"">",NA,NA,NA,NA,NA,NA,NA,NA,NA
NA,1995.4900000011548,sequential-stimulus-presentation,33,218188,0.0-12.0-1.1,SS1617819279925,trial,NA,40,1000,2995.490000001155,images/stimuli/spore_stims/simple_15_A_a.gif,images/stimuli/spore_stims/simple_01_A_b.gif,NA,2,simple_dissimilar,images/stimuli/spore_stims/simple_01_A_b.gif,NA,NA,NA,NA,NA,NA
NA,null,html-keyboard-response,34,219482,0.0-12.0-0.2,SS1617819279925,NA,NA,null,NA,NA,NA,NA,"<p><img src= images/blank.png width =""600"" height = ""600"" style=""position:fixed;top:50%; left:50%; transform: translate(-50%, -50%); border:5px solid black"">",NA,NA,NA,NA,NA,NA,NA,NA,NA
NA,1979.6649999989313,sequential-stimulus-presentation,35,222466,0.0-12.0-1.2,SS1617819279925,trial,NA,40,1000,2979.6649999989313,images/stimuli/spore_stims/simple_15_A_a.gif,images/stimuli/spore_stims/simple_01_A_b.gif,NA,2,simple_dissimilar,images/stimuli/spore_stims/simple_01_A_b.gif,NA,NA,NA,NA,NA,NA
NA,null,html-keyboard-response,36,223551,0.0-12.0-0.3,SS1617819279925,NA,NA,null,NA,NA,NA,NA,"<p><img src= images/blank.png width =""600"" height = ""600"" style=""position:fixed;top:50%; left:50%; transform: translate(-50%, -50%); border:5px solid black"">",NA,NA,NA,NA,NA,NA,NA,NA,NA
NA,2515.8599999995204,sequential-stimulus-presentation,37,227071,0.0-12.0-1.3,SS1617819279925,trial,NA,40,1000,3515.8599999995204,images/stimuli/spore_stims/simple_15_A_a.gif,images/stimuli/spore_stims/simple_01_A_b.gif,NA,2,simple_dissimilar,images/stimuli/spore_stims/simple_01_A_b.gif,NA,NA,NA,NA,NA,NA
NA,null,html-keyboard-response,38,228231,0.0-12.0-0.4,SS1617819279925,NA,NA,null,NA,NA,NA,NA,"<p><img src= images/blank.png width =""600"" height = ""600"" style=""position:fixed;top:50%; left:50%; transform: translate(-50%, -50%); border:5px solid black"">",NA,NA,NA,NA,NA,NA,NA,NA,NA
NA,1094.665000000532,sequential-stimulus-presentation,39,230330,0.0-12.0-1.4,SS1617819279925,trial,NA,40,1000,2094.665000000532,images/stimuli/spore_stims/simple_15_A_a.gif,images/stimuli/spore_stims/simple_01_A_b.gif,NA,2,simple_dissimilar,images/stimuli/spore_stims/simple_01_A_b.gif,NA,NA,NA,NA,NA,NA
NA,null,html-keyboard-response,40,231243,0.0-12.0-0.5,SS1617819279925,NA,NA,null,NA,NA,NA,NA,"<p><img src= images/blank.png width =""600"" height = ""600"" style=""position:fixed;top:50%; left:50%; transform: translate(-50%, -50%); border:5px solid black"">",NA,NA,NA,NA,NA,NA,NA,NA,NA
NA,3445.7599999986996,sequential-stimulus-presentation,41,235694,0.0-12.0-1.5,SS1617819279925,trial,NA,40,1000,4445.7599999987,images/stimuli/spore_stims/simple_15_A_a.gif,images/stimuli/spore_stims/simple_01_A_b.gif,NA,2,simple_dissimilar,images/stimuli/spore_stims/simple_15_A_a.gif,NA,NA,NA,NA,NA,NA
NA,3319.7800000016287,survey-multi-choice,42,239015,0.0-13.0,SS1617819279925,math_question,NA,NA,NA,NA,NA,NA,NA,NA,NA,NA,"{""Q0"":""8""}",[0],8,NA,NA,NA
NA,null,html-keyboard-response,43,240024,0.0-14.0-0.0,SS1617819279925,NA,NA,null,NA,NA,NA,NA,"<p><img src= images/blank.png width =""600"" height = ""600"" style=""position:fixed;top:50%; left:50%; transform: translate(-50%, -50%); border:5px solid black"">",NA,NA,NA,NA,NA,NA,NA,NA,NA
NA,4380.044999998063,sequential-stimulus-presentation,44,245413,0.0-14.0-1.0,SS1617819279925,trial,NA,40,1000,5380.044999998063,images/stimuli/spore_stims/complex_11_A_a.gif,images/stimuli/spore_stims/complex_02_A_b.gif,NA,3,complex_dissimilar,images/stimuli/spore_stims/complex_02_A_b.gif,NA,NA,NA,NA,NA,NA
NA,null,html-keyboard-response,45,246410,0.0-14.0-0.1,SS1617819279925,NA,NA,null,NA,NA,NA,NA,"<p><img src= images/blank.png width =""600"" height = ""600"" style=""position:fixed;top:50%; left:50%; transform: translate(-50%, -50%); border:5px solid black"">",NA,NA,NA,NA,NA,NA,NA,NA,NA
NA,4329.125000000175,sequential-stimulus-presentation,46,251744,0.0-14.0-1.1,SS1617819279925,trial,NA,40,1000,5329.125000000175,images/stimuli/spore_stims/complex_11_A_a.gif,images/stimuli/spore_stims/complex_02_A_b.gif,NA,3,complex_dissimilar,images/stimuli/spore_stims/complex_11_A_a.gif,NA,NA,NA,NA,NA,NA
NA,null,html-keyboard-response,47,252548,0.0-14.0-0.2,SS1617819279925,NA,NA,null,NA,NA,NA,NA,"<p><img src= images/blank.png width =""600"" height = ""600"" style=""position:fixed;top:50%; left:50%; transform: translate(-50%, -50%); border:5px solid black"">",NA,NA,NA,NA,NA,NA,NA,NA,NA
NA,6063.510000000009,sequential-stimulus-presentation,48,259616,0.0-14.0-1.2,SS1617819279925,trial,NA,40,1000,7063.510000000009,images/stimuli/spore_stims/complex_11_A_a.gif,images/stimuli/spore_stims/complex_02_A_b.gif,NA,3,complex_dissimilar,images/stimuli/spore_stims/complex_02_A_b.gif,NA,NA,NA,NA,NA,NA
NA,null,html-keyboard-response,49,260536,0.0-14.0-0.3,SS1617819279925,NA,NA,null,NA,NA,NA,NA,"<p><img src= images/blank.png width =""600"" height = ""600"" style=""position:fixed;top:50%; left:50%; transform: translate(-50%, -50%); border:5px solid black"">",NA,NA,NA,NA,NA,NA,NA,NA,NA
NA,2824.9849999992875,sequential-stimulus-presentation,50,264367,0.0-14.0-1.3,SS1617819279925,trial,NA,40,1000,3824.9849999992875,images/stimuli/spore_stims/complex_11_A_a.gif,images/stimuli/spore_stims/complex_02_A_b.gif,NA,3,complex_dissimilar,images/stimuli/spore_stims/complex_02_A_b.gif,NA,NA,NA,NA,NA,NA
NA,null,html-keyboard-response,51,265254,0.0-14.0-0.4,SS1617819279925,NA,NA,null,NA,NA,NA,NA,"<p><img src= images/blank.png width =""600"" height = ""600"" style=""position:fixed;top:50%; left:50%; transform: translate(-50%, -50%); border:5px solid black"">",NA,NA,NA,NA,NA,NA,NA,NA,NA
NA,2472.09500000102,sequential-stimulus-presentation,52,268731,0.0-14.0-1.4,SS1617819279925,trial,NA,40,1000,3472.09500000102,images/stimuli/spore_stims/complex_11_A_a.gif,images/stimuli/spore_stims/complex_02_A_b.gif,NA,3,complex_dissimilar,images/stimuli/spore_stims/complex_02_A_b.gif,NA,NA,NA,NA,NA,NA
NA,null,html-keyboard-response,53,270017,0.0-14.0-0.5,SS1617819279925,NA,NA,null,NA,NA,NA,NA,"<p><img src= images/blank.png width =""600"" height = ""600"" style=""position:fixed;top:50%; left:50%; transform: translate(-50%, -50%); border:5px solid black"">",NA,NA,NA,NA,NA,NA,NA,NA,NA
NA,3414.4450000021607,sequential-stimulus-presentation,54,274436,0.0-14.0-1.5,SS1617819279925,trial,NA,40,1000,4414.445000002161,images/stimuli/spore_stims/complex_11_A_a.gif,images/stimuli/spore_stims/complex_02_A_b.gif,NA,3,complex_dissimilar,images/stimuli/spore_stims/complex_11_A_a.gif,NA,NA,NA,NA,NA,NA
NA,2889.870000002673,survey-multi-choice,55,277327,0.0-15.0,SS1617819279925,math_question,NA,NA,NA,NA,NA,NA,NA,NA,NA,NA,"{""Q0"":""8""}",[0],8,NA,NA,NA
NA,null,html-keyboard-response,56,278193,0.0-16.0-0.0,SS1617819279925,NA,NA,null,NA,NA,NA,NA,"<p><img src= images/blank.png width =""600"" height = ""600"" style=""position:fixed;top:50%; left:50%; transform: translate(-50%, -50%); border:5px solid black"">",NA,NA,NA,NA,NA,NA,NA,NA,NA
NA,2753.044999997597,sequential-stimulus-presentation,57,281951,0.0-16.0-1.0,SS1617819279925,trial,NA,40,1000,3753.044999997597,images/stimuli/spore_stims/simple_13_A_b.gif,images/stimuli/spore_stims/simple_08_A_a.gif,NA,4,simple_dissimilar,images/stimuli/spore_stims/simple_08_A_a.gif,NA,NA,NA,NA,NA,NA
NA,null,html-keyboard-response,58,283216,0.0-16.0-0.1,SS1617819279925,NA,NA,null,NA,NA,NA,NA,"<p><img src= images/blank.png width =""600"" height = ""600"" style=""position:fixed;top:50%; left:50%; transform: translate(-50%, -50%); border:5px solid black"">",NA,NA,NA,NA,NA,NA,NA,NA,NA
NA,939.954999997979,sequential-stimulus-presentation,59,285160,0.0-16.0-1.1,SS1617819279925,trial,NA,40,1000,1939.954999997979,images/stimuli/spore_stims/simple_13_A_b.gif,images/stimuli/spore_stims/simple_08_A_a.gif,NA,4,simple_dissimilar,images/stimuli/spore_stims/simple_08_A_a.gif,NA,NA,NA,NA,NA,NA
NA,null,html-keyboard-response,60,286397,0.0-16.0-0.2,SS1617819279925,NA,NA,null,NA,NA,NA,NA,"<p><img src= images/blank.png width =""600"" height = ""600"" style=""position:fixed;top:50%; left:50%; transform: translate(-50%, -50%); border:5px solid black"">",NA,NA,NA,NA,NA,NA,NA,NA,NA
NA,2539.910000003176,sequential-stimulus-presentation,61,289941,0.0-16.0-1.2,SS1617819279925,trial,NA,40,1000,3539.910000003176,images/stimuli/spore_stims/simple_13_A_b.gif,images/stimuli/spore_stims/simple_08_A_a.gif,NA,4,simple_dissimilar,images/stimuli/spore_stims/simple_08_A_a.gif,NA,NA,NA,NA,NA,NA
NA,null,html-keyboard-response,62,290786,0.0-16.0-0.3,SS1617819279925,NA,NA,null,NA,NA,NA,NA,"<p><img src= images/blank.png width =""600"" height = ""600"" style=""position:fixed;top:50%; left:50%; transform: translate(-50%, -50%); border:5px solid black"">",NA,NA,NA,NA,NA,NA,NA,NA,NA
NA,1401.8600000017905,sequential-stimulus-presentation,63,293191,0.0-16.0-1.3,SS1617819279925,trial,NA,40,1000,2401.8600000017905,images/stimuli/spore_stims/simple_13_A_b.gif,images/stimuli/spore_stims/simple_08_A_a.gif,NA,4,simple_dissimilar,images/stimuli/spore_stims/simple_08_A_a.gif,NA,NA,NA,NA,NA,NA
NA,null,html-keyboard-response,64,294064,0.0-16.0-0.4,SS1617819279925,NA,NA,null,NA,NA,NA,NA,"<p><img src= images/blank.png width =""600"" height = ""600"" style=""position:fixed;top:50%; left:50%; transform: translate(-50%, -50%); border:5px solid black"">",NA,NA,NA,NA,NA,NA,NA,NA,NA
NA,367.7399999978952,sequential-stimulus-presentation,65,295436,0.0-16.0-1.4,SS1617819279925,trial,NA,40,1000,1367.7399999978952,images/stimuli/spore_stims/simple_13_A_b.gif,images/stimuli/spore_stims/simple_08_A_a.gif,NA,4,simple_dissimilar,images/stimuli/spore_stims/simple_08_A_a.gif,NA,NA,NA,NA,NA,NA
NA,2936.9249999981257,survey-multi-choice,66,298375,0.0-17.0,SS1617819279925,math_question,NA,NA,NA,NA,NA,NA,NA,NA,NA,NA,"{""Q0"":""6""}",[0],6,NA,NA,NA
NA,null,html-keyboard-response,67,299449,0.0-18.0-0.0,SS1617819279925,NA,NA,null,NA,NA,NA,NA,"<p><img src= images/blank.png width =""600"" height = ""600"" style=""position:fixed;top:50%; left:50%; transform: translate(-50%, -50%); border:5px solid black"">",NA,NA,NA,NA,NA,NA,NA,NA,NA
NA,6463.465000000666,sequential-stimulus-presentation,68,306918,0.0-18.0-1.0,SS1617819279925,trial,NA,40,1000,7463.465000000666,images/stimuli/spore_stims/complex_20_A_a.gif,images/stimuli/spore_stims/complex_05_A_b.gif,NA,5,complex_dissimilar,images/stimuli/spore_stims/complex_05_A_b.gif,NA,NA,NA,NA,NA,NA
NA,null,html-keyboard-response,69,307897,0.0-18.0-0.1,SS1617819279925,NA,NA,null,NA,NA,NA,NA,"<p><img src= images/blank.png width =""600"" height = ""600"" style=""position:fixed;top:50%; left:50%; transform: translate(-50%, -50%); border:5px solid black"">",NA,NA,NA,NA,NA,NA,NA,NA,NA
NA,4460.399999999965,sequential-stimulus-presentation,70,313363,0.0-18.0-1.1,SS1617819279925,trial,NA,40,1000,5460.399999999965,images/stimuli/spore_stims/complex_20_A_a.gif,images/stimuli/spore_stims/complex_05_A_b.gif,NA,5,complex_dissimilar,images/stimuli/spore_stims/complex_05_A_b.gif,NA,NA,NA,NA,NA,NA
NA,null,html-keyboard-response,71,314427,0.0-18.0-0.2,SS1617819279925,NA,NA,null,NA,NA,NA,NA,"<p><img src= images/blank.png width =""600"" height = ""600"" style=""position:fixed;top:50%; left:50%; transform: translate(-50%, -50%); border:5px solid black"">",NA,NA,NA,NA,NA,NA,NA,NA,NA
NA,5781.764999999781,sequential-stimulus-presentation,72,321214,0.0-18.0-1.2,SS1617819279925,trial,NA,40,1000,6781.764999999781,images/stimuli/spore_stims/complex_20_A_a.gif,images/stimuli/spore_stims/complex_05_A_b.gif,NA,5,complex_dissimilar,images/stimuli/spore_stims/complex_20_A_a.gif,NA,NA,NA,NA,NA,NA
NA,null,html-keyboard-response,73,322026,0.0-18.0-0.3,SS1617819279925,NA,NA,null,NA,NA,NA,NA,"<p><img src= images/blank.png width =""600"" height = ""600"" style=""position:fixed;top:50%; left:50%; transform: translate(-50%, -50%); border:5px solid black"">",NA,NA,NA,NA,NA,NA,NA,NA,NA
NA,5464.820000001055,sequential-stimulus-presentation,74,328496,0.0-18.0-1.3,SS1617819279925,trial,NA,40,1000,6464.820000001055,images/stimuli/spore_stims/complex_20_A_a.gif,images/stimuli/spore_stims/complex_05_A_b.gif,NA,5,complex_dissimilar,images/stimuli/spore_stims/complex_05_A_b.gif,NA,NA,NA,NA,NA,NA
NA,null,html-keyboard-response,75,329711,0.0-18.0-0.4,SS1617819279925,NA,NA,null,NA,NA,NA,NA,"<p><img src= images/blank.png width =""600"" height = ""600"" style=""position:fixed;top:50%; left:50%; transform: translate(-50%, -50%); border:5px solid black"">",NA,NA,NA,NA,NA,NA,NA,NA,NA
NA,3678.4200000002165,sequential-stimulus-presentation,76,334394,0.0-18.0-1.4,SS1617819279925,trial,NA,40,1000,4678.4200000002165,images/stimuli/spore_stims/complex_20_A_a.gif,images/stimuli/spore_stims/complex_05_A_b.gif,NA,5,complex_dissimilar,images/stimuli/spore_stims/complex_05_A_b.gif,NA,NA,NA,NA,NA,NA
NA,5794.59499999939,survey-multi-choice,77,340191,0.0-19.0,SS1617819279925,math_question,NA,NA,NA,NA,NA,NA,NA,NA,NA,NA,"{""Q0"":""11""}",[0],11,NA,NA,NA
NA,null,html-keyboard-response,78,341165,0.0-20.0-0.0,SS1617819279925,NA,NA,null,NA,NA,NA,NA,"<p><img src= images/blank.png width =""600"" height = ""600"" style=""position:fixed;top:50%; left:50%; transform: translate(-50%, -50%); border:5px solid black"">",NA,NA,NA,NA,NA,NA,NA,NA,NA
NA,5197.280000000377,sequential-stimulus-presentation,79,347367,0.0-20.0-1.0,SS1617819279925,trial,NA,40,1000,6197.280000000377,images/stimuli/spore_stims/simple_07_A_b.gif,images/stimuli/spore_stims/simple_11_A_a.gif,NA,6,simple_dissimilar,images/stimuli/spore_stims/simple_11_A_a.gif,NA,NA,NA,NA,NA,NA
NA,null,html-keyboard-response,80,348635,0.0-20.0-0.1,SS1617819279925,NA,NA,null,NA,NA,NA,NA,"<p><img src= images/blank.png width =""600"" height = ""600"" style=""position:fixed;top:50%; left:50%; transform: translate(-50%, -50%); border:5px solid black"">",NA,NA,NA,NA,NA,NA,NA,NA,NA
NA,2649.395000000368,sequential-stimulus-presentation,81,352288,0.0-20.0-1.1,SS1617819279925,trial,NA,40,1000,3649.395000000368,images/stimuli/spore_stims/simple_07_A_b.gif,images/stimuli/spore_stims/simple_11_A_a.gif,NA,6,simple_dissimilar,images/stimuli/spore_stims/simple_07_A_b.gif,NA,NA,NA,NA,NA,NA
NA,null,html-keyboard-response,82,353377,0.0-20.0-0.2,SS1617819279925,NA,NA,null,NA,NA,NA,NA,"<p><img src= images/blank.png width =""600"" height = ""600"" style=""position:fixed;top:50%; left:50%; transform: translate(-50%, -50%); border:5px solid black"">",NA,NA,NA,NA,NA,NA,NA,NA,NA
NA,4340.649999998277,sequential-stimulus-presentation,83,358721,0.0-20.0-1.2,SS1617819279925,trial,NA,40,1000,5340.649999998277,images/stimuli/spore_stims/simple_07_A_b.gif,images/stimuli/spore_stims/simple_11_A_a.gif,NA,6,simple_dissimilar,images/stimuli/spore_stims/simple_11_A_a.gif,NA,NA,NA,NA,NA,NA
NA,null,html-keyboard-response,84,359839,0.0-20.0-0.3,SS1617819279925,NA,NA,null,NA,NA,NA,NA,"<p><img src= images/blank.png width =""600"" height = ""600"" style=""position:fixed;top:50%; left:50%; transform: translate(-50%, -50%); border:5px solid black"">",NA,NA,NA,NA,NA,NA,NA,NA,NA
NA,1931.980000001262,sequential-stimulus-presentation,85,363352,0.0-20.0-1.3,SS1617819279925,trial,NA,40,1000,2931.980000001262,images/stimuli/spore_stims/simple_07_A_b.gif,images/stimuli/spore_stims/simple_11_A_a.gif,NA,6,simple_dissimilar,images/stimuli/spore_stims/simple_11_A_a.gif,NA,NA,NA,NA,NA,NA
NA,null,html-keyboard-response,86,364156,0.0-20.0-0.4,SS1617819279925,NA,NA,null,NA,NA,NA,NA,"<p><img src= images/blank.png width =""600"" height = ""600"" style=""position:fixed;top:50%; left:50%; transform: translate(-50%, -50%); border:5px solid black"">",NA,NA,NA,NA,NA,NA,NA,NA,NA
NA,1255.2299999988172,sequential-stimulus-presentation,87,366417,0.0-20.0-1.4,SS1617819279925,trial,NA,40,1000,2255.229999998817,images/stimuli/spore_stims/simple_07_A_b.gif,images/stimuli/spore_stims/simple_11_A_a.gif,NA,6,simple_dissimilar,images/stimuli/spore_stims/simple_07_A_b.gif,NA,NA,NA,NA,NA,NA
NA,3163.5150000001886,survey-multi-choice,88,369583,0.0-21.0,SS1617819279925,math_question,NA,NA,NA,NA,NA,NA,NA,NA,NA,NA,"{""Q0"":""2""}",[0],2,NA,NA,NA
NA,null,html-keyboard-response,89,370466,0.0-22.0-0.0,SS1617819279925,NA,NA,null,NA,NA,NA,NA,"<p><img src= images/blank.png width =""600"" height = ""600"" style=""position:fixed;top:50%; left:50%; transform: translate(-50%, -50%); border:5px solid black"">",NA,NA,NA,NA,NA,NA,NA,NA,NA
NA,5012.904999999562,sequential-stimulus-presentation,90,376485,0.0-22.0-1.0,SS1617819279925,trial,NA,40,1000,6012.904999999562,images/stimuli/spore_stims/complex_08_A_a.gif,images/stimuli/spore_stims/complex_14_A_b.gif,NA,7,complex_dissimilar,images/stimuli/spore_stims/complex_14_A_b.gif,NA,NA,NA,NA,NA,NA
NA,null,html-keyboard-response,91,377734,0.0-22.0-0.1,SS1617819279925,NA,NA,null,NA,NA,NA,NA,"<p><img src= images/blank.png width =""600"" height = ""600"" style=""position:fixed;top:50%; left:50%; transform: translate(-50%, -50%); border:5px solid black"">",NA,NA,NA,NA,NA,NA,NA,NA,NA
NA,6963.144999997923,sequential-stimulus-presentation,92,385703,0.0-22.0-1.1,SS1617819279925,trial,NA,40,1000,7963.144999997923,images/stimuli/spore_stims/complex_08_A_a.gif,images/stimuli/spore_stims/complex_14_A_b.gif,NA,7,complex_dissimilar,images/stimuli/spore_stims/complex_08_A_a.gif,NA,NA,NA,NA,NA,NA
NA,null,html-keyboard-response,93,386533,0.0-22.0-0.2,SS1617819279925,NA,NA,null,NA,NA,NA,NA,"<p><img src= images/blank.png width =""600"" height = ""600"" style=""position:fixed;top:50%; left:50%; transform: translate(-50%, -50%); border:5px solid black"">",NA,NA,NA,NA,NA,NA,NA,NA,NA
NA,2346.3450000017765,sequential-stimulus-presentation,94,389886,0.0-22.0-1.2,SS1617819279925,trial,NA,40,1000,3346.3450000017765,images/stimuli/spore_stims/complex_08_A_a.gif,images/stimuli/spore_stims/complex_14_A_b.gif,NA,7,complex_dissimilar,images/stimuli/spore_stims/complex_14_A_b.gif,NA,NA,NA,NA,NA,NA
NA,null,html-keyboard-response,95,391090,0.0-22.0-0.3,SS1617819279925,NA,NA,null,NA,NA,NA,NA,"<p><img src= images/blank.png width =""600"" height = ""600"" style=""position:fixed;top:50%; left:50%; transform: translate(-50%, -50%); border:5px solid black"">",NA,NA,NA,NA,NA,NA,NA,NA,NA
NA,1987.345000001369,sequential-stimulus-presentation,96,394083,0.0-22.0-1.3,SS1617819279925,trial,NA,40,1000,2987.345000001369,images/stimuli/spore_stims/complex_08_A_a.gif,images/stimuli/spore_stims/complex_14_A_b.gif,NA,7,complex_dissimilar,images/stimuli/spore_stims/complex_14_A_b.gif,NA,NA,NA,NA,NA,NA
NA,null,html-keyboard-response,97,395162,0.0-22.0-0.4,SS1617819279925,NA,NA,null,NA,NA,NA,NA,"<p><img src= images/blank.png width =""600"" height = ""600"" style=""position:fixed;top:50%; left:50%; transform: translate(-50%, -50%); border:5px solid black"">",NA,NA,NA,NA,NA,NA,NA,NA,NA
NA,1888.07000000088,sequential-stimulus-presentation,98,398056,0.0-22.0-1.4,SS1617819279925,trial,NA,40,1000,2888.07000000088,images/stimuli/spore_stims/complex_08_A_a.gif,images/stimuli/spore_stims/complex_14_A_b.gif,NA,7,complex_dissimilar,images/stimuli/spore_stims/complex_14_A_b.gif,NA,NA,NA,NA,NA,NA
NA,null,html-keyboard-response,99,398969,0.0-22.0-0.5,SS1617819279925,NA,NA,null,NA,NA,NA,NA,"<p><img src= images/blank.png width =""600"" height = ""600"" style=""position:fixed;top:50%; left:50%; transform: translate(-50%, -50%); border:5px solid black"">",NA,NA,NA,NA,NA,NA,NA,NA,NA
NA,4405.3600000006845,sequential-stimulus-presentation,100,404380,0.0-22.0-1.5,SS1617819279925,trial,NA,40,1000,5405.3600000006845,images/stimuli/spore_stims/complex_08_A_a.gif,images/stimuli/spore_stims/complex_14_A_b.gif,NA,7,complex_dissimilar,images/stimuli/spore_stims/complex_08_A_a.gif,NA,NA,NA,NA,NA,NA
NA,8664.520000002114,survey-multi-choice,101,413047,0.0-23.0,SS1617819279925,math_question,NA,NA,NA,NA,NA,NA,NA,NA,NA,NA,"{""Q0"":""17""}",[0],17,NA,NA,NA
NA,null,html-keyboard-response,102,414310,0.0-24.0-0.0,SS1617819279925,NA,NA,null,NA,NA,NA,NA,"<p><img src= images/blank.png width =""600"" height = ""600"" style=""position:fixed;top:50%; left:50%; transform: translate(-50%, -50%); border:5px solid black"">",NA,NA,NA,NA,NA,NA,NA,NA,NA
NA,3220.5099999991944,sequential-stimulus-presentation,103,418536,0.0-24.0-1.0,SS1617819279925,trial,NA,40,1000,4220.509999999194,images/stimuli/spore_stims/simple_13_A_a.gif,images/stimuli/spore_stims/simple_17_A_b.gif,NA,8,simple_dissimilar,images/stimuli/spore_stims/simple_17_A_b.gif,NA,NA,NA,NA,NA,NA
NA,null,html-keyboard-response,104,419358,0.0-24.0-0.1,SS1617819279925,NA,NA,null,NA,NA,NA,NA,"<p><img src= images/blank.png width =""600"" height = ""600"" style=""position:fixed;top:50%; left:50%; transform: translate(-50%, -50%); border:5px solid black"">",NA,NA,NA,NA,NA,NA,NA,NA,NA
NA,269.51000000193017,sequential-stimulus-presentation,105,420633,0.0-24.0-1.1,SS1617819279925,trial,NA,40,1000,1269.5100000019302,images/stimuli/spore_stims/simple_13_A_a.gif,images/stimuli/spore_stims/simple_17_A_b.gif,NA,8,simple_dissimilar,images/stimuli/spore_stims/simple_17_A_b.gif,NA,NA,NA,NA,NA,NA
NA,null,html-keyboard-response,106,421795,0.0-24.0-0.2,SS1617819279925,NA,NA,null,NA,NA,NA,NA,"<p><img src= images/blank.png width =""600"" height = ""600"" style=""position:fixed;top:50%; left:50%; transform: translate(-50%, -50%); border:5px solid black"">",NA,NA,NA,NA,NA,NA,NA,NA,NA
NA,2429.6100000028964,sequential-stimulus-presentation,107,425230,0.0-24.0-1.2,SS1617819279925,trial,NA,40,1000,3429.6100000028964,images/stimuli/spore_stims/simple_13_A_a.gif,images/stimuli/spore_stims/simple_17_A_b.gif,NA,8,simple_dissimilar,images/stimuli/spore_stims/simple_13_A_a.gif,NA,NA,NA,NA,NA,NA
NA,null,html-keyboard-response,108,426512,0.0-24.0-0.3,SS1617819279925,NA,NA,null,NA,NA,NA,NA,"<p><img src= images/blank.png width =""600"" height = ""600"" style=""position:fixed;top:50%; left:50%; transform: translate(-50%, -50%); border:5px solid black"">",NA,NA,NA,NA,NA,NA,NA,NA,NA
NA,817.0549999995856,sequential-stimulus-presentation,109,428334,0.0-24.0-1.3,SS1617819279925,trial,NA,40,1000,1817.0549999995856,images/stimuli/spore_stims/simple_13_A_a.gif,images/stimuli/spore_stims/simple_17_A_b.gif,NA,8,simple_dissimilar,images/stimuli/spore_stims/simple_13_A_a.gif,NA,NA,NA,NA,NA,NA
NA,3479.0050000010524,survey-multi-choice,110,431815,0.0-25.0,SS1617819279925,math_question,NA,NA,NA,NA,NA,NA,NA,NA,NA,NA,"{""Q0"":""15""}",[0],15,NA,NA,NA
NA,null,html-keyboard-response,111,433070,0.0-26.0-0.0,SS1617819279925,NA,NA,null,NA,NA,NA,NA,"<p><img src= images/blank.png width =""600"" height = ""600"" style=""position:fixed;top:50%; left:50%; transform: translate(-50%, -50%); border:5px solid black"">",NA,NA,NA,NA,NA,NA,NA,NA,NA
NA,5319.649999997579,sequential-stimulus-presentation,112,439395,0.0-26.0-1.0,SS1617819279925,trial,NA,40,1000,6319.649999997579,images/stimuli/spore_stims/complex_11_A_b.gif,images/stimuli/spore_stims/complex_16_A_a.gif,NA,9,complex_dissimilar,images/stimuli/spore_stims/complex_16_A_a.gif,NA,NA,NA,NA,NA,NA
NA,null,html-keyboard-response,113,440280,0.0-26.0-0.1,SS1617819279925,NA,NA,null,NA,NA,NA,NA,"<p><img src= images/blank.png width =""600"" height = ""600"" style=""position:fixed;top:50%; left:50%; transform: translate(-50%, -50%); border:5px solid black"">",NA,NA,NA,NA,NA,NA,NA,NA,NA
NA,5118.105000001378,sequential-stimulus-presentation,114,446403,0.0-26.0-1.1,SS1617819279925,trial,NA,40,1000,6118.105000001378,images/stimuli/spore_stims/complex_11_A_b.gif,images/stimuli/spore_stims/complex_16_A_a.gif,NA,9,complex_dissimilar,images/stimuli/spore_stims/complex_11_A_b.gif,NA,NA,NA,NA,NA,NA
NA,null,html-keyboard-response,115,447227,0.0-26.0-0.2,SS1617819279925,NA,NA,null,NA,NA,NA,NA,"<p><img src= images/blank.png width =""600"" height = ""600"" style=""position:fixed;top:50%; left:50%; transform: translate(-50%, -50%); border:5px solid black"">",NA,NA,NA,NA,NA,NA,NA,NA,NA
NA,4055.589999999909,sequential-stimulus-presentation,116,452289,0.0-26.0-1.2,SS1617819279925,trial,NA,40,1000,5055.589999999909,images/stimuli/spore_stims/complex_11_A_b.gif,images/stimuli/spore_stims/complex_16_A_a.gif,NA,9,complex_dissimilar,images/stimuli/spore_stims/complex_16_A_a.gif,NA,NA,NA,NA,NA,NA
NA,null,html-keyboard-response,117,453132,0.0-26.0-0.3,SS1617819279925,NA,NA,null,NA,NA,NA,NA,"<p><img src= images/blank.png width =""600"" height = ""600"" style=""position:fixed;top:50%; left:50%; transform: translate(-50%, -50%); border:5px solid black"">",NA,NA,NA,NA,NA,NA,NA,NA,NA
NA,3129.259999997914,sequential-stimulus-presentation,118,457266,0.0-26.0-1.3,SS1617819279925,trial,NA,40,1000,4129.259999997914,images/stimuli/spore_stims/complex_11_A_b.gif,images/stimuli/spore_stims/complex_16_A_a.gif,NA,9,complex_dissimilar,images/stimuli/spore_stims/complex_16_A_a.gif,NA,NA,NA,NA,NA,NA
NA,null,html-keyboard-response,119,458494,0.0-26.0-0.4,SS1617819279925,NA,NA,null,NA,NA,NA,NA,"<p><img src= images/blank.png width =""600"" height = ""600"" style=""position:fixed;top:50%; left:50%; transform: translate(-50%, -50%); border:5px solid black"">",NA,NA,NA,NA,NA,NA,NA,NA,NA
NA,4682.724999998754,sequential-stimulus-presentation,120,464183,0.0-26.0-1.4,SS1617819279925,trial,NA,40,1000,5682.724999998754,images/stimuli/spore_stims/complex_11_A_b.gif,images/stimuli/spore_stims/complex_16_A_a.gif,NA,9,complex_dissimilar,images/stimuli/spore_stims/complex_11_A_b.gif,NA,NA,NA,NA,NA,NA
NA,186757.91000000032,survey-multi-choice,121,650943,0.0-27.0,SS1617819279925,math_question,NA,NA,NA,NA,NA,NA,NA,NA,NA,NA,"{""Q0"":""9""}",[0],9,NA,NA,NA
NA,null,html-keyboard-response,122,651918,0.0-28.0-0.0,SS1617819279925,NA,NA,null,NA,NA,NA,NA,"<p><img src= images/blank.png width =""600"" height = ""600"" style=""position:fixed;top:50%; left:50%; transform: translate(-50%, -50%); border:5px solid black"">",NA,NA,NA,NA,NA,NA,NA,NA,NA
NA,4150.424999999814,sequential-stimulus-presentation,123,657073,0.0-28.0-1.0,SS1617819279925,trial,NA,40,1000,5150.424999999814,images/stimuli/spore_stims/complex_19_A_a.gif,images/stimuli/spore_stims/complex_09_A_b.gif,NA,10,complex_dissimilar,images/stimuli/spore_stims/complex_09_A_b.gif,NA,NA,NA,NA,NA,NA
NA,null,html-keyboard-response,124,658122,0.0-28.0-0.1,SS1617819279925,NA,NA,null,NA,NA,NA,NA,"<p><img src= images/blank.png width =""600"" height = ""600"" style=""position:fixed;top:50%; left:50%; transform: translate(-50%, -50%); border:5px solid black"">",NA,NA,NA,NA,NA,NA,NA,NA,NA
NA,5355.690000000293,sequential-stimulus-presentation,125,664482,0.0-28.0-1.1,SS1617819279925,trial,NA,40,1000,6355.690000000293,images/stimuli/spore_stims/complex_19_A_a.gif,images/stimuli/spore_stims/complex_09_A_b.gif,NA,10,complex_dissimilar,images/stimuli/spore_stims/complex_19_A_a.gif,NA,NA,NA,NA,NA,NA
NA,null,html-keyboard-response,126,665646,0.0-28.0-0.2,SS1617819279925,NA,NA,null,NA,NA,NA,NA,"<p><img src= images/blank.png width =""600"" height = ""600"" style=""position:fixed;top:50%; left:50%; transform: translate(-50%, -50%); border:5px solid black"">",NA,NA,NA,NA,NA,NA,NA,NA,NA
NA,4332.72500000021,sequential-stimulus-presentation,127,670983,0.0-28.0-1.2,SS1617819279925,trial,NA,40,1000,5332.72500000021,images/stimuli/spore_stims/complex_19_A_a.gif,images/stimuli/spore_stims/complex_09_A_b.gif,NA,10,complex_dissimilar,images/stimuli/spore_stims/complex_09_A_b.gif,NA,NA,NA,NA,NA,NA
NA,null,html-keyboard-response,128,671865,0.0-28.0-0.3,SS1617819279925,NA,NA,null,NA,NA,NA,NA,"<p><img src= images/blank.png width =""600"" height = ""600"" style=""position:fixed;top:50%; left:50%; transform: translate(-50%, -50%); border:5px solid black"">",NA,NA,NA,NA,NA,NA,NA,NA,NA
NA,3904.6349999989616,sequential-stimulus-presentation,129,676775,0.0-28.0-1.3,SS1617819279925,trial,NA,40,1000,4904.634999998962,images/stimuli/spore_stims/complex_19_A_a.gif,images/stimuli/spore_stims/complex_09_A_b.gif,NA,10,complex_dissimilar,images/stimuli/spore_stims/complex_09_A_b.gif,NA,NA,NA,NA,NA,NA
NA,5051.649999997695,survey-multi-choice,130,681831,0.0-29.0,SS1617819279925,math_question,NA,NA,NA,NA,NA,NA,NA,NA,NA,NA,"{""Q0"":""16""}",[0],16,NA,NA,NA
NA,null,html-keyboard-response,131,682846,0.0-30.0-0.0,SS1617819279925,NA,NA,null,NA,NA,NA,NA,"<p><img src= images/blank.png width =""600"" height = ""600"" style=""position:fixed;top:50%; left:50%; transform: translate(-50%, -50%); border:5px solid black"">",NA,NA,NA,NA,NA,NA,NA,NA,NA
NA,1555.9949999988312,sequential-stimulus-presentation,132,685408,0.0-30.0-1.0,SS1617819279925,trial,NA,40,1000,2555.994999998831,images/stimuli/spore_stims/simple_17_A_a.gif,images/stimuli/spore_stims/simple_11_A_b.gif,NA,11,simple_dissimilar,images/stimuli/spore_stims/simple_11_A_b.gif,NA,NA,NA,NA,NA,NA
NA,null,html-keyboard-response,133,686514,0.0-30.0-0.1,SS1617819279925,NA,NA,null,NA,NA,NA,NA,"<p><img src= images/blank.png width =""600"" height = ""600"" style=""position:fixed;top:50%; left:50%; transform: translate(-50%, -50%); border:5px solid black"">",NA,NA,NA,NA,NA,NA,NA,NA,NA
NA,496.4349999972619,sequential-stimulus-presentation,134,688015,0.0-30.0-1.1,SS1617819279925,trial,NA,40,1000,1496.434999997262,images/stimuli/spore_stims/simple_17_A_a.gif,images/stimuli/spore_stims/simple_11_A_b.gif,NA,11,simple_dissimilar,images/stimuli/spore_stims/simple_11_A_b.gif,NA,NA,NA,NA,NA,NA
NA,null,html-keyboard-response,135,689307,0.0-30.0-0.2,SS1617819279925,NA,NA,null,NA,NA,NA,NA,"<p><img src= images/blank.png width =""600"" height = ""600"" style=""position:fixed;top:50%; left:50%; transform: translate(-50%, -50%); border:5px solid black"">",NA,NA,NA,NA,NA,NA,NA,NA,NA
NA,2471.994999999879,sequential-stimulus-presentation,136,692785,0.0-30.0-1.2,SS1617819279925,trial,NA,40,1000,3471.994999999879,images/stimuli/spore_stims/simple_17_A_a.gif,images/stimuli/spore_stims/simple_11_A_b.gif,NA,11,simple_dissimilar,images/stimuli/spore_stims/simple_11_A_b.gif,NA,NA,NA,NA,NA,NA
NA,null,html-keyboard-response,137,694016,0.0-30.0-0.3,SS1617819279925,NA,NA,null,NA,NA,NA,NA,"<p><img src= images/blank.png width =""600"" height = ""600"" style=""position:fixed;top:50%; left:50%; transform: translate(-50%, -50%); border:5px solid black"">",NA,NA,NA,NA,NA,NA,NA,NA,NA
NA,779.774999999092,sequential-stimulus-presentation,138,695803,0.0-30.0-1.3,SS1617819279925,trial,NA,40,1000,1779.774999999092,images/stimuli/spore_stims/simple_17_A_a.gif,images/stimuli/spore_stims/simple_11_A_b.gif,NA,11,simple_dissimilar,images/stimuli/spore_stims/simple_11_A_b.gif,NA,NA,NA,NA,NA,NA
"[{""page_index"":0,""viewing_time"":6105.4650000005495}]",6106.070000001695,instructions,139,701911,0.0-31.0,SS1617819279925,instructions,NA,NA,NA,NA,NA,NA,NA,NA,NA,NA,NA,NA,NA,NA,NA,NA
NA,36489.65500000119,survey-likert,140,738407,0.0-32.0,SS1617819279925,similarity_question,NA,NA,NA,NA,NA,NA,NA,NA,NA,NA,"{""Q0"":2}",[0],NA,images/stimuli/spore_stims/complex_09_A_b.gif,images/stimuli/spore_stims/complex_19_A_a.gif,NA
NA,6835.845000001369,survey-likert,141,745247,0.0-33.0,SS1617819279925,similarity_question,NA,NA,NA,NA,NA,NA,NA,NA,NA,NA,"{""Q0"":0}",[0],NA,images/stimuli/spore_stims/complex_05_A_b.gif,images/stimuli/spore_stims/complex_20_A_a.gif,NA
NA,10907.139999999432,survey-likert,142,756159,0.0-34.0,SS1617819279925,similarity_question,NA,NA,NA,NA,NA,NA,NA,NA,NA,NA,"{""Q0"":2}",[0],NA,images/stimuli/spore_stims/complex_12_A_a.gif,images/stimuli/spore_stims/complex_10_A_b.gif,NA
NA,7035.454999997397,survey-likert,143,763199,0.0-35.0,SS1617819279925,similarity_question,NA,NA,NA,NA,NA,NA,NA,NA,NA,NA,"{""Q0"":0}",[0],NA,images/stimuli/spore_stims/complex_16_A_a.gif,images/stimuli/spore_stims/complex_11_A_b.gif,NA
NA,5164.329999999609,survey-likert,144,768367,0.0-36.0,SS1617819279925,similarity_question,NA,NA,NA,NA,NA,NA,NA,NA,NA,NA,"{""Q0"":4}",[0],NA,images/stimuli/spore_stims/simple_18_A_a.gif,images/stimuli/spore_stims/simple_16_A_b.gif,NA
NA,4300.204999999609,survey-likert,145,772671,0.0-37.0,SS1617819279925,similarity_question,NA,NA,NA,NA,NA,NA,NA,NA,NA,NA,"{""Q0"":5}",[0],NA,images/stimuli/spore_stims/simple_11_A_b.gif,images/stimuli/spore_stims/simple_17_A_a.gif,NA
NA,4338.524999999208,survey-likert,146,777015,0.0-38.0,SS1617819279925,similarity_question,NA,NA,NA,NA,NA,NA,NA,NA,NA,NA,"{""Q0"":6}",[0],NA,images/stimuli/spore_stims/simple_15_A_a.gif,images/stimuli/spore_stims/simple_01_A_b.gif,NA
NA,6876.035000001197,survey-likert,147,783895,0.0-39.0,SS1617819279925,similarity_question,NA,NA,NA,NA,NA,NA,NA,NA,NA,NA,"{""Q0"":5}",[0],NA,images/stimuli/spore_stims/simple_17_A_b.gif,images/stimuli/spore_stims/simple_13_A_a.gif,NA
NA,4194.219999997644,survey-likert,148,788095,0.0-40.0,SS1617819279925,similarity_question,NA,NA,NA,NA,NA,NA,NA,NA,NA,NA,"{""Q0"":4}",[0],NA,images/stimuli/spore_stims/simple_13_A_b.gif,images/stimuli/spore_stims/simple_08_A_a.gif,NA
NA,4236.250000001746,survey-likert,149,792335,0.0-41.0,SS1617819279925,similarity_question,NA,NA,NA,NA,NA,NA,NA,NA,NA,NA,"{""Q0"":4}",[0],NA,images/stimuli/spore_stims/simple_11_A_a.gif,images/stimuli/spore_stims/simple_07_A_b.gif,NA
NA,6747.780000001541,survey-likert,150,799087,0.0-42.0,SS1617819279925,similarity_question,NA,NA,NA,NA,NA,NA,NA,NA,NA,NA,"{""Q0"":0}",[0],NA,images/stimuli/spore_stims/complex_08_A_a.gif,images/stimuli/spore_stims/complex_14_A_b.gif,NA
NA,7395.795000000391,survey-likert,151,806487,0.0-43.0,SS1617819279925,similarity_question,NA,NA,NA,NA,NA,NA,NA,NA,NA,NA,"{""Q0"":0}",[0],NA,images/stimuli/spore_stims/complex_02_A_b.gif,images/stimuli/spore_stims/complex_11_A_a.gif,NA
"[{""page_index"":0,""viewing_time"":10268.359999998123}]",10268.579999999842,instructions,152,816759,0.0-44.0,SS1617819279925,instructions,NA,NA,NA,NA,NA,NA,NA,NA,NA,NA,NA,NA,NA,NA,NA,NA
NA,16085.484999999637,survey-likert,153,832847,0.0-45.0,SS1617819279925,NA,NA,NA,NA,NA,NA,NA,images/stimuli/spore_stims/complex_19_A_a.gif,NA,NA,NA,"{""Q0"":4}",[0],NA,NA,NA,NA
NA,3027.0949999976438,survey-likert,154,835879,0.0-46.0,SS1617819279925,NA,NA,NA,NA,NA,NA,NA,images/stimuli/spore_stims/simple_18_A_a.gif,NA,NA,NA,"{""Q0"":0}",[0],NA,NA,NA,NA
NA,3994.8699999985984,survey-likert,155,839879,0.0-47.0,SS1617819279925,NA,NA,NA,NA,NA,NA,NA,images/stimuli/spore_stims/simple_13_A_b.gif,NA,NA,NA,"{""Q0"":0}",[0],NA,NA,NA,NA
NA,3867.7199999983422,survey-likert,156,843750,0.0-48.0,SS1617819279925,NA,NA,NA,NA,NA,NA,NA,images/stimuli/spore_stims/simple_11_A_b.gif,NA,NA,NA,"{""Q0"":0}",[0],NA,NA,NA,NA
NA,5155.699999999371,survey-likert,157,848911,0.0-49.0,SS1617819279925,NA,NA,NA,NA,NA,NA,NA,images/stimuli/spore_stims/complex_11_A_b.gif,NA,NA,NA,"{""Q0"":4}",[0],NA,NA,NA,NA
NA,3011.525000001653,survey-likert,158,851926,0.0-50.0,SS1617819279925,NA,NA,NA,NA,NA,NA,NA,images/stimuli/spore_stims/simple_11_A_a.gif,NA,NA,NA,"{""Q0"":0}",[0],NA,NA,NA,NA
NA,3019.8400000008987,survey-likert,159,854950,0.0-51.0,SS1617819279925,NA,NA,NA,NA,NA,NA,NA,images/stimuli/spore_stims/simple_15_A_a.gif,NA,NA,NA,"{""Q0"":0}",[0],NA,NA,NA,NA
NA,6684.389999998501,survey-likert,160,861638,0.0-52.0,SS1617819279925,NA,NA,NA,NA,NA,NA,NA,images/stimuli/spore_stims/complex_11_A_a.gif,NA,NA,NA,"{""Q0"":4}",[0],NA,NA,NA,NA
NA,4003.4850000010338,survey-likert,161,865646,0.0-53.0,SS1617819279925,NA,NA,NA,NA,NA,NA,NA,images/stimuli/spore_stims/complex_20_A_a.gif,NA,NA,NA,"{""Q0"":5}",[0],NA,NA,NA,NA
NA,5324.08000000217,survey-likert,162,870975,0.0-54.0,SS1617819279925,NA,NA,NA,NA,NA,NA,NA,images/stimuli/spore_stims/complex_10_A_b.gif,NA,NA,NA,"{""Q0"":5}",[0],NA,NA,NA,NA
NA,2442.964999998454,survey-likert,163,873423,0.0-55.0,SS1617819279925,NA,NA,NA,NA,NA,NA,NA,images/stimuli/spore_stims/simple_13_A_a.gif,NA,NA,NA,"{""Q0"":0}",[0],NA,NA,NA,NA
NA,5579.129999998258,survey-likert,164,879007,0.0-56.0,SS1617819279925,NA,NA,NA,NA,NA,NA,NA,images/stimuli/spore_stims/complex_08_A_a.gif,NA,NA,NA,"{""Q0"":6}",[0],NA,NA,NA,NA
"[{""page_index"":0,""viewing_time"":4259.855000000214}]",4260.070000000298,instructions,165,883270,0.0-57.0,SS1617819279925,instructions,NA,NA,NA,NA,NA,NA,NA,NA,NA,NA,NA,NA,NA,NA,NA,NA
NA,2168.8649999996414,demog-age,166,885446,0.0-58.0,SS1617819279925,NA,NA,NA,NA,NA,NA,NA,NA,NA,NA,NA,"{""age"":""21""}",NA,NA,NA,NA,NA
NA,3697.97000000102,demog-ethnic-US,167,889151,0.0-59.0,SS1617819279925,NA,NA,NA,NA,NA,NA,NA,NA,NA,NA,NA,"{""ethnicity"":[""White""]}",[0],NA,NA,NA,NA
NA,12121.469999998226,demog-gender-and-education,168,901279,0.0-60.0,SS1617819279925,NA,NA,NA,NA,NA,NA,NA,NA,NA,NA,NA,"{""gender"":""Female"",""education"":""Bachelor's Degree""}","[0,1]",NA,NA,NA,NA
NA,11480.795000003069,survey-text,169,912767,0.0-61.0,SS1617819279925,feedback,NA,NA,NA,NA,NA,NA,NA,NA,NA,NA,"{""Q0"":""/""}",NA,NA,NA,NA,NA
"[{""page_index"":0,""viewing_time"":2171.1250000006985}]",2171.3400000007823,instructions,170,914942,0.0-62.0,SS1617819279925,instructions,NA,NA,NA,NA,NA,NA,NA,NA,NA,NA,NA,NA,NA,NA,NA,NA
"[{""page_index"":0,""viewing_time"":42024.24500000052}]",42025.064999997994,instructions,0,42027,0.0-0.0,SS1617819306516,NA,NA,NA,NA,NA,NA,NA,NA,NA,NA,NA,NA,NA,NA,NA,NA,NA
"[{""page_index"":0,""viewing_time"":143437.91500000225},{""page_index"":1,""viewing_time"":16454.99999999811}]",159893.16500000132,instructions,1,203924,0.0-1.0,SS1617819306516,instructions,NA,NA,NA,NA,NA,NA,NA,NA,NA,NA,NA,NA,NA,NA,NA,NA
NA,8087.429999999586,sequential-stimulus-presentation-old,2,212615,0.0-2.0,SS1617819306516,NA,NA,40,600,8687.429999999586,null,null,NA,NA,NA,NA,NA,NA,NA,NA,NA,NA
NA,4936.954999997397,sequential-stimulus-presentation-old,3,218054,0.0-3.0,SS1617819306516,NA,NA,40,500,5436.954999997397,null,null,NA,NA,NA,NA,NA,NA,NA,NA,NA,NA
"[{""page_index"":0,""viewing_time"":15480.390000000625}]",15480.64499999964,instructions,4,233536,0.0-4.0,SS1617819306516,instructions,NA,NA,NA,NA,NA,NA,NA,NA,NA,NA,NA,NA,NA,NA,NA,NA
NA,3377.9600000016217,sequential-stimulus-presentation,5,237918,0.0-5.0,SS1617819306516,NA,NA,40,1000,4377.960000001622,null,null,NA,NA,NA,NA,NA,NA,NA,NA,NA,NA
"[{""page_index"":0,""viewing_time"":7611.8400000013935}]",7612.075000000914,instructions,6,245530,0.0-6.0,SS1617819306516,instructions,NA,NA,NA,NA,NA,NA,NA,NA,NA,NA,NA,NA,NA,NA,NA,NA
"[{""page_index"":0,""viewing_time"":8533.755000000383},{""page_index"":1,""viewing_time"":13501.04999999897},{""page_index"":2,""viewing_time"":15960.129999999423},{""page_index"":3,""viewing_time"":2666.755000002042},{""page_index"":4,""viewing_time"":1164.0000000006403}]",41825.93999999878,instructions,7,287357,0.0-7.0,SS1617819306516,instructions,NA,NA,NA,NA,NA,NA,NA,NA,NA,NA,NA,NA,NA,NA,NA,NA
NA,null,html-keyboard-response,8,288659,0.0-8.0-0.0,SS1617819306516,NA,NA,null,NA,NA,NA,NA,"<p><img src= images/blank.png width =""600"" height = ""600"" style=""position:fixed;top:50%; left:50%; transform: translate(-50%, -50%); border:5px solid black"">",NA,NA,NA,NA,NA,NA,NA,NA,NA
NA,2951.100000002014,sequential-stimulus-presentation,9,292613,0.0-8.0-1.0,SS1617819306516,trial,NA,40,1000,3951.100000002014,images/stimuli/spore_stims/complex_15_A_b.gif,images/stimuli/spore_stims/complex_17_A_a.gif,NA,0,complex_dissimilar,images/stimuli/spore_stims/complex_17_A_a.gif,NA,NA,NA,NA,NA,NA
NA,null,html-keyboard-response,10,293788,0.0-8.0-0.1,SS1617819306516,NA,NA,null,NA,NA,NA,NA,"<p><img src= images/blank.png width =""600"" height = ""600"" style=""position:fixed;top:50%; left:50%; transform: translate(-50%, -50%); border:5px solid black"">",NA,NA,NA,NA,NA,NA,NA,NA,NA
NA,783.9549999989686,sequential-stimulus-presentation,11,295582,0.0-8.0-1.1,SS1617819306516,trial,NA,40,1000,1783.9549999989686,images/stimuli/spore_stims/complex_15_A_b.gif,images/stimuli/spore_stims/complex_17_A_a.gif,NA,0,complex_dissimilar,images/stimuli/spore_stims/complex_17_A_a.gif,NA,NA,NA,NA,NA,NA
NA,null,html-keyboard-response,12,296474,0.0-8.0-0.2,SS1617819306516,NA,NA,null,NA,NA,NA,NA,"<p><img src= images/blank.png width =""600"" height = ""600"" style=""position:fixed;top:50%; left:50%; transform: translate(-50%, -50%); border:5px solid black"">",NA,NA,NA,NA,NA,NA,NA,NA,NA
NA,1136.1649999998626,sequential-stimulus-presentation,13,298613,0.0-8.0-1.2,SS1617819306516,trial,NA,40,1000,2136.1649999998626,images/stimuli/spore_stims/complex_15_A_b.gif,images/stimuli/spore_stims/complex_17_A_a.gif,NA,0,complex_dissimilar,images/stimuli/spore_stims/complex_15_A_b.gif,NA,NA,NA,NA,NA,NA
NA,null,html-keyboard-response,14,299732,0.0-8.0-0.3,SS1617819306516,NA,NA,null,NA,NA,NA,NA,"<p><img src= images/blank.png width =""600"" height = ""600"" style=""position:fixed;top:50%; left:50%; transform: translate(-50%, -50%); border:5px solid black"">",NA,NA,NA,NA,NA,NA,NA,NA,NA
NA,816.3600000006845,sequential-stimulus-presentation,15,301557,0.0-8.0-1.3,SS1617819306516,trial,NA,40,1000,1816.3600000006845,images/stimuli/spore_stims/complex_15_A_b.gif,images/stimuli/spore_stims/complex_17_A_a.gif,NA,0,complex_dissimilar,images/stimuli/spore_stims/complex_17_A_a.gif,NA,NA,NA,NA,NA,NA
NA,4033.180000002205,survey-multi-choice,16,305594,0.0-9.0,SS1617819306516,math_question,NA,NA,NA,NA,NA,NA,NA,NA,NA,NA,"{""Q0"":""9""}",[0],9,NA,NA,NA
NA,null,html-keyboard-response,17,306477,0.0-10.0-0.0,SS1617819306516,NA,NA,null,NA,NA,NA,NA,"<p><img src= images/blank.png width =""600"" height = ""600"" style=""position:fixed;top:50%; left:50%; transform: translate(-50%, -50%); border:5px solid black"">",NA,NA,NA,NA,NA,NA,NA,NA,NA
NA,2717.5050000005285,sequential-stimulus-presentation,18,310198,0.0-10.0-1.0,SS1617819306516,trial,NA,40,1000,3717.5050000005285,images/stimuli/spore_stims/simple_20_A_b.gif,images/stimuli/spore_stims/simple_19_A_a.gif,NA,1,simple_dissimilar,images/stimuli/spore_stims/simple_19_A_a.gif,NA,NA,NA,NA,NA,NA
NA,null,html-keyboard-response,19,311483,0.0-10.0-0.1,SS1617819306516,NA,NA,null,NA,NA,NA,NA,"<p><img src= images/blank.png width =""600"" height = ""600"" style=""position:fixed;top:50%; left:50%; transform: translate(-50%, -50%); border:5px solid black"">",NA,NA,NA,NA,NA,NA,NA,NA,NA
NA,675.1399999993155,sequential-stimulus-presentation,20,313166,0.0-10.0-1.1,SS1617819306516,trial,NA,40,1000,1675.1399999993155,images/stimuli/spore_stims/simple_20_A_b.gif,images/stimuli/spore_stims/simple_19_A_a.gif,NA,1,simple_dissimilar,images/stimuli/spore_stims/simple_19_A_a.gif,NA,NA,NA,NA,NA,NA
NA,null,html-keyboard-response,21,314009,0.0-10.0-0.2,SS1617819306516,NA,NA,null,NA,NA,NA,NA,"<p><img src= images/blank.png width =""600"" height = ""600"" style=""position:fixed;top:50%; left:50%; transform: translate(-50%, -50%); border:5px solid black"">",NA,NA,NA,NA,NA,NA,NA,NA,NA
NA,352.98499999777414,sequential-stimulus-presentation,22,315366,0.0-10.0-1.2,SS1617819306516,trial,NA,40,1000,1352.9849999977741,images/stimuli/spore_stims/simple_20_A_b.gif,images/stimuli/spore_stims/simple_19_A_a.gif,NA,1,simple_dissimilar,images/stimuli/spore_stims/simple_19_A_a.gif,NA,NA,NA,NA,NA,NA
NA,null,html-keyboard-response,23,316392,0.0-10.0-0.3,SS1617819306516,NA,NA,null,NA,NA,NA,NA,"<p><img src= images/blank.png width =""600"" height = ""600"" style=""position:fixed;top:50%; left:50%; transform: translate(-50%, -50%); border:5px solid black"">",NA,NA,NA,NA,NA,NA,NA,NA,NA
NA,586.0150000007125,sequential-stimulus-presentation,24,317982,0.0-10.0-1.3,SS1617819306516,trial,NA,40,1000,1586.0150000007125,images/stimuli/spore_stims/simple_20_A_b.gif,images/stimuli/spore_stims/simple_19_A_a.gif,NA,1,simple_dissimilar,images/stimuli/spore_stims/simple_20_A_b.gif,NA,NA,NA,NA,NA,NA
NA,null,html-keyboard-response,25,318994,0.0-10.0-0.4,SS1617819306516,NA,NA,null,NA,NA,NA,NA,"<p><img src= images/blank.png width =""600"" height = ""600"" style=""position:fixed;top:50%; left:50%; transform: translate(-50%, -50%); border:5px solid black"">",NA,NA,NA,NA,NA,NA,NA,NA,NA
NA,386.11999999923864,sequential-stimulus-presentation,26,320390,0.0-10.0-1.4,SS1617819306516,trial,NA,40,1000,1386.1199999992386,images/stimuli/spore_stims/simple_20_A_b.gif,images/stimuli/spore_stims/simple_19_A_a.gif,NA,1,simple_dissimilar,images/stimuli/spore_stims/simple_20_A_b.gif,NA,NA,NA,NA,NA,NA
NA,3635.6049999995157,survey-multi-choice,27,324027,0.0-11.0,SS1617819306516,math_question,NA,NA,NA,NA,NA,NA,NA,NA,NA,NA,"{""Q0"":""11""}",[0],11,NA,NA,NA
NA,null,html-keyboard-response,28,324846,0.0-12.0-0.0,SS1617819306516,NA,NA,null,NA,NA,NA,NA,"<p><img src= images/blank.png width =""600"" height = ""600"" style=""position:fixed;top:50%; left:50%; transform: translate(-50%, -50%); border:5px solid black"">",NA,NA,NA,NA,NA,NA,NA,NA,NA
NA,356.4599999990314,sequential-stimulus-presentation,29,326206,0.0-12.0-1.0,SS1617819306516,trial,NA,40,1000,1356.4599999990314,images/stimuli/spore_stims/simple_15_A_b.gif,images/stimuli/spore_stims/simple_20_A_a.gif,NA,2,simple_dissimilar,images/stimuli/spore_stims/simple_20_A_a.gif,NA,NA,NA,NA,NA,NA
NA,null,html-keyboard-response,30,327322,0.0-12.0-0.1,SS1617819306516,NA,NA,null,NA,NA,NA,NA,"<p><img src= images/blank.png width =""600"" height = ""600"" style=""position:fixed;top:50%; left:50%; transform: translate(-50%, -50%); border:5px solid black"">",NA,NA,NA,NA,NA,NA,NA,NA,NA
NA,503.75999999960186,sequential-stimulus-presentation,31,328830,0.0-12.0-1.1,SS1617819306516,trial,NA,40,1000,1503.7599999996019,images/stimuli/spore_stims/simple_15_A_b.gif,images/stimuli/spore_stims/simple_20_A_a.gif,NA,2,simple_dissimilar,images/stimuli/spore_stims/simple_20_A_a.gif,NA,NA,NA,NA,NA,NA
NA,null,html-keyboard-response,32,329675,0.0-12.0-0.2,SS1617819306516,NA,NA,null,NA,NA,NA,NA,"<p><img src= images/blank.png width =""600"" height = ""600"" style=""position:fixed;top:50%; left:50%; transform: translate(-50%, -50%); border:5px solid black"">",NA,NA,NA,NA,NA,NA,NA,NA,NA
NA,327.78999999933876,sequential-stimulus-presentation,33,331006,0.0-12.0-1.2,SS1617819306516,trial,NA,40,1000,1327.7899999993388,images/stimuli/spore_stims/simple_15_A_b.gif,images/stimuli/spore_stims/simple_20_A_a.gif,NA,2,simple_dissimilar,images/stimuli/spore_stims/simple_15_A_b.gif,NA,NA,NA,NA,NA,NA
NA,null,html-keyboard-response,34,332284,0.0-12.0-0.3,SS1617819306516,NA,NA,null,NA,NA,NA,NA,"<p><img src= images/blank.png width =""600"" height = ""600"" style=""position:fixed;top:50%; left:50%; transform: translate(-50%, -50%); border:5px solid black"">",NA,NA,NA,NA,NA,NA,NA,NA,NA
NA,261.6999999991385,sequential-stimulus-presentation,35,333550,0.0-12.0-1.3,SS1617819306516,trial,NA,40,1000,1261.6999999991385,images/stimuli/spore_stims/simple_15_A_b.gif,images/stimuli/spore_stims/simple_20_A_a.gif,NA,2,simple_dissimilar,images/stimuli/spore_stims/simple_15_A_b.gif,NA,NA,NA,NA,NA,NA
NA,2539.6099999998114,survey-multi-choice,36,336091,0.0-13.0,SS1617819306516,math_question,NA,NA,NA,NA,NA,NA,NA,NA,NA,NA,"{""Q0"":""7""}",[0],7,NA,NA,NA
NA,null,html-keyboard-response,37,337019,0.0-14.0-0.0,SS1617819306516,NA,NA,null,NA,NA,NA,NA,"<p><img src= images/blank.png width =""600"" height = ""600"" style=""position:fixed;top:50%; left:50%; transform: translate(-50%, -50%); border:5px solid black"">",NA,NA,NA,NA,NA,NA,NA,NA,NA
NA,398.75000000029104,sequential-stimulus-presentation,38,338422,0.0-14.0-1.0,SS1617819306516,trial,NA,40,1000,1398.750000000291,images/stimuli/spore_stims/simple_07_A_a.gif,images/stimuli/spore_stims/simple_17_A_b.gif,NA,3,simple_dissimilar,images/stimuli/spore_stims/simple_17_A_b.gif,NA,NA,NA,NA,NA,NA
NA,null,html-keyboard-response,39,339504,0.0-14.0-0.1,SS1617819306516,NA,NA,null,NA,NA,NA,NA,"<p><img src= images/blank.png width =""600"" height = ""600"" style=""position:fixed;top:50%; left:50%; transform: translate(-50%, -50%); border:5px solid black"">",NA,NA,NA,NA,NA,NA,NA,NA,NA
NA,386.46499999955995,sequential-stimulus-presentation,40,340894,0.0-14.0-1.1,SS1617819306516,trial,NA,40,1000,1386.46499999956,images/stimuli/spore_stims/simple_07_A_a.gif,images/stimuli/spore_stims/simple_17_A_b.gif,NA,3,simple_dissimilar,images/stimuli/spore_stims/simple_17_A_b.gif,NA,NA,NA,NA,NA,NA
NA,null,html-keyboard-response,41,341983,0.0-14.0-0.2,SS1617819306516,NA,NA,null,NA,NA,NA,NA,"<p><img src= images/blank.png width =""600"" height = ""600"" style=""position:fixed;top:50%; left:50%; transform: translate(-50%, -50%); border:5px solid black"">",NA,NA,NA,NA,NA,NA,NA,NA,NA
NA,319.86999999929685,sequential-stimulus-presentation,42,343310,0.0-14.0-1.2,SS1617819306516,trial,NA,40,1000,1319.8699999992969,images/stimuli/spore_stims/simple_07_A_a.gif,images/stimuli/spore_stims/simple_17_A_b.gif,NA,3,simple_dissimilar,images/stimuli/spore_stims/simple_17_A_b.gif,NA,NA,NA,NA,NA,NA
NA,null,html-keyboard-response,43,344457,0.0-14.0-0.3,SS1617819306516,NA,NA,null,NA,NA,NA,NA,"<p><img src= images/blank.png width =""600"" height = ""600"" style=""position:fixed;top:50%; left:50%; transform: translate(-50%, -50%); border:5px solid black"">",NA,NA,NA,NA,NA,NA,NA,NA,NA
NA,432.94500000047265,sequential-stimulus-presentation,44,345894,0.0-14.0-1.3,SS1617819306516,trial,NA,40,1000,1432.9450000004726,images/stimuli/spore_stims/simple_07_A_a.gif,images/stimuli/spore_stims/simple_17_A_b.gif,NA,3,simple_dissimilar,images/stimuli/spore_stims/simple_17_A_b.gif,NA,NA,NA,NA,NA,NA
NA,null,html-keyboard-response,45,346751,0.0-14.0-0.4,SS1617819306516,NA,NA,null,NA,NA,NA,NA,"<p><img src= images/blank.png width =""600"" height = ""600"" style=""position:fixed;top:50%; left:50%; transform: translate(-50%, -50%); border:5px solid black"">",NA,NA,NA,NA,NA,NA,NA,NA,NA
NA,495.0699999972712,sequential-stimulus-presentation,46,348254,0.0-14.0-1.4,SS1617819306516,trial,NA,40,1000,1495.0699999972712,images/stimuli/spore_stims/simple_07_A_a.gif,images/stimuli/spore_stims/simple_17_A_b.gif,NA,3,simple_dissimilar,images/stimuli/spore_stims/simple_07_A_a.gif,NA,NA,NA,NA,NA,NA
NA,null,html-keyboard-response,47,349523,0.0-14.0-0.5,SS1617819306516,NA,NA,null,NA,NA,NA,NA,"<p><img src= images/blank.png width =""600"" height = ""600"" style=""position:fixed;top:50%; left:50%; transform: translate(-50%, -50%); border:5px solid black"">",NA,NA,NA,NA,NA,NA,NA,NA,NA
NA,494.56999999890104,sequential-stimulus-presentation,48,351022,0.0-14.0-1.5,SS1617819306516,trial,NA,40,1000,1494.569999998901,images/stimuli/spore_stims/simple_07_A_a.gif,images/stimuli/spore_stims/simple_17_A_b.gif,NA,3,simple_dissimilar,images/stimuli/spore_stims/simple_17_A_b.gif,NA,NA,NA,NA,NA,NA
