view_history,rt,trial_type,trial_index,time_elapsed,internal_node_id,subject,stimulus_type,trial_stimulus,key_press,minimum_viewing_duration,trial_looking_time,block_deviant,block_background,exposure_type,stimulus,block_number,block_type,stimulus_displayed,responses,question_order,math_correct_answer,stimulus_left,stimulus_right
"[{""page_index"":0,""viewing_time"":1400.9849999565631}]",1401.5699999872595,instructions,0,1404,0.0-0.0,SS1617983155584,NA,NA,NA,NA,NA,NA,NA,NA,NA,NA,NA,NA,NA,NA,NA,NA,NA
"[{""page_index"":0,""viewing_time"":1777.29000011459},{""page_index"":1,""viewing_time"":1200.124999973923}]",2977.9150001704693,instructions,1,6387,0.0-1.0,SS1617983155584,instructions,NA,NA,NA,NA,NA,NA,NA,NA,NA,NA,NA,NA,NA,NA,NA,NA
NA,1497.2900000866503,sequential-stimulus-presentation-old,2,8391,0.0-2.0,SS1617983155584,NA,NA,40,500,1997.2900000866503,null,null,self_paced,NA,NA,NA,NA,NA,NA,NA,NA,NA
NA,1406.9250000175089,sequential-stimulus-presentation-old,3,10301,0.0-3.0,SS1617983155584,NA,NA,40,500,1906.9250000175089,null,null,self_paced,NA,NA,NA,NA,NA,NA,NA,NA,NA
"[{""page_index"":0,""viewing_time"":7828.615000005811}]",7829.050000058487,instructions,4,18132,0.0-4.0,SS1617983155584,instructions,NA,NA,NA,NA,NA,NA,NA,NA,NA,NA,NA,NA,NA,NA,NA,NA
NA,595.0150000862777,sequential-stimulus-presentation-old,5,23734,0.0-5.0,SS1617983155584,NA,NA,40,500,1095.0150000862777,null,null,forced_long,NA,NA,NA,NA,NA,NA,NA,NA,NA
NA,2858.3050000015646,sequential-stimulus-presentation-old,6,26645,0.0-6.0,SS1617983155584,NA,NA,40,50,2908.3050000015646,null,null,forced_long,NA,NA,NA,NA,NA,NA,NA,NA,NA
"[{""page_index"":0,""viewing_time"":1980.3250001277775}]",1980.805000057444,instructions,7,28627,0.0-7.0,SS1617983155584,instructions,NA,NA,NA,NA,NA,NA,NA,NA,NA,NA,NA,NA,NA,NA,NA,NA
"[{""page_index"":0,""viewing_time"":3197.5499999243766},{""page_index"":1,""viewing_time"":1223.4499999321997},{""page_index"":2,""viewing_time"":896.1600000038743},{""page_index"":3,""viewing_time"":1032.145000062883},{""page_index"":4,""viewing_time"":575.914999935776}]",6925.760000012815,instructions,8,35555,0.0-8.0,SS1617983155584,instructions,NA,NA,NA,NA,NA,NA,NA,NA,NA,NA,NA,NA,NA,NA,NA,NA
NA,null,html-keyboard-response,9,36396,0.0-9.0-0.0,SS1617983155584,NA,NA,null,NA,NA,NA,NA,NA,"<p><img src= images/blank.png width =""600"" height = ""600"" style=""position:fixed;top:50%; left:50%; transform: translate(-50%, -50%); border:5px solid black"">",NA,NA,NA,NA,NA,NA,NA,NA
NA,1290.2000001631677,sequential-stimulus-presentation-old,10,42693,0.0-9.0-1.0,SS1617983155584,trial,NA,40,500,1790.2000001631677,images/stimuli/spore_stims/complex_05_A_a.gif,images/stimuli/spore_stims/complex_13_A_b.gif,forced_long,NA,0,complex_dissimilar,images/stimuli/spore_stims/complex_13_A_b.gif,NA,NA,NA,NA,NA
NA,null,html-keyboard-response,11,43838,0.0-9.0-0.1,SS1617983155584,NA,NA,null,NA,NA,NA,NA,NA,"<p><img src= images/blank.png width =""600"" height = ""600"" style=""position:fixed;top:50%; left:50%; transform: translate(-50%, -50%); border:5px solid black"">",NA,NA,NA,NA,NA,NA,NA,NA
NA,862.9600000567734,sequential-stimulus-presentation-old,12,45207,0.0-9.0-1.1,SS1617983155584,trial,NA,40,500,1362.9600000567734,images/stimuli/spore_stims/complex_05_A_a.gif,images/stimuli/spore_stims/complex_13_A_b.gif,forced_long,NA,0,complex_dissimilar,images/stimuli/spore_stims/complex_05_A_a.gif,NA,NA,NA,NA,NA
NA,null,html-keyboard-response,13,46023,0.0-9.0-0.2,SS1617983155584,NA,NA,null,NA,NA,NA,NA,NA,"<p><img src= images/blank.png width =""600"" height = ""600"" style=""position:fixed;top:50%; left:50%; transform: translate(-50%, -50%); border:5px solid black"">",NA,NA,NA,NA,NA,NA,NA,NA
NA,540.2500000782311,sequential-stimulus-presentation-old,14,47069,0.0-9.0-1.2,SS1617983155584,trial,NA,40,500,1040.250000078231,images/stimuli/spore_stims/complex_05_A_a.gif,images/stimuli/spore_stims/complex_13_A_b.gif,forced_long,NA,0,complex_dissimilar,images/stimuli/spore_stims/complex_13_A_b.gif,NA,NA,NA,NA,NA
NA,null,html-keyboard-response,15,48293,0.0-9.0-0.3,SS1617983155584,NA,NA,null,NA,NA,NA,NA,NA,"<p><img src= images/blank.png width =""600"" height = ""600"" style=""position:fixed;top:50%; left:50%; transform: translate(-50%, -50%); border:5px solid black"">",NA,NA,NA,NA,NA,NA,NA,NA
NA,329.0399999823421,sequential-stimulus-presentation-old,16,49126,0.0-9.0-1.3,SS1617983155584,trial,NA,40,500,829.0399999823421,images/stimuli/spore_stims/complex_05_A_a.gif,images/stimuli/spore_stims/complex_13_A_b.gif,forced_long,NA,0,complex_dissimilar,images/stimuli/spore_stims/complex_13_A_b.gif,NA,NA,NA,NA,NA
NA,3728.67999994196,survey-multi-choice,17,52859,0.0-10.0,SS1617983155584,math_question,NA,NA,NA,NA,NA,NA,NA,NA,NA,NA,NA,"{""Q0"":""8""}",[0],8,NA,NA
NA,null,html-keyboard-response,18,54105,0.0-11.0-0.0,SS1617983155584,NA,NA,null,NA,NA,NA,NA,NA,"<p><img src= images/blank.png width =""600"" height = ""600"" style=""position:fixed;top:50%; left:50%; transform: translate(-50%, -50%); border:5px solid black"">",NA,NA,NA,NA,NA,NA,NA,NA
NA,1637.834999943152,sequential-stimulus-presentation-old,19,60754,0.0-11.0-1.0,SS1617983155584,trial,NA,40,500,2137.834999943152,images/stimuli/spore_stims/simple_01_A_b.gif,images/stimuli/spore_stims/simple_10_A_a.gif,forced_long,NA,1,simple_dissimilar,images/stimuli/spore_stims/simple_10_A_a.gif,NA,NA,NA,NA,NA
NA,null,html-keyboard-response,20,61702,0.0-11.0-0.1,SS1617983155584,NA,NA,null,NA,NA,NA,NA,NA,"<p><img src= images/blank.png width =""600"" height = ""600"" style=""position:fixed;top:50%; left:50%; transform: translate(-50%, -50%); border:5px solid black"">",NA,NA,NA,NA,NA,NA,NA,NA
NA,198.37499991990626,sequential-stimulus-presentation-old,21,62406,0.0-11.0-1.1,SS1617983155584,trial,NA,40,500,698.3749999199063,images/stimuli/spore_stims/simple_01_A_b.gif,images/stimuli/spore_stims/simple_10_A_a.gif,forced_long,NA,1,simple_dissimilar,images/stimuli/spore_stims/simple_01_A_b.gif,NA,NA,NA,NA,NA
NA,null,html-keyboard-response,22,63308,0.0-11.0-0.2,SS1617983155584,NA,NA,null,NA,NA,NA,NA,NA,"<p><img src= images/blank.png width =""600"" height = ""600"" style=""position:fixed;top:50%; left:50%; transform: translate(-50%, -50%); border:5px solid black"">",NA,NA,NA,NA,NA,NA,NA,NA
NA,294.87999994307756,sequential-stimulus-presentation-old,23,64111,0.0-11.0-1.2,SS1617983155584,trial,NA,40,500,794.8799999430776,images/stimuli/spore_stims/simple_01_A_b.gif,images/stimuli/spore_stims/simple_10_A_a.gif,forced_long,NA,1,simple_dissimilar,images/stimuli/spore_stims/simple_10_A_a.gif,NA,NA,NA,NA,NA
NA,null,html-keyboard-response,24,65148,0.0-11.0-0.3,SS1617983155584,NA,NA,null,NA,NA,NA,NA,NA,"<p><img src= images/blank.png width =""600"" height = ""600"" style=""position:fixed;top:50%; left:50%; transform: translate(-50%, -50%); border:5px solid black"">",NA,NA,NA,NA,NA,NA,NA,NA
NA,680.7950001675636,sequential-stimulus-presentation-old,25,66335,0.0-11.0-1.3,SS1617983155584,trial,NA,40,500,1180.7950001675636,images/stimuli/spore_stims/simple_01_A_b.gif,images/stimuli/spore_stims/simple_10_A_a.gif,forced_long,NA,1,simple_dissimilar,images/stimuli/spore_stims/simple_10_A_a.gif,NA,NA,NA,NA,NA
NA,null,html-keyboard-response,26,67463,0.0-11.0-0.4,SS1617983155584,NA,NA,null,NA,NA,NA,NA,NA,"<p><img src= images/blank.png width =""600"" height = ""600"" style=""position:fixed;top:50%; left:50%; transform: translate(-50%, -50%); border:5px solid black"">",NA,NA,NA,NA,NA,NA,NA,NA
NA,276.5299999155104,sequential-stimulus-presentation-old,27,68244,0.0-11.0-1.4,SS1617983155584,trial,NA,40,500,776.5299999155104,images/stimuli/spore_stims/simple_01_A_b.gif,images/stimuli/spore_stims/simple_10_A_a.gif,forced_long,NA,1,simple_dissimilar,images/stimuli/spore_stims/simple_10_A_a.gif,NA,NA,NA,NA,NA
NA,null,html-keyboard-response,28,69502,0.0-11.0-0.5,SS1617983155584,NA,NA,null,NA,NA,NA,NA,NA,"<p><img src= images/blank.png width =""600"" height = ""600"" style=""position:fixed;top:50%; left:50%; transform: translate(-50%, -50%); border:5px solid black"">",NA,NA,NA,NA,NA,NA,NA,NA
NA,138.42499977909029,sequential-stimulus-presentation-old,29,70146,0.0-11.0-1.5,SS1617983155584,trial,NA,40,500,638.4249997790903,images/stimuli/spore_stims/simple_01_A_b.gif,images/stimuli/spore_stims/simple_10_A_a.gif,forced_long,NA,1,simple_dissimilar,images/stimuli/spore_stims/simple_01_A_b.gif,NA,NA,NA,NA,NA
NA,2336.020000046119,survey-multi-choice,30,72484,0.0-12.0,SS1617983155584,math_question,NA,NA,NA,NA,NA,NA,NA,NA,NA,NA,NA,"{""Q0"":""6""}",[0],6,NA,NA
NA,null,html-keyboard-response,31,73618,0.0-13.0-0.0,SS1617983155584,NA,NA,null,NA,NA,NA,NA,NA,"<p><img src= images/blank.png width =""600"" height = ""600"" style=""position:fixed;top:50%; left:50%; transform: translate(-50%, -50%); border:5px solid black"">",NA,NA,NA,NA,NA,NA,NA,NA
NA,99.84999988228083,sequential-stimulus-presentation-old,32,74222,0.0-13.0-1.0,SS1617983155584,trial,NA,40,500,599.8499998822808,images/stimuli/spore_stims/complex_16_A_b.gif,images/stimuli/spore_stims/complex_19_A_a.gif,self_paced,NA,2,complex_dissimilar,images/stimuli/spore_stims/complex_19_A_a.gif,NA,NA,NA,NA,NA
NA,null,html-keyboard-response,33,75121,0.0-13.0-0.1,SS1617983155584,NA,NA,null,NA,NA,NA,NA,NA,"<p><img src= images/blank.png width =""600"" height = ""600"" style=""position:fixed;top:50%; left:50%; transform: translate(-50%, -50%); border:5px solid black"">",NA,NA,NA,NA,NA,NA,NA,NA
NA,63.96499997936189,sequential-stimulus-presentation-old,34,75692,0.0-13.0-1.1,SS1617983155584,trial,NA,40,500,563.9649999793619,images/stimuli/spore_stims/complex_16_A_b.gif,images/stimuli/spore_stims/complex_19_A_a.gif,self_paced,NA,2,complex_dissimilar,images/stimuli/spore_stims/complex_19_A_a.gif,NA,NA,NA,NA,NA
NA,null,html-keyboard-response,35,76671,0.0-13.0-0.2,SS1617983155584,NA,NA,null,NA,NA,NA,NA,NA,"<p><img src= images/blank.png width =""600"" height = ""600"" style=""position:fixed;top:50%; left:50%; transform: translate(-50%, -50%); border:5px solid black"">",NA,NA,NA,NA,NA,NA,NA,NA
NA,15.26500005275011,sequential-stimulus-presentation-old,36,77195,0.0-13.0-1.2,SS1617983155584,trial,NA,40,500,515.2650000527501,images/stimuli/spore_stims/complex_16_A_b.gif,images/stimuli/spore_stims/complex_19_A_a.gif,self_paced,NA,2,complex_dissimilar,images/stimuli/spore_stims/complex_19_A_a.gif,NA,NA,NA,NA,NA
NA,null,html-keyboard-response,37,78235,0.0-13.0-0.3,SS1617983155584,NA,NA,null,NA,NA,NA,NA,NA,"<p><img src= images/blank.png width =""600"" height = ""600"" style=""position:fixed;top:50%; left:50%; transform: translate(-50%, -50%); border:5px solid black"">",NA,NA,NA,NA,NA,NA,NA,NA
NA,531.7849998828024,sequential-stimulus-presentation-old,38,79276,0.0-13.0-1.3,SS1617983155584,trial,NA,40,500,1031.7849998828024,images/stimuli/spore_stims/complex_16_A_b.gif,images/stimuli/spore_stims/complex_19_A_a.gif,self_paced,NA,2,complex_dissimilar,images/stimuli/spore_stims/complex_19_A_a.gif,NA,NA,NA,NA,NA
NA,null,html-keyboard-response,39,80375,0.0-13.0-0.4,SS1617983155584,NA,NA,null,NA,NA,NA,NA,NA,"<p><img src= images/blank.png width =""600"" height = ""600"" style=""position:fixed;top:50%; left:50%; transform: translate(-50%, -50%); border:5px solid black"">",NA,NA,NA,NA,NA,NA,NA,NA
NA,238.09999995864928,sequential-stimulus-presentation-old,40,81121,0.0-13.0-1.4,SS1617983155584,trial,NA,40,500,738.0999999586493,images/stimuli/spore_stims/complex_16_A_b.gif,images/stimuli/spore_stims/complex_19_A_a.gif,self_paced,NA,2,complex_dissimilar,images/stimuli/spore_stims/complex_19_A_a.gif,NA,NA,NA,NA,NA
NA,1950.3500000573695,survey-multi-choice,41,83075,0.0-14.0,SS1617983155584,math_question,NA,NA,NA,NA,NA,NA,NA,NA,NA,NA,NA,"{""Q0"":""11""}",[0],11,NA,NA
NA,null,html-keyboard-response,42,83932,0.0-15.0-0.0,SS1617983155584,NA,NA,null,NA,NA,NA,NA,NA,"<p><img src= images/blank.png width =""600"" height = ""600"" style=""position:fixed;top:50%; left:50%; transform: translate(-50%, -50%); border:5px solid black"">",NA,NA,NA,NA,NA,NA,NA,NA
NA,830.4749999660999,sequential-stimulus-presentation-old,43,84821,0.0-15.0-1.0,SS1617983155584,trial,NA,40,500,1330.4749999660999,images/stimuli/spore_stims/complex_12_A_b.gif,images/stimuli/spore_stims/complex_09_A_a.gif,forced_short,NA,3,complex_dissimilar,images/stimuli/spore_stims/complex_09_A_a.gif,NA,NA,NA,NA,NA
NA,null,html-keyboard-response,44,85827,0.0-15.0-0.1,SS1617983155584,NA,NA,null,NA,NA,NA,NA,NA,"<p><img src= images/blank.png width =""600"" height = ""600"" style=""position:fixed;top:50%; left:50%; transform: translate(-50%, -50%); border:5px solid black"">",NA,NA,NA,NA,NA,NA,NA,NA
NA,97.81499998643994,sequential-stimulus-presentation-old,45,86430,0.0-15.0-1.1,SS1617983155584,trial,NA,40,500,597.81499998644,images/stimuli/spore_stims/complex_12_A_b.gif,images/stimuli/spore_stims/complex_09_A_a.gif,forced_short,NA,3,complex_dissimilar,images/stimuli/spore_stims/complex_12_A_b.gif,NA,NA,NA,NA,NA
NA,null,html-keyboard-response,46,87377,0.0-15.0-0.2,SS1617983155584,NA,NA,null,NA,NA,NA,NA,NA,"<p><img src= images/blank.png width =""600"" height = ""600"" style=""position:fixed;top:50%; left:50%; transform: translate(-50%, -50%); border:5px solid black"">",NA,NA,NA,NA,NA,NA,NA,NA
NA,333.6299997754395,sequential-stimulus-presentation-old,47,88216,0.0-15.0-1.2,SS1617983155584,trial,NA,40,500,833.6299997754395,images/stimuli/spore_stims/complex_12_A_b.gif,images/stimuli/spore_stims/complex_09_A_a.gif,forced_short,NA,3,complex_dissimilar,images/stimuli/spore_stims/complex_09_A_a.gif,NA,NA,NA,NA,NA
NA,null,html-keyboard-response,48,89201,0.0-15.0-0.3,SS1617983155584,NA,NA,null,NA,NA,NA,NA,NA,"<p><img src= images/blank.png width =""600"" height = ""600"" style=""position:fixed;top:50%; left:50%; transform: translate(-50%, -50%); border:5px solid black"">",NA,NA,NA,NA,NA,NA,NA,NA
NA,507.0849999319762,sequential-stimulus-presentation-old,49,90214,0.0-15.0-1.3,SS1617983155584,trial,NA,40,500,1007.0849999319762,images/stimuli/spore_stims/complex_12_A_b.gif,images/stimuli/spore_stims/complex_09_A_a.gif,forced_short,NA,3,complex_dissimilar,images/stimuli/spore_stims/complex_09_A_a.gif,NA,NA,NA,NA,NA
NA,null,html-keyboard-response,50,91489,0.0-15.0-0.4,SS1617983155584,NA,NA,null,NA,NA,NA,NA,NA,"<p><img src= images/blank.png width =""600"" height = ""600"" style=""position:fixed;top:50%; left:50%; transform: translate(-50%, -50%); border:5px solid black"">",NA,NA,NA,NA,NA,NA,NA,NA
NA,234.7949999384582,sequential-stimulus-presentation-old,51,92230,0.0-15.0-1.4,SS1617983155584,trial,NA,40,500,734.7949999384582,images/stimuli/spore_stims/complex_12_A_b.gif,images/stimuli/spore_stims/complex_09_A_a.gif,forced_short,NA,3,complex_dissimilar,images/stimuli/spore_stims/complex_12_A_b.gif,NA,NA,NA,NA,NA
NA,2234.2449999414384,survey-multi-choice,52,94468,0.0-16.0,SS1617983155584,math_question,NA,NA,NA,NA,NA,NA,NA,NA,NA,NA,NA,"{""Q0"":""12""}",[0],12,NA,NA
NA,null,html-keyboard-response,53,95356,0.0-17.0-0.0,SS1617983155584,NA,NA,null,NA,NA,NA,NA,NA,"<p><img src= images/blank.png width =""600"" height = ""600"" style=""position:fixed;top:50%; left:50%; transform: translate(-50%, -50%); border:5px solid black"">",NA,NA,NA,NA,NA,NA,NA,NA
NA,1390.9549999516457,sequential-stimulus-presentation-old,54,97254,0.0-17.0-1.0,SS1617983155584,trial,NA,40,500,1890.9549999516457,images/stimuli/spore_stims/complex_04_A_b.gif,images/stimuli/spore_stims/complex_17_A_a.gif,self_paced,NA,4,complex_dissimilar,images/stimuli/spore_stims/complex_17_A_a.gif,NA,NA,NA,NA,NA
NA,null,html-keyboard-response,55,98300,0.0-17.0-0.1,SS1617983155584,NA,NA,null,NA,NA,NA,NA,NA,"<p><img src= images/blank.png width =""600"" height = ""600"" style=""position:fixed;top:50%; left:50%; transform: translate(-50%, -50%); border:5px solid black"">",NA,NA,NA,NA,NA,NA,NA,NA
NA,166.85499995946884,sequential-stimulus-presentation-old,56,98974,0.0-17.0-1.1,SS1617983155584,trial,NA,40,500,666.8549999594688,images/stimuli/spore_stims/complex_04_A_b.gif,images/stimuli/spore_stims/complex_17_A_a.gif,self_paced,NA,4,complex_dissimilar,images/stimuli/spore_stims/complex_17_A_a.gif,NA,NA,NA,NA,NA
NA,null,html-keyboard-response,57,99905,0.0-17.0-0.2,SS1617983155584,NA,NA,null,NA,NA,NA,NA,NA,"<p><img src= images/blank.png width =""600"" height = ""600"" style=""position:fixed;top:50%; left:50%; transform: translate(-50%, -50%); border:5px solid black"">",NA,NA,NA,NA,NA,NA,NA,NA
NA,186.31500005722046,sequential-stimulus-presentation-old,58,100597,0.0-17.0-1.2,SS1617983155584,trial,NA,40,500,686.3150000572205,images/stimuli/spore_stims/complex_04_A_b.gif,images/stimuli/spore_stims/complex_17_A_a.gif,self_paced,NA,4,complex_dissimilar,images/stimuli/spore_stims/complex_17_A_a.gif,NA,NA,NA,NA,NA
NA,null,html-keyboard-response,59,101702,0.0-17.0-0.3,SS1617983155584,NA,NA,null,NA,NA,NA,NA,NA,"<p><img src= images/blank.png width =""600"" height = ""600"" style=""position:fixed;top:50%; left:50%; transform: translate(-50%, -50%); border:5px solid black"">",NA,NA,NA,NA,NA,NA,NA,NA
NA,115.8050000667572,sequential-stimulus-presentation-old,60,102327,0.0-17.0-1.3,SS1617983155584,trial,NA,40,500,615.8050000667572,images/stimuli/spore_stims/complex_04_A_b.gif,images/stimuli/spore_stims/complex_17_A_a.gif,self_paced,NA,4,complex_dissimilar,images/stimuli/spore_stims/complex_17_A_a.gif,NA,NA,NA,NA,NA
NA,null,html-keyboard-response,61,103489,0.0-17.0-0.4,SS1617983155584,NA,NA,null,NA,NA,NA,NA,NA,"<p><img src= images/blank.png width =""600"" height = ""600"" style=""position:fixed;top:50%; left:50%; transform: translate(-50%, -50%); border:5px solid black"">",NA,NA,NA,NA,NA,NA,NA,NA
NA,249.43499988876283,sequential-stimulus-presentation-old,62,104245,0.0-17.0-1.4,SS1617983155584,trial,NA,40,500,749.4349998887628,images/stimuli/spore_stims/complex_04_A_b.gif,images/stimuli/spore_stims/complex_17_A_a.gif,self_paced,NA,4,complex_dissimilar,images/stimuli/spore_stims/complex_17_A_a.gif,NA,NA,NA,NA,NA
NA,null,html-keyboard-response,63,105436,0.0-17.0-0.5,SS1617983155584,NA,NA,null,NA,NA,NA,NA,NA,"<p><img src= images/blank.png width =""600"" height = ""600"" style=""position:fixed;top:50%; left:50%; transform: translate(-50%, -50%); border:5px solid black"">",NA,NA,NA,NA,NA,NA,NA,NA
NA,60.15500007197261,sequential-stimulus-presentation-old,64,106004,0.0-17.0-1.5,SS1617983155584,trial,NA,40,500,560.1550000719726,images/stimuli/spore_stims/complex_04_A_b.gif,images/stimuli/spore_stims/complex_17_A_a.gif,self_paced,NA,4,complex_dissimilar,images/stimuli/spore_stims/complex_17_A_a.gif,NA,NA,NA,NA,NA
NA,1860.2750001009554,survey-multi-choice,65,107868,0.0-18.0,SS1617983155584,math_question,NA,NA,NA,NA,NA,NA,NA,NA,NA,NA,NA,"{""Q0"":""9""}",[0],9,NA,NA
NA,null,html-keyboard-response,66,108871,0.0-19.0-0.0,SS1617983155584,NA,NA,null,NA,NA,NA,NA,NA,"<p><img src= images/blank.png width =""600"" height = ""600"" style=""position:fixed;top:50%; left:50%; transform: translate(-50%, -50%); border:5px solid black"">",NA,NA,NA,NA,NA,NA,NA,NA
NA,1557.0949998218566,sequential-stimulus-presentation-old,67,110487,0.0-19.0-1.0,SS1617983155584,trial,NA,40,500,2057.0949998218566,images/stimuli/spore_stims/complex_03_A_b.gif,images/stimuli/spore_stims/complex_01_A_a.gif,forced_short,NA,5,complex_dissimilar,images/stimuli/spore_stims/complex_01_A_a.gif,NA,NA,NA,NA,NA
NA,null,html-keyboard-response,68,111377,0.0-19.0-0.1,SS1617983155584,NA,NA,null,NA,NA,NA,NA,NA,"<p><img src= images/blank.png width =""600"" height = ""600"" style=""position:fixed;top:50%; left:50%; transform: translate(-50%, -50%); border:5px solid black"">",NA,NA,NA,NA,NA,NA,NA,NA
NA,267.6850000862032,sequential-stimulus-presentation-old,69,112157,0.0-19.0-1.1,SS1617983155584,trial,NA,40,500,767.6850000862032,images/stimuli/spore_stims/complex_03_A_b.gif,images/stimuli/spore_stims/complex_01_A_a.gif,forced_short,NA,5,complex_dissimilar,images/stimuli/spore_stims/complex_01_A_a.gif,NA,NA,NA,NA,NA
NA,null,html-keyboard-response,70,113261,0.0-19.0-0.2,SS1617983155584,NA,NA,null,NA,NA,NA,NA,NA,"<p><img src= images/blank.png width =""600"" height = ""600"" style=""position:fixed;top:50%; left:50%; transform: translate(-50%, -50%); border:5px solid black"">",NA,NA,NA,NA,NA,NA,NA,NA
NA,1255.5299999658018,sequential-stimulus-presentation-old,71,115022,0.0-19.0-1.2,SS1617983155584,trial,NA,40,500,1755.5299999658018,images/stimuli/spore_stims/complex_03_A_b.gif,images/stimuli/spore_stims/complex_01_A_a.gif,forced_short,NA,5,complex_dissimilar,images/stimuli/spore_stims/complex_01_A_a.gif,NA,NA,NA,NA,NA
NA,null,html-keyboard-response,72,116012,0.0-19.0-0.3,SS1617983155584,NA,NA,null,NA,NA,NA,NA,NA,"<p><img src= images/blank.png width =""600"" height = ""600"" style=""position:fixed;top:50%; left:50%; transform: translate(-50%, -50%); border:5px solid black"">",NA,NA,NA,NA,NA,NA,NA,NA
NA,653.7300001364201,sequential-stimulus-presentation-old,73,117172,0.0-19.0-1.3,SS1617983155584,trial,NA,40,500,1153.7300001364201,images/stimuli/spore_stims/complex_03_A_b.gif,images/stimuli/spore_stims/complex_01_A_a.gif,forced_short,NA,5,complex_dissimilar,images/stimuli/spore_stims/complex_01_A_a.gif,NA,NA,NA,NA,NA
NA,null,html-keyboard-response,74,118178,0.0-19.0-0.4,SS1617983155584,NA,NA,null,NA,NA,NA,NA,NA,"<p><img src= images/blank.png width =""600"" height = ""600"" style=""position:fixed;top:50%; left:50%; transform: translate(-50%, -50%); border:5px solid black"">",NA,NA,NA,NA,NA,NA,NA,NA
NA,698.0350001249462,sequential-stimulus-presentation-old,75,119381,0.0-19.0-1.4,SS1617983155584,trial,NA,40,500,1198.0350001249462,images/stimuli/spore_stims/complex_03_A_b.gif,images/stimuli/spore_stims/complex_01_A_a.gif,forced_short,NA,5,complex_dissimilar,images/stimuli/spore_stims/complex_03_A_b.gif,NA,NA,NA,NA,NA
NA,null,html-keyboard-response,76,120322,0.0-19.0-0.5,SS1617983155584,NA,NA,null,NA,NA,NA,NA,NA,"<p><img src= images/blank.png width =""600"" height = ""600"" style=""position:fixed;top:50%; left:50%; transform: translate(-50%, -50%); border:5px solid black"">",NA,NA,NA,NA,NA,NA,NA,NA
NA,625.1949998550117,sequential-stimulus-presentation-old,77,121453,0.0-19.0-1.5,SS1617983155584,trial,NA,40,500,1125.1949998550117,images/stimuli/spore_stims/complex_03_A_b.gif,images/stimuli/spore_stims/complex_01_A_a.gif,forced_short,NA,5,complex_dissimilar,images/stimuli/spore_stims/complex_03_A_b.gif,NA,NA,NA,NA,NA
NA,1892.055000178516,survey-multi-choice,78,123348,0.0-20.0,SS1617983155584,math_question,NA,NA,NA,NA,NA,NA,NA,NA,NA,NA,NA,"{""Q0"":""10""}",[0],10,NA,NA
NA,null,html-keyboard-response,79,124636,0.0-21.0-0.0,SS1617983155584,NA,NA,null,NA,NA,NA,NA,NA,"<p><img src= images/blank.png width =""600"" height = ""600"" style=""position:fixed;top:50%; left:50%; transform: translate(-50%, -50%); border:5px solid black"">",NA,NA,NA,NA,NA,NA,NA,NA
NA,1145.435000071302,sequential-stimulus-presentation-old,80,130790,0.0-21.0-1.0,SS1617983155584,trial,NA,40,500,1645.435000071302,images/stimuli/spore_stims/simple_07_A_a.gif,images/stimuli/spore_stims/simple_05_A_b.gif,forced_long,NA,6,simple_dissimilar,images/stimuli/spore_stims/simple_05_A_b.gif,NA,NA,NA,NA,NA
NA,null,html-keyboard-response,81,132017,0.0-21.0-0.1,SS1617983155584,NA,NA,null,NA,NA,NA,NA,NA,"<p><img src= images/blank.png width =""600"" height = ""600"" style=""position:fixed;top:50%; left:50%; transform: translate(-50%, -50%); border:5px solid black"">",NA,NA,NA,NA,NA,NA,NA,NA
NA,7.1650000754743814,sequential-stimulus-presentation-old,82,132532,0.0-21.0-1.1,SS1617983155584,trial,NA,40,500,507.1650000754744,images/stimuli/spore_stims/simple_07_A_a.gif,images/stimuli/spore_stims/simple_05_A_b.gif,forced_long,NA,6,simple_dissimilar,images/stimuli/spore_stims/simple_05_A_b.gif,NA,NA,NA,NA,NA
NA,null,html-keyboard-response,83,133752,0.0-21.0-0.2,SS1617983155584,NA,NA,null,NA,NA,NA,NA,NA,"<p><img src= images/blank.png width =""600"" height = ""600"" style=""position:fixed;top:50%; left:50%; transform: translate(-50%, -50%); border:5px solid black"">",NA,NA,NA,NA,NA,NA,NA,NA
NA,260.0050000473857,sequential-stimulus-presentation-old,84,134518,0.0-21.0-1.2,SS1617983155584,trial,NA,40,500,760.0050000473857,images/stimuli/spore_stims/simple_07_A_a.gif,images/stimuli/spore_stims/simple_05_A_b.gif,forced_long,NA,6,simple_dissimilar,images/stimuli/spore_stims/simple_05_A_b.gif,NA,NA,NA,NA,NA
NA,null,html-keyboard-response,85,135597,0.0-21.0-0.3,SS1617983155584,NA,NA,null,NA,NA,NA,NA,NA,"<p><img src= images/blank.png width =""600"" height = ""600"" style=""position:fixed;top:50%; left:50%; transform: translate(-50%, -50%); border:5px solid black"">",NA,NA,NA,NA,NA,NA,NA,NA
NA,364.5099999848753,sequential-stimulus-presentation-old,86,136467,0.0-21.0-1.3,SS1617983155584,trial,NA,40,500,864.5099999848753,images/stimuli/spore_stims/simple_07_A_a.gif,images/stimuli/spore_stims/simple_05_A_b.gif,forced_long,NA,6,simple_dissimilar,images/stimuli/spore_stims/simple_05_A_b.gif,NA,NA,NA,NA,NA
NA,null,html-keyboard-response,87,137319,0.0-21.0-0.4,SS1617983155584,NA,NA,null,NA,NA,NA,NA,NA,"<p><img src= images/blank.png width =""600"" height = ""600"" style=""position:fixed;top:50%; left:50%; transform: translate(-50%, -50%); border:5px solid black"">",NA,NA,NA,NA,NA,NA,NA,NA
NA,693.3599999174476,sequential-stimulus-presentation-old,88,138517,0.0-21.0-1.4,SS1617983155584,trial,NA,40,500,1193.3599999174476,images/stimuli/spore_stims/simple_07_A_a.gif,images/stimuli/spore_stims/simple_05_A_b.gif,forced_long,NA,6,simple_dissimilar,images/stimuli/spore_stims/simple_07_A_a.gif,NA,NA,NA,NA,NA
NA,null,html-keyboard-response,89,139324,0.0-21.0-0.5,SS1617983155584,NA,NA,null,NA,NA,NA,NA,NA,"<p><img src= images/blank.png width =""600"" height = ""600"" style=""position:fixed;top:50%; left:50%; transform: translate(-50%, -50%); border:5px solid black"">",NA,NA,NA,NA,NA,NA,NA,NA
NA,848.255000077188,sequential-stimulus-presentation-old,90,140681,0.0-21.0-1.5,SS1617983155584,trial,NA,40,500,1348.255000077188,images/stimuli/spore_stims/simple_07_A_a.gif,images/stimuli/spore_stims/simple_05_A_b.gif,forced_long,NA,6,simple_dissimilar,images/stimuli/spore_stims/simple_05_A_b.gif,NA,NA,NA,NA,NA
NA,2279.89499992691,survey-multi-choice,91,142964,0.0-22.0,SS1617983155584,math_question,NA,NA,NA,NA,NA,NA,NA,NA,NA,NA,NA,"{""Q0"":""9""}",[0],9,NA,NA
NA,null,html-keyboard-response,92,143815,0.0-23.0-0.0,SS1617983155584,NA,NA,null,NA,NA,NA,NA,NA,"<p><img src= images/blank.png width =""600"" height = ""600"" style=""position:fixed;top:50%; left:50%; transform: translate(-50%, -50%); border:5px solid black"">",NA,NA,NA,NA,NA,NA,NA,NA
NA,325.79999999143183,sequential-stimulus-presentation-old,93,144647,0.0-23.0-1.0,SS1617983155584,trial,NA,40,500,825.7999999914318,images/stimuli/spore_stims/simple_03_A_a.gif,images/stimuli/spore_stims/simple_16_A_b.gif,self_paced,NA,7,simple_dissimilar,images/stimuli/spore_stims/simple_16_A_b.gif,NA,NA,NA,NA,NA
NA,null,html-keyboard-response,94,145788,0.0-23.0-0.1,SS1617983155584,NA,NA,null,NA,NA,NA,NA,NA,"<p><img src= images/blank.png width =""600"" height = ""600"" style=""position:fixed;top:50%; left:50%; transform: translate(-50%, -50%); border:5px solid black"">",NA,NA,NA,NA,NA,NA,NA,NA
NA,277.6150000281632,sequential-stimulus-presentation-old,95,146572,0.0-23.0-1.1,SS1617983155584,trial,NA,40,500,777.6150000281632,images/stimuli/spore_stims/simple_03_A_a.gif,images/stimuli/spore_stims/simple_16_A_b.gif,self_paced,NA,7,simple_dissimilar,images/stimuli/spore_stims/simple_16_A_b.gif,NA,NA,NA,NA,NA
NA,null,html-keyboard-response,96,147523,0.0-23.0-0.2,SS1617983155584,NA,NA,null,NA,NA,NA,NA,NA,"<p><img src= images/blank.png width =""600"" height = ""600"" style=""position:fixed;top:50%; left:50%; transform: translate(-50%, -50%); border:5px solid black"">",NA,NA,NA,NA,NA,NA,NA,NA
NA,565.3249998576939,sequential-stimulus-presentation-old,97,148597,0.0-23.0-1.2,SS1617983155584,trial,NA,40,500,1065.324999857694,images/stimuli/spore_stims/simple_03_A_a.gif,images/stimuli/spore_stims/simple_16_A_b.gif,self_paced,NA,7,simple_dissimilar,images/stimuli/spore_stims/simple_16_A_b.gif,NA,NA,NA,NA,NA
NA,null,html-keyboard-response,98,149831,0.0-23.0-0.3,SS1617983155584,NA,NA,null,NA,NA,NA,NA,NA,"<p><img src= images/blank.png width =""600"" height = ""600"" style=""position:fixed;top:50%; left:50%; transform: translate(-50%, -50%); border:5px solid black"">",NA,NA,NA,NA,NA,NA,NA,NA
NA,1053.9100000169128,sequential-stimulus-presentation-old,99,151391,0.0-23.0-1.3,SS1617983155584,trial,NA,40,500,1553.9100000169128,images/stimuli/spore_stims/simple_03_A_a.gif,images/stimuli/spore_stims/simple_16_A_b.gif,self_paced,NA,7,simple_dissimilar,images/stimuli/spore_stims/simple_16_A_b.gif,NA,NA,NA,NA,NA
NA,6470.775000052527,survey-multi-choice,100,157864,0.0-24.0,SS1617983155584,math_question,NA,NA,NA,NA,NA,NA,NA,NA,NA,NA,NA,"{""Q0"":""8""}",[0],8,NA,NA
NA,null,html-keyboard-response,101,159039,0.0-25.0-0.0,SS1617983155584,NA,NA,null,NA,NA,NA,NA,NA,"<p><img src= images/blank.png width =""600"" height = ""600"" style=""position:fixed;top:50%; left:50%; transform: translate(-50%, -50%); border:5px solid black"">",NA,NA,NA,NA,NA,NA,NA,NA
NA,163.8950000051409,sequential-stimulus-presentation-old,102,159708,0.0-25.0-1.0,SS1617983155584,trial,NA,40,500,663.8950000051409,images/stimuli/spore_stims/simple_13_A_a.gif,images/stimuli/spore_stims/simple_06_A_b.gif,self_paced,NA,8,simple_dissimilar,images/stimuli/spore_stims/simple_06_A_b.gif,NA,NA,NA,NA,NA
NA,null,html-keyboard-response,103,160558,0.0-25.0-0.1,SS1617983155584,NA,NA,null,NA,NA,NA,NA,NA,"<p><img src= images/blank.png width =""600"" height = ""600"" style=""position:fixed;top:50%; left:50%; transform: translate(-50%, -50%); border:5px solid black"">",NA,NA,NA,NA,NA,NA,NA,NA
NA,445.25999994948506,sequential-stimulus-presentation-old,104,161511,0.0-25.0-1.1,SS1617983155584,trial,NA,40,500,945.2599999494851,images/stimuli/spore_stims/simple_13_A_a.gif,images/stimuli/spore_stims/simple_06_A_b.gif,self_paced,NA,8,simple_dissimilar,images/stimuli/spore_stims/simple_06_A_b.gif,NA,NA,NA,NA,NA
NA,null,html-keyboard-response,105,162487,0.0-25.0-0.2,SS1617983155584,NA,NA,null,NA,NA,NA,NA,NA,"<p><img src= images/blank.png width =""600"" height = ""600"" style=""position:fixed;top:50%; left:50%; transform: translate(-50%, -50%); border:5px solid black"">",NA,NA,NA,NA,NA,NA,NA,NA
NA,755.1750000566244,sequential-stimulus-presentation-old,106,163749,0.0-25.0-1.2,SS1617983155584,trial,NA,40,500,1255.1750000566244,images/stimuli/spore_stims/simple_13_A_a.gif,images/stimuli/spore_stims/simple_06_A_b.gif,self_paced,NA,8,simple_dissimilar,images/stimuli/spore_stims/simple_06_A_b.gif,NA,NA,NA,NA,NA
NA,null,html-keyboard-response,107,164935,0.0-25.0-0.3,SS1617983155584,NA,NA,null,NA,NA,NA,NA,NA,"<p><img src= images/blank.png width =""600"" height = ""600"" style=""position:fixed;top:50%; left:50%; transform: translate(-50%, -50%); border:5px solid black"">",NA,NA,NA,NA,NA,NA,NA,NA
NA,409.565000096336,sequential-stimulus-presentation-old,108,165852,0.0-25.0-1.3,SS1617983155584,trial,NA,40,500,909.565000096336,images/stimuli/spore_stims/simple_13_A_a.gif,images/stimuli/spore_stims/simple_06_A_b.gif,self_paced,NA,8,simple_dissimilar,images/stimuli/spore_stims/simple_06_A_b.gif,NA,NA,NA,NA,NA
NA,null,html-keyboard-response,109,166662,0.0-25.0-0.4,SS1617983155584,NA,NA,null,NA,NA,NA,NA,NA,"<p><img src= images/blank.png width =""600"" height = ""600"" style=""position:fixed;top:50%; left:50%; transform: translate(-50%, -50%); border:5px solid black"">",NA,NA,NA,NA,NA,NA,NA,NA
NA,97.45000000111759,sequential-stimulus-presentation-old,110,167268,0.0-25.0-1.4,SS1617983155584,trial,NA,40,500,597.4500000011176,images/stimuli/spore_stims/simple_13_A_a.gif,images/stimuli/spore_stims/simple_06_A_b.gif,self_paced,NA,8,simple_dissimilar,images/stimuli/spore_stims/simple_06_A_b.gif,NA,NA,NA,NA,NA
NA,null,html-keyboard-response,111,168176,0.0-25.0-0.5,SS1617983155584,NA,NA,null,NA,NA,NA,NA,NA,"<p><img src= images/blank.png width =""600"" height = ""600"" style=""position:fixed;top:50%; left:50%; transform: translate(-50%, -50%); border:5px solid black"">",NA,NA,NA,NA,NA,NA,NA,NA
NA,432.43000004440546,sequential-stimulus-presentation-old,112,169118,0.0-25.0-1.5,SS1617983155584,trial,NA,40,500,932.4300000444055,images/stimuli/spore_stims/simple_13_A_a.gif,images/stimuli/spore_stims/simple_06_A_b.gif,self_paced,NA,8,simple_dissimilar,images/stimuli/spore_stims/simple_06_A_b.gif,NA,NA,NA,NA,NA
NA,3497.2149999812245,survey-multi-choice,113,172620,0.0-26.0,SS1617983155584,math_question,NA,NA,NA,NA,NA,NA,NA,NA,NA,NA,NA,"{""Q0"":""8""}",[0],8,NA,NA
NA,null,html-keyboard-response,114,173663,0.0-27.0-0.0,SS1617983155584,NA,NA,null,NA,NA,NA,NA,NA,"<p><img src= images/blank.png width =""600"" height = ""600"" style=""position:fixed;top:50%; left:50%; transform: translate(-50%, -50%); border:5px solid black"">",NA,NA,NA,NA,NA,NA,NA,NA
NA,3375.285000074655,sequential-stimulus-presentation-old,115,177100,0.0-27.0-1.0,SS1617983155584,trial,NA,40,500,3875.285000074655,images/stimuli/spore_stims/simple_14_A_a.gif,images/stimuli/spore_stims/simple_12_A_b.gif,forced_short,NA,9,simple_dissimilar,images/stimuli/spore_stims/simple_12_A_b.gif,NA,NA,NA,NA,NA
NA,null,html-keyboard-response,116,178104,0.0-27.0-0.1,SS1617983155584,NA,NA,null,NA,NA,NA,NA,NA,"<p><img src= images/blank.png width =""600"" height = ""600"" style=""position:fixed;top:50%; left:50%; transform: translate(-50%, -50%); border:5px solid black"">",NA,NA,NA,NA,NA,NA,NA,NA
NA,161.20500001125038,sequential-stimulus-presentation-old,117,178770,0.0-27.0-1.1,SS1617983155584,trial,NA,40,500,661.2050000112504,images/stimuli/spore_stims/simple_14_A_a.gif,images/stimuli/spore_stims/simple_12_A_b.gif,forced_short,NA,9,simple_dissimilar,images/stimuli/spore_stims/simple_12_A_b.gif,NA,NA,NA,NA,NA
NA,null,html-keyboard-response,118,179865,0.0-27.0-0.2,SS1617983155584,NA,NA,null,NA,NA,NA,NA,NA,"<p><img src= images/blank.png width =""600"" height = ""600"" style=""position:fixed;top:50%; left:50%; transform: translate(-50%, -50%); border:5px solid black"">",NA,NA,NA,NA,NA,NA,NA,NA
NA,114.63500000536442,sequential-stimulus-presentation-old,119,180489,0.0-27.0-1.2,SS1617983155584,trial,NA,40,500,614.6350000053644,images/stimuli/spore_stims/simple_14_A_a.gif,images/stimuli/spore_stims/simple_12_A_b.gif,forced_short,NA,9,simple_dissimilar,images/stimuli/spore_stims/simple_12_A_b.gif,NA,NA,NA,NA,NA
NA,null,html-keyboard-response,120,181411,0.0-27.0-0.3,SS1617983155584,NA,NA,null,NA,NA,NA,NA,NA,"<p><img src= images/blank.png width =""600"" height = ""600"" style=""position:fixed;top:50%; left:50%; transform: translate(-50%, -50%); border:5px solid black"">",NA,NA,NA,NA,NA,NA,NA,NA
NA,156.6250000614673,sequential-stimulus-presentation-old,121,182076,0.0-27.0-1.3,SS1617983155584,trial,NA,40,500,656.6250000614673,images/stimuli/spore_stims/simple_14_A_a.gif,images/stimuli/spore_stims/simple_12_A_b.gif,forced_short,NA,9,simple_dissimilar,images/stimuli/spore_stims/simple_12_A_b.gif,NA,NA,NA,NA,NA
NA,null,html-keyboard-response,122,183162,0.0-27.0-0.4,SS1617983155584,NA,NA,null,NA,NA,NA,NA,NA,"<p><img src= images/blank.png width =""600"" height = ""600"" style=""position:fixed;top:50%; left:50%; transform: translate(-50%, -50%); border:5px solid black"">",NA,NA,NA,NA,NA,NA,NA,NA
NA,292.9549999535084,sequential-stimulus-presentation-old,123,183964,0.0-27.0-1.4,SS1617983155584,trial,NA,40,500,792.9549999535084,images/stimuli/spore_stims/simple_14_A_a.gif,images/stimuli/spore_stims/simple_12_A_b.gif,forced_short,NA,9,simple_dissimilar,images/stimuli/spore_stims/simple_12_A_b.gif,NA,NA,NA,NA,NA
NA,2187.3800000175834,survey-multi-choice,124,186155,0.0-28.0,SS1617983155584,math_question,NA,NA,NA,NA,NA,NA,NA,NA,NA,NA,NA,"{""Q0"":""5""}",[0],5,NA,NA
NA,null,html-keyboard-response,125,187417,0.0-29.0-0.0,SS1617983155584,NA,NA,null,NA,NA,NA,NA,NA,"<p><img src= images/blank.png width =""600"" height = ""600"" style=""position:fixed;top:50%; left:50%; transform: translate(-50%, -50%); border:5px solid black"">",NA,NA,NA,NA,NA,NA,NA,NA
NA,987.9300000611693,sequential-stimulus-presentation-old,126,188462,0.0-29.0-1.0,SS1617983155584,trial,NA,40,500,1487.9300000611693,images/stimuli/spore_stims/simple_11_A_a.gif,images/stimuli/spore_stims/simple_20_A_b.gif,forced_short,NA,10,simple_dissimilar,images/stimuli/spore_stims/simple_20_A_b.gif,NA,NA,NA,NA,NA
NA,null,html-keyboard-response,127,189500,0.0-29.0-0.1,SS1617983155584,NA,NA,null,NA,NA,NA,NA,NA,"<p><img src= images/blank.png width =""600"" height = ""600"" style=""position:fixed;top:50%; left:50%; transform: translate(-50%, -50%); border:5px solid black"">",NA,NA,NA,NA,NA,NA,NA,NA
NA,344.43000005558133,sequential-stimulus-presentation-old,128,190350,0.0-29.0-1.1,SS1617983155584,trial,NA,40,500,844.4300000555813,images/stimuli/spore_stims/simple_11_A_a.gif,images/stimuli/spore_stims/simple_20_A_b.gif,forced_short,NA,10,simple_dissimilar,images/stimuli/spore_stims/simple_20_A_b.gif,NA,NA,NA,NA,NA
NA,null,html-keyboard-response,129,191317,0.0-29.0-0.2,SS1617983155584,NA,NA,null,NA,NA,NA,NA,NA,"<p><img src= images/blank.png width =""600"" height = ""600"" style=""position:fixed;top:50%; left:50%; transform: translate(-50%, -50%); border:5px solid black"">",NA,NA,NA,NA,NA,NA,NA,NA
NA,197.11999990977347,sequential-stimulus-presentation-old,130,192022,0.0-29.0-1.2,SS1617983155584,trial,NA,40,500,697.1199999097735,images/stimuli/spore_stims/simple_11_A_a.gif,images/stimuli/spore_stims/simple_20_A_b.gif,forced_short,NA,10,simple_dissimilar,images/stimuli/spore_stims/simple_20_A_b.gif,NA,NA,NA,NA,NA
NA,null,html-keyboard-response,131,193040,0.0-29.0-0.3,SS1617983155584,NA,NA,null,NA,NA,NA,NA,NA,"<p><img src= images/blank.png width =""600"" height = ""600"" style=""position:fixed;top:50%; left:50%; transform: translate(-50%, -50%); border:5px solid black"">",NA,NA,NA,NA,NA,NA,NA,NA
NA,124.21999988146126,sequential-stimulus-presentation-old,132,193607,0.0-29.0-1.3,SS1617983155584,trial,NA,40,500,624.2199998814613,images/stimuli/spore_stims/simple_11_A_a.gif,images/stimuli/spore_stims/simple_20_A_b.gif,forced_short,NA,10,simple_dissimilar,images/stimuli/spore_stims/simple_20_A_b.gif,NA,NA,NA,NA,NA
NA,null,html-keyboard-response,133,194665,0.0-29.0-0.4,SS1617983155584,NA,NA,null,NA,NA,NA,NA,NA,"<p><img src= images/blank.png width =""600"" height = ""600"" style=""position:fixed;top:50%; left:50%; transform: translate(-50%, -50%); border:5px solid black"">",NA,NA,NA,NA,NA,NA,NA,NA
NA,85.91499994508922,sequential-stimulus-presentation-old,134,195259,0.0-29.0-1.4,SS1617983155584,trial,NA,40,500,585.9149999450892,images/stimuli/spore_stims/simple_11_A_a.gif,images/stimuli/spore_stims/simple_20_A_b.gif,forced_short,NA,10,simple_dissimilar,images/stimuli/spore_stims/simple_20_A_b.gif,NA,NA,NA,NA,NA
NA,1897.7950001135468,survey-multi-choice,135,197162,0.0-30.0,SS1617983155584,math_question,NA,NA,NA,NA,NA,NA,NA,NA,NA,NA,NA,"{""Q0"":""6""}",[0],6,NA,NA
NA,null,html-keyboard-response,136,198250,0.0-31.0-0.0,SS1617983155584,NA,NA,null,NA,NA,NA,NA,NA,"<p><img src= images/blank.png width =""600"" height = ""600"" style=""position:fixed;top:50%; left:50%; transform: translate(-50%, -50%); border:5px solid black"">",NA,NA,NA,NA,NA,NA,NA,NA
NA,1050.8749999571592,sequential-stimulus-presentation-old,137,204309,0.0-31.0-1.0,SS1617983155584,trial,NA,40,500,1550.8749999571592,images/stimuli/spore_stims/complex_06_A_b.gif,images/stimuli/spore_stims/complex_04_A_a.gif,forced_long,NA,11,complex_dissimilar,images/stimuli/spore_stims/complex_04_A_a.gif,NA,NA,NA,NA,NA
NA,null,html-keyboard-response,138,205207,0.0-31.0-0.1,SS1617983155584,NA,NA,null,NA,NA,NA,NA,NA,"<p><img src= images/blank.png width =""600"" height = ""600"" style=""position:fixed;top:50%; left:50%; transform: translate(-50%, -50%); border:5px solid black"">",NA,NA,NA,NA,NA,NA,NA,NA
NA,391.24999986961484,sequential-stimulus-presentation-old,139,206111,0.0-31.0-1.1,SS1617983155584,trial,NA,40,500,891.2499998696148,images/stimuli/spore_stims/complex_06_A_b.gif,images/stimuli/spore_stims/complex_04_A_a.gif,forced_long,NA,11,complex_dissimilar,images/stimuli/spore_stims/complex_04_A_a.gif,NA,NA,NA,NA,NA
NA,null,html-keyboard-response,140,207385,0.0-31.0-0.2,SS1617983155584,NA,NA,null,NA,NA,NA,NA,NA,"<p><img src= images/blank.png width =""600"" height = ""600"" style=""position:fixed;top:50%; left:50%; transform: translate(-50%, -50%); border:5px solid black"">",NA,NA,NA,NA,NA,NA,NA,NA
NA,182.66499997116625,sequential-stimulus-presentation-old,141,208075,0.0-31.0-1.2,SS1617983155584,trial,NA,40,500,682.6649999711663,images/stimuli/spore_stims/complex_06_A_b.gif,images/stimuli/spore_stims/complex_04_A_a.gif,forced_long,NA,11,complex_dissimilar,images/stimuli/spore_stims/complex_06_A_b.gif,NA,NA,NA,NA,NA
NA,null,html-keyboard-response,142,208922,0.0-31.0-0.3,SS1617983155584,NA,NA,null,NA,NA,NA,NA,NA,"<p><img src= images/blank.png width =""600"" height = ""600"" style=""position:fixed;top:50%; left:50%; transform: translate(-50%, -50%); border:5px solid black"">",NA,NA,NA,NA,NA,NA,NA,NA
NA,724.5349998120219,sequential-stimulus-presentation-old,143,210156,0.0-31.0-1.3,SS1617983155584,trial,NA,40,500,1224.5349998120219,images/stimuli/spore_stims/complex_06_A_b.gif,images/stimuli/spore_stims/complex_04_A_a.gif,forced_long,NA,11,complex_dissimilar,images/stimuli/spore_stims/complex_04_A_a.gif,NA,NA,NA,NA,NA
NA,null,html-keyboard-response,144,211448,0.0-31.0-0.4,SS1617983155584,NA,NA,null,NA,NA,NA,NA,NA,"<p><img src= images/blank.png width =""600"" height = ""600"" style=""position:fixed;top:50%; left:50%; transform: translate(-50%, -50%); border:5px solid black"">",NA,NA,NA,NA,NA,NA,NA,NA
NA,312.86499998532236,sequential-stimulus-presentation-old,145,212267,0.0-31.0-1.4,SS1617983155584,trial,NA,40,500,812.8649999853224,images/stimuli/spore_stims/complex_06_A_b.gif,images/stimuli/spore_stims/complex_04_A_a.gif,forced_long,NA,11,complex_dissimilar,images/stimuli/spore_stims/complex_06_A_b.gif,NA,NA,NA,NA,NA
NA,null,html-keyboard-response,146,213392,0.0-31.0-0.5,SS1617983155584,NA,NA,null,NA,NA,NA,NA,NA,"<p><img src= images/blank.png width =""600"" height = ""600"" style=""position:fixed;top:50%; left:50%; transform: translate(-50%, -50%); border:5px solid black"">",NA,NA,NA,NA,NA,NA,NA,NA
NA,405.5649999063462,sequential-stimulus-presentation-old,147,214307,0.0-31.0-1.5,SS1617983155584,trial,NA,40,500,905.5649999063462,images/stimuli/spore_stims/complex_06_A_b.gif,images/stimuli/spore_stims/complex_04_A_a.gif,forced_long,NA,11,complex_dissimilar,images/stimuli/spore_stims/complex_04_A_a.gif,NA,NA,NA,NA,NA
"[{""page_index"":0,""viewing_time"":1372.1749999094754}]",1372.694999910891,instructions,148,215682,0.0-32.0,SS1617983155584,instructions,NA,NA,NA,NA,NA,NA,NA,NA,NA,NA,NA,NA,NA,NA,NA,NA
NA,1594.184999819845,survey-likert,149,217283,0.0-33.0,SS1617983155584,similarity_question,NA,NA,NA,NA,NA,NA,NA,NA,NA,NA,NA,"{""Q0"":3}",[0],NA,images/stimuli/spore_stims/simple_05_A_b.gif,images/stimuli/spore_stims/simple_07_A_a.gif
NA,1032.1549999061972,survey-likert,150,218321,0.0-34.0,SS1617983155584,similarity_question,NA,NA,NA,NA,NA,NA,NA,NA,NA,NA,NA,"{""Q0"":2}",[0],NA,images/stimuli/spore_stims/simple_01_A_b.gif,images/stimuli/spore_stims/simple_10_A_a.gif
NA,1194.0099999774247,survey-likert,151,219521,0.0-35.0,SS1617983155584,similarity_question,NA,NA,NA,NA,NA,NA,NA,NA,NA,NA,NA,"{""Q0"":1}",[0],NA,images/stimuli/spore_stims/simple_06_A_b.gif,images/stimuli/spore_stims/simple_13_A_a.gif
NA,1011.2050001043826,survey-likert,152,220539,0.0-36.0,SS1617983155584,similarity_question,NA,NA,NA,NA,NA,NA,NA,NA,NA,NA,NA,"{""Q0"":4}",[0],NA,images/stimuli/spore_stims/simple_14_A_a.gif,images/stimuli/spore_stims/simple_12_A_b.gif
NA,1129.3150000274181,survey-likert,153,221673,0.0-37.0,SS1617983155584,similarity_question,NA,NA,NA,NA,NA,NA,NA,NA,NA,NA,NA,"{""Q0"":4}",[0],NA,images/stimuli/spore_stims/complex_04_A_b.gif,images/stimuli/spore_stims/complex_17_A_a.gif
NA,1840.935000218451,survey-likert,154,223520,0.0-38.0,SS1617983155584,similarity_question,NA,NA,NA,NA,NA,NA,NA,NA,NA,NA,NA,"{""Q0"":2}",[0],NA,images/stimuli/spore_stims/complex_12_A_b.gif,images/stimuli/spore_stims/complex_09_A_a.gif
NA,1828.2349999062717,survey-likert,155,225354,0.0-39.0,SS1617983155584,similarity_question,NA,NA,NA,NA,NA,NA,NA,NA,NA,NA,NA,"{""Q0"":1}",[0],NA,images/stimuli/spore_stims/complex_01_A_a.gif,images/stimuli/spore_stims/complex_03_A_b.gif
NA,1746.820000000298,survey-likert,156,227106,0.0-40.0,SS1617983155584,similarity_question,NA,NA,NA,NA,NA,NA,NA,NA,NA,NA,NA,"{""Q0"":4}",[0],NA,images/stimuli/spore_stims/simple_03_A_a.gif,images/stimuli/spore_stims/simple_16_A_b.gif
NA,1864.3350000493228,survey-likert,157,228978,0.0-41.0,SS1617983155584,similarity_question,NA,NA,NA,NA,NA,NA,NA,NA,NA,NA,NA,"{""Q0"":1}",[0],NA,images/stimuli/spore_stims/complex_13_A_b.gif,images/stimuli/spore_stims/complex_05_A_a.gif
NA,3385.160000063479,survey-likert,158,232369,0.0-42.0,SS1617983155584,similarity_question,NA,NA,NA,NA,NA,NA,NA,NA,NA,NA,NA,"{""Q0"":1}",[0],NA,images/stimuli/spore_stims/complex_16_A_b.gif,images/stimuli/spore_stims/complex_19_A_a.gif
NA,1441.1899999249727,survey-likert,159,233817,0.0-43.0,SS1617983155584,similarity_question,NA,NA,NA,NA,NA,NA,NA,NA,NA,NA,NA,"{""Q0"":1}",[0],NA,images/stimuli/spore_stims/complex_04_A_a.gif,images/stimuli/spore_stims/complex_06_A_b.gif
NA,3290.7300000078976,survey-likert,160,237113,0.0-44.0,SS1617983155584,similarity_question,NA,NA,NA,NA,NA,NA,NA,NA,NA,NA,NA,"{""Q0"":2}",[0],NA,images/stimuli/spore_stims/simple_20_A_b.gif,images/stimuli/spore_stims/simple_11_A_a.gif
"[{""page_index"":0,""viewing_time"":891.4899998344481}]",892.0649997889996,instructions,161,238010,0.0-45.0,SS1617983155584,instructions,NA,NA,NA,NA,NA,NA,NA,NA,NA,NA,NA,NA,NA,NA,NA,NA
NA,3733.4400000981987,survey-likert,162,241749,0.0-46.0,SS1617983155584,NA,NA,NA,NA,NA,NA,NA,NA,images/stimuli/spore_stims/complex_01_A_a.gif,NA,NA,NA,"{""Q0"":2}",[0],NA,NA,NA
NA,1750.074999872595,survey-likert,163,243505,0.0-47.0,SS1617983155584,NA,NA,NA,NA,NA,NA,NA,NA,images/stimuli/spore_stims/simple_12_A_b.gif,NA,NA,NA,"{""Q0"":2}",[0],NA,NA,NA
NA,939.6999999880791,survey-likert,164,244451,0.0-48.0,SS1617983155584,NA,NA,NA,NA,NA,NA,NA,NA,images/stimuli/spore_stims/complex_13_A_b.gif,NA,NA,NA,"{""Q0"":2}",[0],NA,NA,NA
NA,832.3000001255423,survey-likert,165,245290,0.0-49.0,SS1617983155584,NA,NA,NA,NA,NA,NA,NA,NA,images/stimuli/spore_stims/simple_01_A_b.gif,NA,NA,NA,"{""Q0"":2}",[0],NA,NA,NA
NA,1162.3800001107156,survey-likert,166,246459,0.0-50.0,SS1617983155584,NA,NA,NA,NA,NA,NA,NA,NA,images/stimuli/spore_stims/complex_04_A_a.gif,NA,NA,NA,"{""Q0"":2}",[0],NA,NA,NA
NA,929.6949999406934,survey-likert,167,247395,0.0-51.0,SS1617983155584,NA,NA,NA,NA,NA,NA,NA,NA,images/stimuli/spore_stims/complex_19_A_a.gif,NA,NA,NA,"{""Q0"":4}",[0],NA,NA,NA
NA,999.7050000820309,survey-likert,168,248401,0.0-52.0,SS1617983155584,NA,NA,NA,NA,NA,NA,NA,NA,images/stimuli/spore_stims/simple_03_A_a.gif,NA,NA,NA,"{""Q0"":4}",[0],NA,NA,NA
NA,2635.9650001395494,survey-likert,169,251043,0.0-53.0,SS1617983155584,NA,NA,NA,NA,NA,NA,NA,NA,images/stimuli/spore_stims/complex_04_A_b.gif,NA,NA,NA,"{""Q0"":3}",[0],NA,NA,NA
NA,1359.584999969229,survey-likert,170,252410,0.0-54.0,SS1617983155584,NA,NA,NA,NA,NA,NA,NA,NA,images/stimuli/spore_stims/complex_09_A_a.gif,NA,NA,NA,"{""Q0"":4}",[0],NA,NA,NA
NA,1097.8299998678267,survey-likert,171,253514,0.0-55.0,SS1617983155584,NA,NA,NA,NA,NA,NA,NA,NA,images/stimuli/spore_stims/simple_11_A_a.gif,NA,NA,NA,"{""Q0"":5}",[0],NA,NA,NA
NA,1299.3199999909848,survey-likert,172,254819,0.0-56.0,SS1617983155584,NA,NA,NA,NA,NA,NA,NA,NA,images/stimuli/spore_stims/simple_07_A_a.gif,NA,NA,NA,"{""Q0"":2}",[0],NA,NA,NA
NA,1384.2849999200553,survey-likert,173,256211,0.0-57.0,SS1617983155584,NA,NA,NA,NA,NA,NA,NA,NA,images/stimuli/spore_stims/simple_06_A_b.gif,NA,NA,NA,"{""Q0"":1}",[0],NA,NA,NA
"[{""page_index"":0,""viewing_time"":728.9750000927597}]",729.4750001747161,instructions,174,256946,0.0-58.0,SS1617983155584,instructions,NA,NA,NA,NA,NA,NA,NA,NA,NA,NA,NA,NA,NA,NA,NA,NA
NA,2880.2350000478327,demog-age,175,259834,0.0-59.0,SS1617983155584,NA,NA,NA,NA,NA,NA,NA,NA,NA,NA,NA,NA,"{""age"":""23""}",NA,NA,NA,NA
NA,1560.9299999196082,demog-ethnic-US,176,261403,0.0-60.0,SS1617983155584,NA,NA,NA,NA,NA,NA,NA,NA,NA,NA,NA,NA,"{""ethnicity"":[""Asian""]}",[0],NA,NA,NA
NA,2625.430000014603,demog-gender-and-education,177,264036,0.0-61.0,SS1617983155584,NA,NA,NA,NA,NA,NA,NA,NA,NA,NA,NA,NA,"{""gender"":""Male"",""education"":""High school diploma""}","[0,1]",NA,NA,NA
NA,3501.864999998361,survey-text,178,267547,0.0-62.0,SS1617983155584,feedback,NA,NA,NA,NA,NA,NA,NA,NA,NA,NA,NA,"{""Q0"":""2333""}",NA,NA,NA,NA
"[{""page_index"":0,""viewing_time"":1362.114999908954}]",1362.6149999909103,instructions,179,268914,0.0-63.0,SS1617983155584,instructions,NA,NA,NA,NA,NA,NA,NA,NA,NA,NA,NA,NA,NA,NA,NA,NA
