view_history,rt,trial_type,trial_index,time_elapsed,internal_node_id,subject,stimulus_type,trial_stimulus,key_press,minimum_viewing_duration,trial_looking_time,block_deviant,block_background,stimulus,block_number,block_type,stimulus_displayed,responses,question_order,math_correct_answer,stimulus_left,stimulus_right
"[{""page_index"":0,""viewing_time"":33899.45499994792}]",33900.07500001229,instructions,0,33902,0.0-0.0,SS1614809227590,NA,NA,NA,NA,NA,NA,NA,NA,NA,NA,NA,NA,NA,NA,NA,NA
"[{""page_index"":0,""viewing_time"":12828.370000002906},{""page_index"":1,""viewing_time"":8016.910000005737}]",20845.435000024736,instructions,1,56749,0.0-1.0,SS1614809227590,instructions,NA,NA,NA,NA,NA,NA,NA,NA,NA,NA,NA,NA,NA,NA,NA
NA,8773.309999960475,sequential-stimulus-presentation,2,66126,0.0-2.0,SS1614809227590,NA,NA,40,600,9373.309999960475,null,null,NA,NA,NA,NA,NA,NA,NA,NA,NA
NA,6791.694999905303,sequential-stimulus-presentation,3,73519,0.0-3.0,SS1614809227590,NA,NA,40,600,7391.694999905303,null,null,NA,NA,NA,NA,NA,NA,NA,NA,NA
"[{""page_index"":0,""viewing_time"":5926.600000006147}]",5926.740000024438,instructions,4,79446,0.0-4.0,SS1614809227590,instructions,NA,NA,NA,NA,NA,NA,NA,NA,NA,NA,NA,NA,NA,NA,NA
"[{""page_index"":0,""viewing_time"":13435.880000004545},{""page_index"":1,""viewing_time"":8503.075000015087},{""page_index"":2,""viewing_time"":2168.980000074953},{""page_index"":3,""viewing_time"":1586.974999983795}]",25695.07000001613,instructions,5,105141,0.0-5.0,SS1614809227590,instructions,NA,NA,NA,NA,NA,NA,NA,NA,NA,NA,NA,NA,NA,NA,NA
NA,null,html-keyboard-response,6,105979,0.0-6.0-0.0,SS1614809227590,NA,NA,null,NA,NA,NA,NA,"<p><img src= images/blank.png width =""600"" height = ""600"" style=""border:5px solid black"">",NA,NA,NA,NA,NA,NA,NA,NA
NA,5705.365000059828,sequential-stimulus-presentation,7,112188,0.0-6.0-1.0,SS1614809227590,trial,NA,40,500,6205.365000059828,images/stimuli/spore_stims/complex_17_A_a.gif,images/stimuli/spore_stims/complex_09_B_a.gif,NA,0,complex_dissimilar,images/stimuli/spore_stims/complex_09_B_a.gif,NA,NA,NA,NA,NA
NA,null,html-keyboard-response,8,113483,0.0-6.0-0.1,SS1614809227590,NA,NA,null,NA,NA,NA,NA,"<p><img src= images/blank.png width =""600"" height = ""600"" style=""border:5px solid black"">",NA,NA,NA,NA,NA,NA,NA,NA
NA,4844.709999975748,sequential-stimulus-presentation,9,118831,0.0-6.0-1.1,SS1614809227590,trial,NA,40,500,5344.709999975748,images/stimuli/spore_stims/complex_17_A_a.gif,images/stimuli/spore_stims/complex_09_B_a.gif,NA,0,complex_dissimilar,images/stimuli/spore_stims/complex_09_B_a.gif,NA,NA,NA,NA,NA
NA,null,html-keyboard-response,10,119911,0.0-6.0-0.2,SS1614809227590,NA,NA,null,NA,NA,NA,NA,"<p><img src= images/blank.png width =""600"" height = ""600"" style=""border:5px solid black"">",NA,NA,NA,NA,NA,NA,NA,NA
NA,3808.3150000311434,sequential-stimulus-presentation,11,124223,0.0-6.0-1.2,SS1614809227590,trial,NA,40,500,4308.315000031143,images/stimuli/spore_stims/complex_17_A_a.gif,images/stimuli/spore_stims/complex_09_B_a.gif,NA,0,complex_dissimilar,images/stimuli/spore_stims/complex_09_B_a.gif,NA,NA,NA,NA,NA
NA,null,html-keyboard-response,12,125521,0.0-6.0-0.3,SS1614809227590,NA,NA,null,NA,NA,NA,NA,"<p><img src= images/blank.png width =""600"" height = ""600"" style=""border:5px solid black"">",NA,NA,NA,NA,NA,NA,NA,NA
NA,4393.739999970421,sequential-stimulus-presentation,13,130417,0.0-6.0-1.3,SS1614809227590,trial,NA,40,500,4893.739999970421,images/stimuli/spore_stims/complex_17_A_a.gif,images/stimuli/spore_stims/complex_09_B_a.gif,NA,0,complex_dissimilar,images/stimuli/spore_stims/complex_09_B_a.gif,NA,NA,NA,NA,NA
NA,null,html-keyboard-response,14,131307,0.0-6.0-0.4,SS1614809227590,NA,NA,null,NA,NA,NA,NA,"<p><img src= images/blank.png width =""600"" height = ""600"" style=""border:5px solid black"">",NA,NA,NA,NA,NA,NA,NA,NA
NA,1478.3649999881163,sequential-stimulus-presentation,15,133288,0.0-6.0-1.4,SS1614809227590,trial,NA,40,500,1978.3649999881163,images/stimuli/spore_stims/complex_17_A_a.gif,images/stimuli/spore_stims/complex_09_B_a.gif,NA,0,complex_dissimilar,images/stimuli/spore_stims/complex_09_B_a.gif,NA,NA,NA,NA,NA
NA,null,html-keyboard-response,16,134370,0.0-6.0-0.5,SS1614809227590,NA,NA,null,NA,NA,NA,NA,"<p><img src= images/blank.png width =""600"" height = ""600"" style=""border:5px solid black"">",NA,NA,NA,NA,NA,NA,NA,NA
NA,2849.3550000712276,sequential-stimulus-presentation,17,137723,0.0-6.0-1.5,SS1614809227590,trial,NA,40,500,3349.3550000712276,images/stimuli/spore_stims/complex_17_A_a.gif,images/stimuli/spore_stims/complex_09_B_a.gif,NA,0,complex_dissimilar,images/stimuli/spore_stims/complex_09_B_a.gif,NA,NA,NA,NA,NA
NA,5338.86000001803,survey-multi-choice,18,143064,0.0-7.0,SS1614809227590,math_question,NA,NA,NA,NA,NA,NA,NA,NA,NA,NA,"{""Q0"":""7""}",[0],7,NA,NA
NA,null,html-keyboard-response,19,144283,0.0-8.0-0.0,SS1614809227590,NA,NA,null,NA,NA,NA,NA,"<p><img src= images/blank.png width =""600"" height = ""600"" style=""border:5px solid black"">",NA,NA,NA,NA,NA,NA,NA,NA
NA,3175.2949999645352,sequential-stimulus-presentation,20,147959,0.0-8.0-1.0,SS1614809227590,trial,NA,40,500,3675.2949999645352,images/stimuli/spore_stims/simple_18_A_a.gif,images/stimuli/spore_stims/simple_18_B_a.gif,NA,1,simple_similar,images/stimuli/spore_stims/simple_18_B_a.gif,NA,NA,NA,NA,NA
NA,null,html-keyboard-response,21,149073,0.0-8.0-0.1,SS1614809227590,NA,NA,null,NA,NA,NA,NA,"<p><img src= images/blank.png width =""600"" height = ""600"" style=""border:5px solid black"">",NA,NA,NA,NA,NA,NA,NA,NA
NA,1164.18999992311,sequential-stimulus-presentation,22,150739,0.0-8.0-1.1,SS1614809227590,trial,NA,40,500,1664.18999992311,images/stimuli/spore_stims/simple_18_A_a.gif,images/stimuli/spore_stims/simple_18_B_a.gif,NA,1,simple_similar,images/stimuli/spore_stims/simple_18_B_a.gif,NA,NA,NA,NA,NA
NA,null,html-keyboard-response,23,151738,0.0-8.0-0.2,SS1614809227590,NA,NA,null,NA,NA,NA,NA,"<p><img src= images/blank.png width =""600"" height = ""600"" style=""border:5px solid black"">",NA,NA,NA,NA,NA,NA,NA,NA
NA,3057.5800000224262,sequential-stimulus-presentation,24,155299,0.0-8.0-1.2,SS1614809227590,trial,NA,40,500,3557.5800000224262,images/stimuli/spore_stims/simple_18_A_a.gif,images/stimuli/spore_stims/simple_18_B_a.gif,NA,1,simple_similar,images/stimuli/spore_stims/simple_18_A_a.gif,NA,NA,NA,NA,NA
NA,null,html-keyboard-response,25,156209,0.0-8.0-0.3,SS1614809227590,NA,NA,null,NA,NA,NA,NA,"<p><img src= images/blank.png width =""600"" height = ""600"" style=""border:5px solid black"">",NA,NA,NA,NA,NA,NA,NA,NA
NA,3281.2999999150634,sequential-stimulus-presentation,26,159992,0.0-8.0-1.3,SS1614809227590,trial,NA,40,500,3781.2999999150634,images/stimuli/spore_stims/simple_18_A_a.gif,images/stimuli/spore_stims/simple_18_B_a.gif,NA,1,simple_similar,images/stimuli/spore_stims/simple_18_B_a.gif,NA,NA,NA,NA,NA
NA,null,html-keyboard-response,27,161224,0.0-8.0-0.4,SS1614809227590,NA,NA,null,NA,NA,NA,NA,"<p><img src= images/blank.png width =""600"" height = ""600"" style=""border:5px solid black"">",NA,NA,NA,NA,NA,NA,NA,NA
NA,3434.275000006892,sequential-stimulus-presentation,28,165161,0.0-8.0-1.4,SS1614809227590,trial,NA,40,500,3934.275000006892,images/stimuli/spore_stims/simple_18_A_a.gif,images/stimuli/spore_stims/simple_18_B_a.gif,NA,1,simple_similar,images/stimuli/spore_stims/simple_18_B_a.gif,NA,NA,NA,NA,NA
NA,null,html-keyboard-response,29,165977,0.0-8.0-0.5,SS1614809227590,NA,NA,null,NA,NA,NA,NA,"<p><img src= images/blank.png width =""600"" height = ""600"" style=""border:5px solid black"">",NA,NA,NA,NA,NA,NA,NA,NA
NA,4468.650000053458,sequential-stimulus-presentation,30,170948,0.0-8.0-1.5,SS1614809227590,trial,NA,40,500,4968.650000053458,images/stimuli/spore_stims/simple_18_A_a.gif,images/stimuli/spore_stims/simple_18_B_a.gif,NA,1,simple_similar,images/stimuli/spore_stims/simple_18_A_a.gif,NA,NA,NA,NA,NA
NA,5372.154999990016,survey-multi-choice,31,176322,0.0-9.0,SS1614809227590,math_question,NA,NA,NA,NA,NA,NA,NA,NA,NA,NA,"{""Q0"":""15""}",[0],15,NA,NA
NA,null,html-keyboard-response,32,177378,0.0-10.0-0.0,SS1614809227590,NA,NA,null,NA,NA,NA,NA,"<p><img src= images/blank.png width =""600"" height = ""600"" style=""border:5px solid black"">",NA,NA,NA,NA,NA,NA,NA,NA
NA,4749.214999959804,sequential-stimulus-presentation,33,182629,0.0-10.0-1.0,SS1614809227590,trial,NA,40,500,5249.214999959804,images/stimuli/spore_stims/simple_01_B_c.gif,images/stimuli/spore_stims/simple_01_A_c.gif,NA,2,simple_similar,images/stimuli/spore_stims/simple_01_A_c.gif,NA,NA,NA,NA,NA
NA,null,html-keyboard-response,34,183509,0.0-10.0-0.1,SS1614809227590,NA,NA,null,NA,NA,NA,NA,"<p><img src= images/blank.png width =""600"" height = ""600"" style=""border:5px solid black"">",NA,NA,NA,NA,NA,NA,NA,NA
NA,4044.1450000507757,sequential-stimulus-presentation,35,188055,0.0-10.0-1.1,SS1614809227590,trial,NA,40,500,4544.145000050776,images/stimuli/spore_stims/simple_01_B_c.gif,images/stimuli/spore_stims/simple_01_A_c.gif,NA,2,simple_similar,images/stimuli/spore_stims/simple_01_A_c.gif,NA,NA,NA,NA,NA
NA,null,html-keyboard-response,36,189034,0.0-10.0-0.2,SS1614809227590,NA,NA,null,NA,NA,NA,NA,"<p><img src= images/blank.png width =""600"" height = ""600"" style=""border:5px solid black"">",NA,NA,NA,NA,NA,NA,NA,NA
NA,3165.7150000100955,sequential-stimulus-presentation,37,192702,0.0-10.0-1.2,SS1614809227590,trial,NA,40,500,3665.7150000100955,images/stimuli/spore_stims/simple_01_B_c.gif,images/stimuli/spore_stims/simple_01_A_c.gif,NA,2,simple_similar,images/stimuli/spore_stims/simple_01_A_c.gif,NA,NA,NA,NA,NA
NA,null,html-keyboard-response,38,193892,0.0-10.0-0.3,SS1614809227590,NA,NA,null,NA,NA,NA,NA,"<p><img src= images/blank.png width =""600"" height = ""600"" style=""border:5px solid black"">",NA,NA,NA,NA,NA,NA,NA,NA
NA,6061.4000000059605,sequential-stimulus-presentation,39,200455,0.0-10.0-1.3,SS1614809227590,trial,NA,40,500,6561.4000000059605,images/stimuli/spore_stims/simple_01_B_c.gif,images/stimuli/spore_stims/simple_01_A_c.gif,NA,2,simple_similar,images/stimuli/spore_stims/simple_01_A_c.gif,NA,NA,NA,NA,NA
NA,6393.185000051744,survey-multi-choice,40,206849,0.0-11.0,SS1614809227590,math_question,NA,NA,NA,NA,NA,NA,NA,NA,NA,NA,"{""Q0"":""10""}",[0],10,NA,NA
NA,null,html-keyboard-response,41,208019,0.0-12.0-0.0,SS1614809227590,NA,NA,null,NA,NA,NA,NA,"<p><img src= images/blank.png width =""600"" height = ""600"" style=""border:5px solid black"">",NA,NA,NA,NA,NA,NA,NA,NA
NA,2725.274999975227,sequential-stimulus-presentation,42,211246,0.0-12.0-1.0,SS1614809227590,trial,NA,40,500,3225.274999975227,images/stimuli/spore_stims/complex_08_A_c.gif,images/stimuli/spore_stims/complex_08_B_c.gif,NA,3,complex_similar,images/stimuli/spore_stims/complex_08_B_c.gif,NA,NA,NA,NA,NA
NA,null,html-keyboard-response,43,212499,0.0-12.0-0.1,SS1614809227590,NA,NA,null,NA,NA,NA,NA,"<p><img src= images/blank.png width =""600"" height = ""600"" style=""border:5px solid black"">",NA,NA,NA,NA,NA,NA,NA,NA
NA,2027.6050000684336,sequential-stimulus-presentation,44,215028,0.0-12.0-1.1,SS1614809227590,trial,NA,40,500,2527.6050000684336,images/stimuli/spore_stims/complex_08_A_c.gif,images/stimuli/spore_stims/complex_08_B_c.gif,NA,3,complex_similar,images/stimuli/spore_stims/complex_08_B_c.gif,NA,NA,NA,NA,NA
NA,null,html-keyboard-response,45,216263,0.0-12.0-0.2,SS1614809227590,NA,NA,null,NA,NA,NA,NA,"<p><img src= images/blank.png width =""600"" height = ""600"" style=""border:5px solid black"">",NA,NA,NA,NA,NA,NA,NA,NA
NA,914.1750000417233,sequential-stimulus-presentation,46,217680,0.0-12.0-1.2,SS1614809227590,trial,NA,40,500,1414.1750000417233,images/stimuli/spore_stims/complex_08_A_c.gif,images/stimuli/spore_stims/complex_08_B_c.gif,NA,3,complex_similar,images/stimuli/spore_stims/complex_08_B_c.gif,NA,NA,NA,NA,NA
NA,null,html-keyboard-response,47,218863,0.0-12.0-0.3,SS1614809227590,NA,NA,null,NA,NA,NA,NA,"<p><img src= images/blank.png width =""600"" height = ""600"" style=""border:5px solid black"">",NA,NA,NA,NA,NA,NA,NA,NA
NA,1871.3250000728294,sequential-stimulus-presentation,48,221236,0.0-12.0-1.3,SS1614809227590,trial,NA,40,500,2371.3250000728294,images/stimuli/spore_stims/complex_08_A_c.gif,images/stimuli/spore_stims/complex_08_B_c.gif,NA,3,complex_similar,images/stimuli/spore_stims/complex_08_B_c.gif,NA,NA,NA,NA,NA
NA,null,html-keyboard-response,49,222428,0.0-12.0-0.4,SS1614809227590,NA,NA,null,NA,NA,NA,NA,"<p><img src= images/blank.png width =""600"" height = ""600"" style=""border:5px solid black"">",NA,NA,NA,NA,NA,NA,NA,NA
NA,1983.39000006672,sequential-stimulus-presentation,50,224914,0.0-12.0-1.4,SS1614809227590,trial,NA,40,500,2483.39000006672,images/stimuli/spore_stims/complex_08_A_c.gif,images/stimuli/spore_stims/complex_08_B_c.gif,NA,3,complex_similar,images/stimuli/spore_stims/complex_08_B_c.gif,NA,NA,NA,NA,NA
NA,null,html-keyboard-response,51,226167,0.0-12.0-0.5,SS1614809227590,NA,NA,null,NA,NA,NA,NA,"<p><img src= images/blank.png width =""600"" height = ""600"" style=""border:5px solid black"">",NA,NA,NA,NA,NA,NA,NA,NA
NA,2057.574999984354,sequential-stimulus-presentation,52,228726,0.0-12.0-1.5,SS1614809227590,trial,NA,40,500,2557.574999984354,images/stimuli/spore_stims/complex_08_A_c.gif,images/stimuli/spore_stims/complex_08_B_c.gif,NA,3,complex_similar,images/stimuli/spore_stims/complex_08_B_c.gif,NA,NA,NA,NA,NA
NA,null,html-keyboard-response,53,229837,0.0-12.0-0.6,SS1614809227590,NA,NA,null,NA,NA,NA,NA,"<p><img src= images/blank.png width =""600"" height = ""600"" style=""border:5px solid black"">",NA,NA,NA,NA,NA,NA,NA,NA
NA,1736.200000043027,sequential-stimulus-presentation,54,232076,0.0-12.0-1.6,SS1614809227590,trial,NA,40,500,2236.200000043027,images/stimuli/spore_stims/complex_08_A_c.gif,images/stimuli/spore_stims/complex_08_B_c.gif,NA,3,complex_similar,images/stimuli/spore_stims/complex_08_A_c.gif,NA,NA,NA,NA,NA
NA,3578.4350000321865,survey-multi-choice,55,235656,0.0-13.0,SS1614809227590,math_question,NA,NA,NA,NA,NA,NA,NA,NA,NA,NA,"{""Q0"":""11""}",[0],11,NA,NA
NA,null,html-keyboard-response,56,236461,0.0-14.0-0.0,SS1614809227590,NA,NA,null,NA,NA,NA,NA,"<p><img src= images/blank.png width =""600"" height = ""600"" style=""border:5px solid black"">",NA,NA,NA,NA,NA,NA,NA,NA
NA,3486.5950000239536,sequential-stimulus-presentation,57,240450,0.0-14.0-1.0,SS1614809227590,trial,NA,40,500,3986.5950000239536,images/stimuli/spore_stims/complex_18_B_a.gif,images/stimuli/spore_stims/complex_04_A_d.gif,NA,4,complex_dissimilar,images/stimuli/spore_stims/complex_04_A_d.gif,NA,NA,NA,NA,NA
NA,null,html-keyboard-response,58,241301,0.0-14.0-0.1,SS1614809227590,NA,NA,null,NA,NA,NA,NA,"<p><img src= images/blank.png width =""600"" height = ""600"" style=""border:5px solid black"">",NA,NA,NA,NA,NA,NA,NA,NA
NA,6993.654999998398,sequential-stimulus-presentation,59,248797,0.0-14.0-1.1,SS1614809227590,trial,NA,40,500,7493.654999998398,images/stimuli/spore_stims/complex_18_B_a.gif,images/stimuli/spore_stims/complex_04_A_d.gif,NA,4,complex_dissimilar,images/stimuli/spore_stims/complex_04_A_d.gif,NA,NA,NA,NA,NA
NA,null,html-keyboard-response,60,249611,0.0-14.0-0.2,SS1614809227590,NA,NA,null,NA,NA,NA,NA,"<p><img src= images/blank.png width =""600"" height = ""600"" style=""border:5px solid black"">",NA,NA,NA,NA,NA,NA,NA,NA
NA,1346.6450000414625,sequential-stimulus-presentation,61,251460,0.0-14.0-1.2,SS1614809227590,trial,NA,40,500,1846.6450000414625,images/stimuli/spore_stims/complex_18_B_a.gif,images/stimuli/spore_stims/complex_04_A_d.gif,NA,4,complex_dissimilar,images/stimuli/spore_stims/complex_04_A_d.gif,NA,NA,NA,NA,NA
NA,null,html-keyboard-response,62,252370,0.0-14.0-0.3,SS1614809227590,NA,NA,null,NA,NA,NA,NA,"<p><img src= images/blank.png width =""600"" height = ""600"" style=""border:5px solid black"">",NA,NA,NA,NA,NA,NA,NA,NA
NA,5873.3200000133365,sequential-stimulus-presentation,63,258745,0.0-14.0-1.3,SS1614809227590,trial,NA,40,500,6373.3200000133365,images/stimuli/spore_stims/complex_18_B_a.gif,images/stimuli/spore_stims/complex_04_A_d.gif,NA,4,complex_dissimilar,images/stimuli/spore_stims/complex_18_B_a.gif,NA,NA,NA,NA,NA
NA,null,html-keyboard-response,64,259915,0.0-14.0-0.4,SS1614809227590,NA,NA,null,NA,NA,NA,NA,"<p><img src= images/blank.png width =""600"" height = ""600"" style=""border:5px solid black"">",NA,NA,NA,NA,NA,NA,NA,NA
NA,1271.7699999921024,sequential-stimulus-presentation,65,261690,0.0-14.0-1.4,SS1614809227590,trial,NA,40,500,1771.7699999921024,images/stimuli/spore_stims/complex_18_B_a.gif,images/stimuli/spore_stims/complex_04_A_d.gif,NA,4,complex_dissimilar,images/stimuli/spore_stims/complex_18_B_a.gif,NA,NA,NA,NA,NA
NA,null,html-keyboard-response,66,262626,0.0-14.0-0.5,SS1614809227590,NA,NA,null,NA,NA,NA,NA,"<p><img src= images/blank.png width =""600"" height = ""600"" style=""border:5px solid black"">",NA,NA,NA,NA,NA,NA,NA,NA
NA,2333.1050000851974,sequential-stimulus-presentation,67,265461,0.0-14.0-1.5,SS1614809227590,trial,NA,40,500,2833.1050000851974,images/stimuli/spore_stims/complex_18_B_a.gif,images/stimuli/spore_stims/complex_04_A_d.gif,NA,4,complex_dissimilar,images/stimuli/spore_stims/complex_04_A_d.gif,NA,NA,NA,NA,NA
NA,4502.665000036359,survey-multi-choice,68,269965,0.0-15.0,SS1614809227590,math_question,NA,NA,NA,NA,NA,NA,NA,NA,NA,NA,"{""Q0"":""15""}",[0],15,NA,NA
NA,null,html-keyboard-response,69,271190,0.0-16.0-0.0,SS1614809227590,NA,NA,null,NA,NA,NA,NA,"<p><img src= images/blank.png width =""600"" height = ""600"" style=""border:5px solid black"">",NA,NA,NA,NA,NA,NA,NA,NA
NA,2443.5250000096858,sequential-stimulus-presentation,70,274136,0.0-16.0-1.0,SS1614809227590,trial,NA,40,500,2943.5250000096858,images/stimuli/spore_stims/simple_19_B_b.gif,images/stimuli/spore_stims/simple_07_B_a.gif,NA,5,simple_dissimilar,images/stimuli/spore_stims/simple_07_B_a.gif,NA,NA,NA,NA,NA
NA,null,html-keyboard-response,71,275197,0.0-16.0-0.1,SS1614809227590,NA,NA,null,NA,NA,NA,NA,"<p><img src= images/blank.png width =""600"" height = ""600"" style=""border:5px solid black"">",NA,NA,NA,NA,NA,NA,NA,NA
NA,1621.1650000186637,sequential-stimulus-presentation,72,277321,0.0-16.0-1.1,SS1614809227590,trial,NA,40,500,2121.1650000186637,images/stimuli/spore_stims/simple_19_B_b.gif,images/stimuli/spore_stims/simple_07_B_a.gif,NA,5,simple_dissimilar,images/stimuli/spore_stims/simple_07_B_a.gif,NA,NA,NA,NA,NA
NA,null,html-keyboard-response,73,278168,0.0-16.0-0.2,SS1614809227590,NA,NA,null,NA,NA,NA,NA,"<p><img src= images/blank.png width =""600"" height = ""600"" style=""border:5px solid black"">",NA,NA,NA,NA,NA,NA,NA,NA
NA,2146.145000006072,sequential-stimulus-presentation,74,280817,0.0-16.0-1.2,SS1614809227590,trial,NA,40,500,2646.145000006072,images/stimuli/spore_stims/simple_19_B_b.gif,images/stimuli/spore_stims/simple_07_B_a.gif,NA,5,simple_dissimilar,images/stimuli/spore_stims/simple_07_B_a.gif,NA,NA,NA,NA,NA
NA,null,html-keyboard-response,75,281708,0.0-16.0-0.3,SS1614809227590,NA,NA,null,NA,NA,NA,NA,"<p><img src= images/blank.png width =""600"" height = ""600"" style=""border:5px solid black"">",NA,NA,NA,NA,NA,NA,NA,NA
NA,1661.1350000603124,sequential-stimulus-presentation,76,283872,0.0-16.0-1.3,SS1614809227590,trial,NA,40,500,2161.1350000603124,images/stimuli/spore_stims/simple_19_B_b.gif,images/stimuli/spore_stims/simple_07_B_a.gif,NA,5,simple_dissimilar,images/stimuli/spore_stims/simple_07_B_a.gif,NA,NA,NA,NA,NA
NA,null,html-keyboard-response,77,285157,0.0-16.0-0.4,SS1614809227590,NA,NA,null,NA,NA,NA,NA,"<p><img src= images/blank.png width =""600"" height = ""600"" style=""border:5px solid black"">",NA,NA,NA,NA,NA,NA,NA,NA
NA,1847.550000064075,sequential-stimulus-presentation,78,287507,0.0-16.0-1.4,SS1614809227590,trial,NA,40,500,2347.550000064075,images/stimuli/spore_stims/simple_19_B_b.gif,images/stimuli/spore_stims/simple_07_B_a.gif,NA,5,simple_dissimilar,images/stimuli/spore_stims/simple_07_B_a.gif,NA,NA,NA,NA,NA
NA,null,html-keyboard-response,79,288464,0.0-16.0-0.5,SS1614809227590,NA,NA,null,NA,NA,NA,NA,"<p><img src= images/blank.png width =""600"" height = ""600"" style=""border:5px solid black"">",NA,NA,NA,NA,NA,NA,NA,NA
NA,3250.1700000138953,sequential-stimulus-presentation,80,292216,0.0-16.0-1.5,SS1614809227590,trial,NA,40,500,3750.1700000138953,images/stimuli/spore_stims/simple_19_B_b.gif,images/stimuli/spore_stims/simple_07_B_a.gif,NA,5,simple_dissimilar,images/stimuli/spore_stims/simple_19_B_b.gif,NA,NA,NA,NA,NA
NA,3534.8099999828264,survey-multi-choice,81,295752,0.0-17.0,SS1614809227590,math_question,NA,NA,NA,NA,NA,NA,NA,NA,NA,NA,"{""Q0"":""13""}",[0],13,NA,NA
NA,null,html-keyboard-response,82,296752,0.0-18.0-0.0,SS1614809227590,NA,NA,null,NA,NA,NA,NA,"<p><img src= images/blank.png width =""600"" height = ""600"" style=""border:5px solid black"">",NA,NA,NA,NA,NA,NA,NA,NA
NA,3749.485000036657,sequential-stimulus-presentation,83,301005,0.0-18.0-1.0,SS1614809227590,trial,NA,40,500,4249.485000036657,images/stimuli/spore_stims/simple_17_B_c.gif,images/stimuli/spore_stims/simple_04_A_c.gif,NA,6,simple_dissimilar,images/stimuli/spore_stims/simple_04_A_c.gif,NA,NA,NA,NA,NA
NA,null,html-keyboard-response,84,301880,0.0-18.0-0.1,SS1614809227590,NA,NA,null,NA,NA,NA,NA,"<p><img src= images/blank.png width =""600"" height = ""600"" style=""border:5px solid black"">",NA,NA,NA,NA,NA,NA,NA,NA
NA,1199.1449999623,sequential-stimulus-presentation,85,303582,0.0-18.0-1.1,SS1614809227590,trial,NA,40,500,1699.1449999623,images/stimuli/spore_stims/simple_17_B_c.gif,images/stimuli/spore_stims/simple_04_A_c.gif,NA,6,simple_dissimilar,images/stimuli/spore_stims/simple_04_A_c.gif,NA,NA,NA,NA,NA
NA,null,html-keyboard-response,86,304521,0.0-18.0-0.2,SS1614809227590,NA,NA,null,NA,NA,NA,NA,"<p><img src= images/blank.png width =""600"" height = ""600"" style=""border:5px solid black"">",NA,NA,NA,NA,NA,NA,NA,NA
NA,1933.6599999805912,sequential-stimulus-presentation,87,306957,0.0-18.0-1.2,SS1614809227590,trial,NA,40,500,2433.6599999805912,images/stimuli/spore_stims/simple_17_B_c.gif,images/stimuli/spore_stims/simple_04_A_c.gif,NA,6,simple_dissimilar,images/stimuli/spore_stims/simple_04_A_c.gif,NA,NA,NA,NA,NA
NA,null,html-keyboard-response,88,308249,0.0-18.0-0.3,SS1614809227590,NA,NA,null,NA,NA,NA,NA,"<p><img src= images/blank.png width =""600"" height = ""600"" style=""border:5px solid black"">",NA,NA,NA,NA,NA,NA,NA,NA
NA,5239.585000090301,sequential-stimulus-presentation,89,313990,0.0-18.0-1.3,SS1614809227590,trial,NA,40,500,5739.585000090301,images/stimuli/spore_stims/simple_17_B_c.gif,images/stimuli/spore_stims/simple_04_A_c.gif,NA,6,simple_dissimilar,images/stimuli/spore_stims/simple_17_B_c.gif,NA,NA,NA,NA,NA
NA,null,html-keyboard-response,90,315143,0.0-18.0-0.4,SS1614809227590,NA,NA,null,NA,NA,NA,NA,"<p><img src= images/blank.png width =""600"" height = ""600"" style=""border:5px solid black"">",NA,NA,NA,NA,NA,NA,NA,NA
NA,865.3400000184774,sequential-stimulus-presentation,91,316511,0.0-18.0-1.4,SS1614809227590,trial,NA,40,500,1365.3400000184774,images/stimuli/spore_stims/simple_17_B_c.gif,images/stimuli/spore_stims/simple_04_A_c.gif,NA,6,simple_dissimilar,images/stimuli/spore_stims/simple_04_A_c.gif,NA,NA,NA,NA,NA
NA,4113.819999969564,survey-multi-choice,92,320627,0.0-19.0,SS1614809227590,math_question,NA,NA,NA,NA,NA,NA,NA,NA,NA,NA,"{""Q0"":""8""}",[0],8,NA,NA
NA,null,html-keyboard-response,93,321559,0.0-20.0-0.0,SS1614809227590,NA,NA,null,NA,NA,NA,NA,"<p><img src= images/blank.png width =""600"" height = ""600"" style=""border:5px solid black"">",NA,NA,NA,NA,NA,NA,NA,NA
NA,1865.2599999913946,sequential-stimulus-presentation,94,323927,0.0-20.0-1.0,SS1614809227590,trial,NA,40,500,2365.2599999913946,images/stimuli/spore_stims/simple_08_B_d.gif,images/stimuli/spore_stims/simple_19_A_c.gif,NA,7,simple_dissimilar,images/stimuli/spore_stims/simple_19_A_c.gif,NA,NA,NA,NA,NA
NA,null,html-keyboard-response,95,324790,0.0-20.0-0.1,SS1614809227590,NA,NA,null,NA,NA,NA,NA,"<p><img src= images/blank.png width =""600"" height = ""600"" style=""border:5px solid black"">",NA,NA,NA,NA,NA,NA,NA,NA
NA,1586.479999939911,sequential-stimulus-presentation,96,326878,0.0-20.0-1.1,SS1614809227590,trial,NA,40,500,2086.479999939911,images/stimuli/spore_stims/simple_08_B_d.gif,images/stimuli/spore_stims/simple_19_A_c.gif,NA,7,simple_dissimilar,images/stimuli/spore_stims/simple_19_A_c.gif,NA,NA,NA,NA,NA
NA,null,html-keyboard-response,97,327868,0.0-20.0-0.2,SS1614809227590,NA,NA,null,NA,NA,NA,NA,"<p><img src= images/blank.png width =""600"" height = ""600"" style=""border:5px solid black"">",NA,NA,NA,NA,NA,NA,NA,NA
NA,654.1649999562651,sequential-stimulus-presentation,98,329024,0.0-20.0-1.2,SS1614809227590,trial,NA,40,500,1154.164999956265,images/stimuli/spore_stims/simple_08_B_d.gif,images/stimuli/spore_stims/simple_19_A_c.gif,NA,7,simple_dissimilar,images/stimuli/spore_stims/simple_19_A_c.gif,NA,NA,NA,NA,NA
NA,null,html-keyboard-response,99,330210,0.0-20.0-0.3,SS1614809227590,NA,NA,null,NA,NA,NA,NA,"<p><img src= images/blank.png width =""600"" height = ""600"" style=""border:5px solid black"">",NA,NA,NA,NA,NA,NA,NA,NA
NA,3318.085000035353,sequential-stimulus-presentation,100,334030,0.0-20.0-1.3,SS1614809227590,trial,NA,40,500,3818.085000035353,images/stimuli/spore_stims/simple_08_B_d.gif,images/stimuli/spore_stims/simple_19_A_c.gif,NA,7,simple_dissimilar,images/stimuli/spore_stims/simple_08_B_d.gif,NA,NA,NA,NA,NA
NA,null,html-keyboard-response,101,334906,0.0-20.0-0.4,SS1614809227590,NA,NA,null,NA,NA,NA,NA,"<p><img src= images/blank.png width =""600"" height = ""600"" style=""border:5px solid black"">",NA,NA,NA,NA,NA,NA,NA,NA
NA,1517.4400000832975,sequential-stimulus-presentation,102,336927,0.0-20.0-1.4,SS1614809227590,trial,NA,40,500,2017.4400000832975,images/stimuli/spore_stims/simple_08_B_d.gif,images/stimuli/spore_stims/simple_19_A_c.gif,NA,7,simple_dissimilar,images/stimuli/spore_stims/simple_08_B_d.gif,NA,NA,NA,NA,NA
NA,3636.999999987893,survey-multi-choice,103,340567,0.0-21.0,SS1614809227590,math_question,NA,NA,NA,NA,NA,NA,NA,NA,NA,NA,"{""Q0"":""10""}",[0],10,NA,NA
NA,null,html-keyboard-response,104,341799,0.0-22.0-0.0,SS1614809227590,NA,NA,null,NA,NA,NA,NA,"<p><img src= images/blank.png width =""600"" height = ""600"" style=""border:5px solid black"">",NA,NA,NA,NA,NA,NA,NA,NA
NA,1223.1250000186265,sequential-stimulus-presentation,105,343525,0.0-22.0-1.0,SS1614809227590,trial,NA,40,500,1723.1250000186265,images/stimuli/spore_stims/complex_19_A_b.gif,images/stimuli/spore_stims/complex_19_B_b.gif,NA,8,complex_similar,images/stimuli/spore_stims/complex_19_B_b.gif,NA,NA,NA,NA,NA
NA,null,html-keyboard-response,106,344525,0.0-22.0-0.1,SS1614809227590,NA,NA,null,NA,NA,NA,NA,"<p><img src= images/blank.png width =""600"" height = ""600"" style=""border:5px solid black"">",NA,NA,NA,NA,NA,NA,NA,NA
NA,1212.0799999684095,sequential-stimulus-presentation,107,346242,0.0-22.0-1.1,SS1614809227590,trial,NA,40,500,1712.0799999684095,images/stimuli/spore_stims/complex_19_A_b.gif,images/stimuli/spore_stims/complex_19_B_b.gif,NA,8,complex_similar,images/stimuli/spore_stims/complex_19_B_b.gif,NA,NA,NA,NA,NA
NA,null,html-keyboard-response,108,347270,0.0-22.0-0.2,SS1614809227590,NA,NA,null,NA,NA,NA,NA,"<p><img src= images/blank.png width =""600"" height = ""600"" style=""border:5px solid black"">",NA,NA,NA,NA,NA,NA,NA,NA
NA,3328.459999989718,sequential-stimulus-presentation,109,351101,0.0-22.0-1.2,SS1614809227590,trial,NA,40,500,3828.459999989718,images/stimuli/spore_stims/complex_19_A_b.gif,images/stimuli/spore_stims/complex_19_B_b.gif,NA,8,complex_similar,images/stimuli/spore_stims/complex_19_A_b.gif,NA,NA,NA,NA,NA
NA,null,html-keyboard-response,110,352113,0.0-22.0-0.3,SS1614809227590,NA,NA,null,NA,NA,NA,NA,"<p><img src= images/blank.png width =""600"" height = ""600"" style=""border:5px solid black"">",NA,NA,NA,NA,NA,NA,NA,NA
NA,1259.0799999888986,sequential-stimulus-presentation,111,353876,0.0-22.0-1.3,SS1614809227590,trial,NA,40,500,1759.0799999888986,images/stimuli/spore_stims/complex_19_A_b.gif,images/stimuli/spore_stims/complex_19_B_b.gif,NA,8,complex_similar,images/stimuli/spore_stims/complex_19_B_b.gif,NA,NA,NA,NA,NA
NA,3556.99499999173,survey-multi-choice,112,357435,0.0-23.0,SS1614809227590,math_question,NA,NA,NA,NA,NA,NA,NA,NA,NA,NA,"{""Q0"":""15""}",[0],15,NA,NA
NA,null,html-keyboard-response,113,358534,0.0-24.0-0.0,SS1614809227590,NA,NA,null,NA,NA,NA,NA,"<p><img src= images/blank.png width =""600"" height = ""600"" style=""border:5px solid black"">",NA,NA,NA,NA,NA,NA,NA,NA
NA,1178.0799999833107,sequential-stimulus-presentation,114,360216,0.0-24.0-1.0,SS1614809227590,trial,NA,40,500,1678.0799999833107,images/stimuli/spore_stims/complex_13_B_c.gif,images/stimuli/spore_stims/complex_17_B_b.gif,NA,9,complex_dissimilar,images/stimuli/spore_stims/complex_17_B_b.gif,NA,NA,NA,NA,NA
NA,null,html-keyboard-response,115,361357,0.0-24.0-0.1,SS1614809227590,NA,NA,null,NA,NA,NA,NA,"<p><img src= images/blank.png width =""600"" height = ""600"" style=""border:5px solid black"">",NA,NA,NA,NA,NA,NA,NA,NA
NA,1163.2599999429658,sequential-stimulus-presentation,116,363024,0.0-24.0-1.1,SS1614809227590,trial,NA,40,500,1663.2599999429658,images/stimuli/spore_stims/complex_13_B_c.gif,images/stimuli/spore_stims/complex_17_B_b.gif,NA,9,complex_dissimilar,images/stimuli/spore_stims/complex_17_B_b.gif,NA,NA,NA,NA,NA
NA,null,html-keyboard-response,117,364075,0.0-24.0-0.2,SS1614809227590,NA,NA,null,NA,NA,NA,NA,"<p><img src= images/blank.png width =""600"" height = ""600"" style=""border:5px solid black"">",NA,NA,NA,NA,NA,NA,NA,NA
NA,1309.0350000420585,sequential-stimulus-presentation,118,365886,0.0-24.0-1.2,SS1614809227590,trial,NA,40,500,1809.0350000420585,images/stimuli/spore_stims/complex_13_B_c.gif,images/stimuli/spore_stims/complex_17_B_b.gif,NA,9,complex_dissimilar,images/stimuli/spore_stims/complex_17_B_b.gif,NA,NA,NA,NA,NA
NA,null,html-keyboard-response,119,367103,0.0-24.0-0.3,SS1614809227590,NA,NA,null,NA,NA,NA,NA,"<p><img src= images/blank.png width =""600"" height = ""600"" style=""border:5px solid black"">",NA,NA,NA,NA,NA,NA,NA,NA
NA,1301.0200000135228,sequential-stimulus-presentation,120,368907,0.0-24.0-1.3,SS1614809227590,trial,NA,40,500,1801.0200000135228,images/stimuli/spore_stims/complex_13_B_c.gif,images/stimuli/spore_stims/complex_17_B_b.gif,NA,9,complex_dissimilar,images/stimuli/spore_stims/complex_17_B_b.gif,NA,NA,NA,NA,NA
NA,null,html-keyboard-response,121,369866,0.0-24.0-0.4,SS1614809227590,NA,NA,null,NA,NA,NA,NA,"<p><img src= images/blank.png width =""600"" height = ""600"" style=""border:5px solid black"">",NA,NA,NA,NA,NA,NA,NA,NA
NA,1610.5449999449775,sequential-stimulus-presentation,122,371979,0.0-24.0-1.4,SS1614809227590,trial,NA,40,500,2110.5449999449775,images/stimuli/spore_stims/complex_13_B_c.gif,images/stimuli/spore_stims/complex_17_B_b.gif,NA,9,complex_dissimilar,images/stimuli/spore_stims/complex_13_B_c.gif,NA,NA,NA,NA,NA
NA,3634.3000000342727,survey-multi-choice,123,375615,0.0-25.0,SS1614809227590,math_question,NA,NA,NA,NA,NA,NA,NA,NA,NA,NA,"{""Q0"":""11""}",[0],11,NA,NA
NA,null,html-keyboard-response,124,376836,0.0-26.0-0.0,SS1614809227590,NA,NA,null,NA,NA,NA,NA,"<p><img src= images/blank.png width =""600"" height = ""600"" style=""border:5px solid black"">",NA,NA,NA,NA,NA,NA,NA,NA
NA,3074.0249999798834,sequential-stimulus-presentation,125,380414,0.0-26.0-1.0,SS1614809227590,trial,NA,40,500,3574.0249999798834,images/stimuli/spore_stims/complex_15_A_d.gif,images/stimuli/spore_stims/complex_15_B_d.gif,NA,10,complex_similar,images/stimuli/spore_stims/complex_15_B_d.gif,NA,NA,NA,NA,NA
NA,null,html-keyboard-response,126,381499,0.0-26.0-0.1,SS1614809227590,NA,NA,null,NA,NA,NA,NA,"<p><img src= images/blank.png width =""600"" height = ""600"" style=""border:5px solid black"">",NA,NA,NA,NA,NA,NA,NA,NA
NA,695.0400000205263,sequential-stimulus-presentation,127,382697,0.0-26.0-1.1,SS1614809227590,trial,NA,40,500,1195.0400000205263,images/stimuli/spore_stims/complex_15_A_d.gif,images/stimuli/spore_stims/complex_15_B_d.gif,NA,10,complex_similar,images/stimuli/spore_stims/complex_15_B_d.gif,NA,NA,NA,NA,NA
NA,null,html-keyboard-response,128,383855,0.0-26.0-0.2,SS1614809227590,NA,NA,null,NA,NA,NA,NA,"<p><img src= images/blank.png width =""600"" height = ""600"" style=""border:5px solid black"">",NA,NA,NA,NA,NA,NA,NA,NA
NA,809.5399999292567,sequential-stimulus-presentation,129,385167,0.0-26.0-1.2,SS1614809227590,trial,NA,40,500,1309.5399999292567,images/stimuli/spore_stims/complex_15_A_d.gif,images/stimuli/spore_stims/complex_15_B_d.gif,NA,10,complex_similar,images/stimuli/spore_stims/complex_15_A_d.gif,NA,NA,NA,NA,NA
NA,null,html-keyboard-response,130,386370,0.0-26.0-0.3,SS1614809227590,NA,NA,null,NA,NA,NA,NA,"<p><img src= images/blank.png width =""600"" height = ""600"" style=""border:5px solid black"">",NA,NA,NA,NA,NA,NA,NA,NA
NA,1003.1099999323487,sequential-stimulus-presentation,131,387875,0.0-26.0-1.3,SS1614809227590,trial,NA,40,500,1503.1099999323487,images/stimuli/spore_stims/complex_15_A_d.gif,images/stimuli/spore_stims/complex_15_B_d.gif,NA,10,complex_similar,images/stimuli/spore_stims/complex_15_B_d.gif,NA,NA,NA,NA,NA
NA,null,html-keyboard-response,132,389059,0.0-26.0-0.4,SS1614809227590,NA,NA,null,NA,NA,NA,NA,"<p><img src= images/blank.png width =""600"" height = ""600"" style=""border:5px solid black"">",NA,NA,NA,NA,NA,NA,NA,NA
NA,719.0450000343844,sequential-stimulus-presentation,133,390282,0.0-26.0-1.4,SS1614809227590,trial,NA,40,500,1219.0450000343844,images/stimuli/spore_stims/complex_15_A_d.gif,images/stimuli/spore_stims/complex_15_B_d.gif,NA,10,complex_similar,images/stimuli/spore_stims/complex_15_B_d.gif,NA,NA,NA,NA,NA
NA,null,html-keyboard-response,134,391342,0.0-26.0-0.5,SS1614809227590,NA,NA,null,NA,NA,NA,NA,"<p><img src= images/blank.png width =""600"" height = ""600"" style=""border:5px solid black"">",NA,NA,NA,NA,NA,NA,NA,NA
NA,352.04499994870275,sequential-stimulus-presentation,135,392197,0.0-26.0-1.5,SS1614809227590,trial,NA,40,500,852.0449999487028,images/stimuli/spore_stims/complex_15_A_d.gif,images/stimuli/spore_stims/complex_15_B_d.gif,NA,10,complex_similar,images/stimuli/spore_stims/complex_15_A_d.gif,NA,NA,NA,NA,NA
NA,6158.490000059828,survey-multi-choice,136,398358,0.0-27.0,SS1614809227590,math_question,NA,NA,NA,NA,NA,NA,NA,NA,NA,NA,"{""Q0"":""15""}",[0],15,NA,NA
NA,null,html-keyboard-response,137,399491,0.0-28.0-0.0,SS1614809227590,NA,NA,null,NA,NA,NA,NA,"<p><img src= images/blank.png width =""600"" height = ""600"" style=""border:5px solid black"">",NA,NA,NA,NA,NA,NA,NA,NA
NA,766.8900000862777,sequential-stimulus-presentation,138,400763,0.0-28.0-1.0,SS1614809227590,trial,NA,40,500,1266.8900000862777,images/stimuli/spore_stims/simple_15_B_a.gif,images/stimuli/spore_stims/simple_15_A_a.gif,NA,11,simple_similar,images/stimuli/spore_stims/simple_15_A_a.gif,NA,NA,NA,NA,NA
NA,null,html-keyboard-response,139,402013,0.0-28.0-0.1,SS1614809227590,NA,NA,null,NA,NA,NA,NA,"<p><img src= images/blank.png width =""600"" height = ""600"" style=""border:5px solid black"">",NA,NA,NA,NA,NA,NA,NA,NA
NA,513.0050000734627,sequential-stimulus-presentation,140,403028,0.0-28.0-1.1,SS1614809227590,trial,NA,40,500,1013.0050000734627,images/stimuli/spore_stims/simple_15_B_a.gif,images/stimuli/spore_stims/simple_15_A_a.gif,NA,11,simple_similar,images/stimuli/spore_stims/simple_15_A_a.gif,NA,NA,NA,NA,NA
NA,null,html-keyboard-response,141,403980,0.0-28.0-0.2,SS1614809227590,NA,NA,null,NA,NA,NA,NA,"<p><img src= images/blank.png width =""600"" height = ""600"" style=""border:5px solid black"">",NA,NA,NA,NA,NA,NA,NA,NA
NA,441.03999994695187,sequential-stimulus-presentation,142,404924,0.0-28.0-1.2,SS1614809227590,trial,NA,40,500,941.0399999469519,images/stimuli/spore_stims/simple_15_B_a.gif,images/stimuli/spore_stims/simple_15_A_a.gif,NA,11,simple_similar,images/stimuli/spore_stims/simple_15_B_a.gif,NA,NA,NA,NA,NA
NA,null,html-keyboard-response,143,406132,0.0-28.0-0.3,SS1614809227590,NA,NA,null,NA,NA,NA,NA,"<p><img src= images/blank.png width =""600"" height = ""600"" style=""border:5px solid black"">",NA,NA,NA,NA,NA,NA,NA,NA
NA,98.05999998934567,sequential-stimulus-presentation,144,406733,0.0-28.0-1.3,SS1614809227590,trial,NA,40,500,598.0599999893457,images/stimuli/spore_stims/simple_15_B_a.gif,images/stimuli/spore_stims/simple_15_A_a.gif,NA,11,simple_similar,images/stimuli/spore_stims/simple_15_A_a.gif,NA,NA,NA,NA,NA
NA,null,html-keyboard-response,145,407777,0.0-28.0-0.4,SS1614809227590,NA,NA,null,NA,NA,NA,NA,"<p><img src= images/blank.png width =""600"" height = ""600"" style=""border:5px solid black"">",NA,NA,NA,NA,NA,NA,NA,NA
NA,939.3900000723079,sequential-stimulus-presentation,146,409221,0.0-28.0-1.4,SS1614809227590,trial,NA,40,500,1439.3900000723079,images/stimuli/spore_stims/simple_15_B_a.gif,images/stimuli/spore_stims/simple_15_A_a.gif,NA,11,simple_similar,images/stimuli/spore_stims/simple_15_A_a.gif,NA,NA,NA,NA,NA
"[{""page_index"":0,""viewing_time"":7738.175000064075}]",7738.6549999937415,instructions,147,416962,0.0-29.0,SS1614809227590,instructions,NA,NA,NA,NA,NA,NA,NA,NA,NA,NA,NA,NA,NA,NA,NA
NA,21191.49999995716,survey-likert,148,438157,0.0-30.0,SS1614809227590,similarity_question,NA,NA,NA,NA,NA,NA,NA,NA,NA,NA,"{""Q0"":5}",[0],NA,images/stimuli/spore_stims/complex_15_B_d.gif,images/stimuli/spore_stims/complex_15_A_d.gif
NA,9292.550000012852,survey-likert,149,447453,0.0-31.0,SS1614809227590,similarity_question,NA,NA,NA,NA,NA,NA,NA,NA,NA,NA,"{""Q0"":6}",[0],NA,images/stimuli/spore_stims/complex_08_B_c.gif,images/stimuli/spore_stims/complex_08_A_c.gif
NA,6987.300000037067,survey-likert,150,454444,0.0-32.0,SS1614809227590,similarity_question,NA,NA,NA,NA,NA,NA,NA,NA,NA,NA,"{""Q0"":1}",[0],NA,images/stimuli/spore_stims/simple_19_B_b.gif,images/stimuli/spore_stims/simple_07_B_a.gif
NA,7315.429999958724,survey-likert,151,461762,0.0-33.0,SS1614809227590,similarity_question,NA,NA,NA,NA,NA,NA,NA,NA,NA,NA,"{""Q0"":5}",[0],NA,images/stimuli/spore_stims/complex_19_A_b.gif,images/stimuli/spore_stims/complex_19_B_b.gif
NA,4871.299999998882,survey-likert,152,466636,0.0-34.0,SS1614809227590,similarity_question,NA,NA,NA,NA,NA,NA,NA,NA,NA,NA,"{""Q0"":6}",[0],NA,images/stimuli/spore_stims/simple_18_B_a.gif,images/stimuli/spore_stims/simple_18_A_a.gif
NA,5766.560000018217,survey-likert,153,472406,0.0-35.0,SS1614809227590,similarity_question,NA,NA,NA,NA,NA,NA,NA,NA,NA,NA,"{""Q0"":0}",[0],NA,images/stimuli/spore_stims/complex_17_A_a.gif,images/stimuli/spore_stims/complex_09_B_a.gif
NA,5774.704999988899,survey-likert,154,478184,0.0-36.0,SS1614809227590,similarity_question,NA,NA,NA,NA,NA,NA,NA,NA,NA,NA,"{""Q0"":6}",[0],NA,images/stimuli/spore_stims/simple_15_B_a.gif,images/stimuli/spore_stims/simple_15_A_a.gif
NA,6016.52499998454,survey-likert,155,484203,0.0-37.0,SS1614809227590,similarity_question,NA,NA,NA,NA,NA,NA,NA,NA,NA,NA,"{""Q0"":0}",[0],NA,images/stimuli/spore_stims/complex_13_B_c.gif,images/stimuli/spore_stims/complex_17_B_b.gif
NA,3847.6499998942018,survey-likert,156,488053,0.0-38.0,SS1614809227590,similarity_question,NA,NA,NA,NA,NA,NA,NA,NA,NA,NA,"{""Q0"":0}",[0],NA,images/stimuli/spore_stims/complex_04_A_d.gif,images/stimuli/spore_stims/complex_18_B_a.gif
NA,6428.015000070445,survey-likert,157,494484,0.0-39.0,SS1614809227590,similarity_question,NA,NA,NA,NA,NA,NA,NA,NA,NA,NA,"{""Q0"":4}",[0],NA,images/stimuli/spore_stims/simple_19_A_c.gif,images/stimuli/spore_stims/simple_08_B_d.gif
NA,8017.4150000093505,survey-likert,158,502505,0.0-40.0,SS1614809227590,similarity_question,NA,NA,NA,NA,NA,NA,NA,NA,NA,NA,"{""Q0"":1}",[0],NA,images/stimuli/spore_stims/simple_17_B_c.gif,images/stimuli/spore_stims/simple_04_A_c.gif
NA,4871.829999960028,survey-likert,159,507379,0.0-41.0,SS1614809227590,similarity_question,NA,NA,NA,NA,NA,NA,NA,NA,NA,NA,"{""Q0"":6}",[0],NA,images/stimuli/spore_stims/simple_01_A_c.gif,images/stimuli/spore_stims/simple_01_B_c.gif
"[{""page_index"":0,""viewing_time"":4591.615000041202}]",4592.160000000149,instructions,160,511974,0.0-42.0,SS1614809227590,instructions,NA,NA,NA,NA,NA,NA,NA,NA,NA,NA,NA,NA,NA,NA,NA
NA,8723.394999979064,survey-likert,161,520700,0.0-43.0,SS1614809227590,NA,NA,NA,NA,NA,NA,NA,images/stimuli/spore_stims/complex_18_B_a.gif,NA,NA,NA,"{""Q0"":5}",[0],NA,NA,NA
NA,2967.4250000389293,survey-likert,162,523671,0.0-44.0,SS1614809227590,NA,NA,NA,NA,NA,NA,NA,images/stimuli/spore_stims/simple_15_B_a.gif,NA,NA,NA,"{""Q0"":0}",[0],NA,NA,NA
NA,3353.5599999595433,survey-likert,163,527027,0.0-45.0,SS1614809227590,NA,NA,NA,NA,NA,NA,NA,images/stimuli/spore_stims/complex_19_A_b.gif,NA,NA,NA,"{""Q0"":6}",[0],NA,NA,NA
NA,2967.7900000242516,survey-likert,164,529998,0.0-46.0,SS1614809227590,NA,NA,NA,NA,NA,NA,NA,images/stimuli/spore_stims/simple_07_B_a.gif,NA,NA,NA,"{""Q0"":0}",[0],NA,NA,NA
NA,2555.2850000094622,survey-likert,165,532556,0.0-47.0,SS1614809227590,NA,NA,NA,NA,NA,NA,NA,images/stimuli/spore_stims/simple_18_A_a.gif,NA,NA,NA,"{""Q0"":1}",[0],NA,NA,NA
NA,3308.8299999944866,survey-likert,166,535867,0.0-48.0,SS1614809227590,NA,NA,NA,NA,NA,NA,NA,images/stimuli/spore_stims/simple_08_B_d.gif,NA,NA,NA,"{""Q0"":0}",[0],NA,NA,NA
NA,2837.0349999750033,survey-likert,167,538707,0.0-49.0,SS1614809227590,NA,NA,NA,NA,NA,NA,NA,images/stimuli/spore_stims/complex_13_B_c.gif,NA,NA,NA,"{""Q0"":6}",[0],NA,NA,NA
NA,3566.9550000457093,survey-likert,168,542277,0.0-50.0,SS1614809227590,NA,NA,NA,NA,NA,NA,NA,images/stimuli/spore_stims/simple_01_B_c.gif,NA,NA,NA,"{""Q0"":0}",[0],NA,NA,NA
NA,4243.185000028461,survey-likert,169,546523,0.0-51.0,SS1614809227590,NA,NA,NA,NA,NA,NA,NA,images/stimuli/spore_stims/complex_09_B_a.gif,NA,NA,NA,"{""Q0"":6}",[0],NA,NA,NA
NA,3210.9700000146404,survey-likert,170,549737,0.0-52.0,SS1614809227590,NA,NA,NA,NA,NA,NA,NA,images/stimuli/spore_stims/complex_08_A_c.gif,NA,NA,NA,"{""Q0"":5}",[0],NA,NA,NA
NA,3368.824999895878,survey-likert,171,553109,0.0-53.0,SS1614809227590,NA,NA,NA,NA,NA,NA,NA,images/stimuli/spore_stims/complex_15_B_d.gif,NA,NA,NA,"{""Q0"":6}",[0],NA,NA,NA
NA,2238.5749999666587,survey-likert,172,555351,0.0-54.0,SS1614809227590,NA,NA,NA,NA,NA,NA,NA,images/stimuli/spore_stims/simple_17_B_c.gif,NA,NA,NA,"{""Q0"":1}",[0],NA,NA,NA
"[{""page_index"":0,""viewing_time"":2784.2100000707433}]",2784.3400000128895,instructions,173,558137,0.0-55.0,SS1614809227590,instructions,NA,NA,NA,NA,NA,NA,NA,NA,NA,NA,NA,NA,NA,NA,NA
NA,2813.5849999962375,demog-age,174,560955,0.0-56.0,SS1614809227590,NA,NA,NA,NA,NA,NA,NA,NA,NA,NA,NA,"{""age"":""26""}",NA,NA,NA,NA
NA,8818.055000039749,demog-ethnic-US,175,569778,0.0-57.0,SS1614809227590,NA,NA,NA,NA,NA,NA,NA,NA,NA,NA,NA,"{""ethnicity"":[""Hispanic or Latino"",""White""]}",[0],NA,NA,NA
NA,7554.414999904111,demog-gender-and-education,176,577337,0.0-58.0,SS1614809227590,NA,NA,NA,NA,NA,NA,NA,NA,NA,NA,NA,"{""gender"":""Female"",""education"":""Bachelor's Degree""}","[0,1]",NA,NA,NA
NA,26974.28999992553,survey-text,177,604314,0.0-59.0,SS1614809227590,feedback,NA,NA,NA,NA,NA,NA,NA,NA,NA,NA,"{""Q0"":""It was fun!""}",NA,NA,NA,NA
"[{""page_index"":0,""viewing_time"":2968.6900000087917}]",2968.874999904074,instructions,178,607286,0.0-60.0,SS1614809227590,instructions,NA,NA,NA,NA,NA,NA,NA,NA,NA,NA,NA,NA,NA,NA,NA
"[{""page_index"":0,""viewing_time"":10157.130000181496}]",10158.569999970496,instructions,0,10161,0.0-0.0,SS1614809230494,NA,NA,NA,NA,NA,NA,NA,NA,NA,NA,NA,NA,NA,NA,NA,NA
"[{""page_index"":0,""viewing_time"":24505.23499958217},{""page_index"":1,""viewing_time"":11692.080000415444}]",36197.76500016451,instructions,1,48367,0.0-1.0,SS1614809230494,instructions,NA,NA,NA,NA,NA,NA,NA,NA,NA,NA,NA,NA,NA,NA,NA
NA,6318.169999867678,sequential-stimulus-presentation,2,55292,0.0-2.0,SS1614809230494,NA,NA,40,600,6918.169999867678,null,null,NA,NA,NA,NA,NA,NA,NA,NA,NA
NA,5260.484999977052,sequential-stimulus-presentation,3,61157,0.0-3.0,SS1614809230494,NA,NA,40,600,5860.484999977052,null,null,NA,NA,NA,NA,NA,NA,NA,NA,NA
"[{""page_index"":0,""viewing_time"":3971.6250002384186}]",3972.014999948442,instructions,4,65131,0.0-4.0,SS1614809230494,instructions,NA,NA,NA,NA,NA,NA,NA,NA,NA,NA,NA,NA,NA,NA,NA
"[{""page_index"":0,""viewing_time"":6145.049999468029},{""page_index"":1,""viewing_time"":6444.08000074327},{""page_index"":2,""viewing_time"":1453.6899998784065},{""page_index"":3,""viewing_time"":1446.3549992069602}]",15489.694999530911,instructions,5,80623,0.0-5.0,SS1614809230494,instructions,NA,NA,NA,NA,NA,NA,NA,NA,NA,NA,NA,NA,NA,NA,NA
NA,null,html-keyboard-response,6,81753,0.0-6.0-0.0,SS1614809230494,NA,NA,null,NA,NA,NA,NA,"<p><img src= images/blank.png width =""600"" height = ""600"" style=""border:5px solid black"">",NA,NA,NA,NA,NA,NA,NA,NA
NA,6390.58499969542,sequential-stimulus-presentation,7,88653,0.0-6.0-1.0,SS1614809230494,trial,NA,40,500,6890.58499969542,images/stimuli/spore_stims/complex_16_B_b.gif,images/stimuli/spore_stims/complex_12_B_c.gif,NA,0,complex_dissimilar,images/stimuli/spore_stims/complex_12_B_c.gif,NA,NA,NA,NA,NA
NA,null,html-keyboard-response,8,89531,0.0-6.0-0.1,SS1614809230494,NA,NA,null,NA,NA,NA,NA,"<p><img src= images/blank.png width =""600"" height = ""600"" style=""border:5px solid black"">",NA,NA,NA,NA,NA,NA,NA,NA
NA,4094.8449997231364,sequential-stimulus-presentation,9,94132,0.0-6.0-1.1,SS1614809230494,trial,NA,40,500,4594.844999723136,images/stimuli/spore_stims/complex_16_B_b.gif,images/stimuli/spore_stims/complex_12_B_c.gif,NA,0,complex_dissimilar,images/stimuli/spore_stims/complex_12_B_c.gif,NA,NA,NA,NA,NA
NA,null,html-keyboard-response,10,95158,0.0-6.0-0.2,SS1614809230494,NA,NA,null,NA,NA,NA,NA,"<p><img src= images/blank.png width =""600"" height = ""600"" style=""border:5px solid black"">",NA,NA,NA,NA,NA,NA,NA,NA
NA,4550.284999422729,sequential-stimulus-presentation,11,100213,0.0-6.0-1.2,SS1614809230494,trial,NA,40,500,5050.284999422729,images/stimuli/spore_stims/complex_16_B_b.gif,images/stimuli/spore_stims/complex_12_B_c.gif,NA,0,complex_dissimilar,images/stimuli/spore_stims/complex_12_B_c.gif,NA,NA,NA,NA,NA
NA,null,html-keyboard-response,12,101287,0.0-6.0-0.3,SS1614809230494,NA,NA,null,NA,NA,NA,NA,"<p><img src= images/blank.png width =""600"" height = ""600"" style=""border:5px solid black"">",NA,NA,NA,NA,NA,NA,NA,NA
NA,3946.6700004413724,sequential-stimulus-presentation,13,105739,0.0-6.0-1.3,SS1614809230494,trial,NA,40,500,4446.670000441372,images/stimuli/spore_stims/complex_16_B_b.gif,images/stimuli/spore_stims/complex_12_B_c.gif,NA,0,complex_dissimilar,images/stimuli/spore_stims/complex_12_B_c.gif,NA,NA,NA,NA,NA
NA,null,html-keyboard-response,14,106641,0.0-6.0-0.4,SS1614809230494,NA,NA,null,NA,NA,NA,NA,"<p><img src= images/blank.png width =""600"" height = ""600"" style=""border:5px solid black"">",NA,NA,NA,NA,NA,NA,NA,NA
NA,6421.5900003910065,sequential-stimulus-presentation,15,113572,0.0-6.0-1.4,SS1614809230494,trial,NA,40,500,6921.5900003910065,images/stimuli/spore_stims/complex_16_B_b.gif,images/stimuli/spore_stims/complex_12_B_c.gif,NA,0,complex_dissimilar,images/stimuli/spore_stims/complex_16_B_b.gif,NA,NA,NA,NA,NA
NA,3496.984999626875,survey-multi-choice,16,117073,0.0-7.0,SS1614809230494,math_question,NA,NA,NA,NA,NA,NA,NA,NA,NA,NA,"{""Q0"":""11""}",[0],11,NA,NA
NA,null,html-keyboard-response,17,118000,0.0-8.0-0.0,SS1614809230494,NA,NA,null,NA,NA,NA,NA,"<p><img src= images/blank.png width =""600"" height = ""600"" style=""border:5px solid black"">",NA,NA,NA,NA,NA,NA,NA,NA
NA,1187.2850004583597,sequential-stimulus-presentation,18,119692,0.0-8.0-1.0,SS1614809230494,trial,NA,40,500,1687.2850004583597,images/stimuli/spore_stims/simple_12_B_a.gif,images/stimuli/spore_stims/simple_12_A_a.gif,NA,1,simple_similar,images/stimuli/spore_stims/simple_12_A_a.gif,NA,NA,NA,NA,NA
NA,null,html-keyboard-response,19,120894,0.0-8.0-0.1,SS1614809230494,NA,NA,null,NA,NA,NA,NA,"<p><img src= images/blank.png width =""600"" height = ""600"" style=""border:5px solid black"">",NA,NA,NA,NA,NA,NA,NA,NA
NA,1194.395000115037,sequential-stimulus-presentation,20,122597,0.0-8.0-1.1,SS1614809230494,trial,NA,40,500,1694.395000115037,images/stimuli/spore_stims/simple_12_B_a.gif,images/stimuli/spore_stims/simple_12_A_a.gif,NA,1,simple_similar,images/stimuli/spore_stims/simple_12_A_a.gif,NA,NA,NA,NA,NA
NA,null,html-keyboard-response,21,123835,0.0-8.0-0.2,SS1614809230494,NA,NA,null,NA,NA,NA,NA,"<p><img src= images/blank.png width =""600"" height = ""600"" style=""border:5px solid black"">",NA,NA,NA,NA,NA,NA,NA,NA
NA,1905.850000679493,sequential-stimulus-presentation,22,126244,0.0-8.0-1.2,SS1614809230494,trial,NA,40,500,2405.850000679493,images/stimuli/spore_stims/simple_12_B_a.gif,images/stimuli/spore_stims/simple_12_A_a.gif,NA,1,simple_similar,images/stimuli/spore_stims/simple_12_A_a.gif,NA,NA,NA,NA,NA
NA,null,html-keyboard-response,23,127137,0.0-8.0-0.3,SS1614809230494,NA,NA,null,NA,NA,NA,NA,"<p><img src= images/blank.png width =""600"" height = ""600"" style=""border:5px solid black"">",NA,NA,NA,NA,NA,NA,NA,NA
NA,88.84500060230494,sequential-stimulus-presentation,24,127729,0.0-8.0-1.3,SS1614809230494,trial,NA,40,500,588.8450006023049,images/stimuli/spore_stims/simple_12_B_a.gif,images/stimuli/spore_stims/simple_12_A_a.gif,NA,1,simple_similar,images/stimuli/spore_stims/simple_12_A_a.gif,NA,NA,NA,NA,NA
NA,null,html-keyboard-response,25,128678,0.0-8.0-0.4,SS1614809230494,NA,NA,null,NA,NA,NA,NA,"<p><img src= images/blank.png width =""600"" height = ""600"" style=""border:5px solid black"">",NA,NA,NA,NA,NA,NA,NA,NA
NA,1605.2450006827712,sequential-stimulus-presentation,26,130787,0.0-8.0-1.4,SS1614809230494,trial,NA,40,500,2105.245000682771,images/stimuli/spore_stims/simple_12_B_a.gif,images/stimuli/spore_stims/simple_12_A_a.gif,NA,1,simple_similar,images/stimuli/spore_stims/simple_12_A_a.gif,NA,NA,NA,NA,NA
NA,2710.1400000974536,survey-multi-choice,27,133502,0.0-9.0,SS1614809230494,math_question,NA,NA,NA,NA,NA,NA,NA,NA,NA,NA,"{""Q0"":""10""}",[0],10,NA,NA
NA,null,html-keyboard-response,28,134515,0.0-10.0-0.0,SS1614809230494,NA,NA,null,NA,NA,NA,NA,"<p><img src= images/blank.png width =""600"" height = ""600"" style=""border:5px solid black"">",NA,NA,NA,NA,NA,NA,NA,NA
NA,4360.2200001478195,sequential-stimulus-presentation,29,139381,0.0-10.0-1.0,SS1614809230494,trial,NA,40,500,4860.2200001478195,images/stimuli/spore_stims/simple_13_B_d.gif,images/stimuli/spore_stims/simple_13_A_d.gif,NA,2,simple_similar,images/stimuli/spore_stims/simple_13_A_d.gif,NA,NA,NA,NA,NA
NA,null,html-keyboard-response,30,140269,0.0-10.0-0.1,SS1614809230494,NA,NA,null,NA,NA,NA,NA,"<p><img src= images/blank.png width =""600"" height = ""600"" style=""border:5px solid black"">",NA,NA,NA,NA,NA,NA,NA,NA
NA,1501.2150006368756,sequential-stimulus-presentation,31,142276,0.0-10.0-1.1,SS1614809230494,trial,NA,40,500,2001.2150006368756,images/stimuli/spore_stims/simple_13_B_d.gif,images/stimuli/spore_stims/simple_13_A_d.gif,NA,2,simple_similar,images/stimuli/spore_stims/simple_13_A_d.gif,NA,NA,NA,NA,NA
NA,null,html-keyboard-response,32,143253,0.0-10.0-0.2,SS1614809230494,NA,NA,null,NA,NA,NA,NA,"<p><img src= images/blank.png width =""600"" height = ""600"" style=""border:5px solid black"">",NA,NA,NA,NA,NA,NA,NA,NA
NA,878.3050002530217,sequential-stimulus-presentation,33,144635,0.0-10.0-1.2,SS1614809230494,trial,NA,40,500,1378.3050002530217,images/stimuli/spore_stims/simple_13_B_d.gif,images/stimuli/spore_stims/simple_13_A_d.gif,NA,2,simple_similar,images/stimuli/spore_stims/simple_13_A_d.gif,NA,NA,NA,NA,NA
NA,null,html-keyboard-response,34,145933,0.0-10.0-0.3,SS1614809230494,NA,NA,null,NA,NA,NA,NA,"<p><img src= images/blank.png width =""600"" height = ""600"" style=""border:5px solid black"">",NA,NA,NA,NA,NA,NA,NA,NA
NA,195.60000021010637,sequential-stimulus-presentation,35,146635,0.0-10.0-1.3,SS1614809230494,trial,NA,40,500,695.6000002101064,images/stimuli/spore_stims/simple_13_B_d.gif,images/stimuli/spore_stims/simple_13_A_d.gif,NA,2,simple_similar,images/stimuli/spore_stims/simple_13_A_d.gif,NA,NA,NA,NA,NA
NA,null,html-keyboard-response,36,147835,0.0-10.0-0.4,SS1614809230494,NA,NA,null,NA,NA,NA,NA,"<p><img src= images/blank.png width =""600"" height = ""600"" style=""border:5px solid black"">",NA,NA,NA,NA,NA,NA,NA,NA
NA,361.9699999690056,sequential-stimulus-presentation,37,148706,0.0-10.0-1.4,SS1614809230494,trial,NA,40,500,861.9699999690056,images/stimuli/spore_stims/simple_13_B_d.gif,images/stimuli/spore_stims/simple_13_A_d.gif,NA,2,simple_similar,images/stimuli/spore_stims/simple_13_A_d.gif,NA,NA,NA,NA,NA
NA,null,html-keyboard-response,38,149640,0.0-10.0-0.5,SS1614809230494,NA,NA,null,NA,NA,NA,NA,"<p><img src= images/blank.png width =""600"" height = ""600"" style=""border:5px solid black"">",NA,NA,NA,NA,NA,NA,NA,NA
NA,138.96500039845705,sequential-stimulus-presentation,39,150286,0.0-10.0-1.5,SS1614809230494,trial,NA,40,500,638.965000398457,images/stimuli/spore_stims/simple_13_B_d.gif,images/stimuli/spore_stims/simple_13_A_d.gif,NA,2,simple_similar,images/stimuli/spore_stims/simple_13_A_d.gif,NA,NA,NA,NA,NA
NA,2516.9749995693564,survey-multi-choice,40,152806,0.0-11.0,SS1614809230494,math_question,NA,NA,NA,NA,NA,NA,NA,NA,NA,NA,"{""Q0"":""10""}",[0],10,NA,NA
NA,null,html-keyboard-response,41,154063,0.0-12.0-0.0,SS1614809230494,NA,NA,null,NA,NA,NA,NA,"<p><img src= images/blank.png width =""600"" height = ""600"" style=""border:5px solid black"">",NA,NA,NA,NA,NA,NA,NA,NA
NA,8986.19999922812,sequential-stimulus-presentation,42,163557,0.0-12.0-1.0,SS1614809230494,trial,NA,40,500,9486.19999922812,images/stimuli/spore_stims/complex_18_B_a.gif,images/stimuli/spore_stims/complex_18_A_a.gif,NA,3,complex_similar,images/stimuli/spore_stims/complex_18_A_a.gif,NA,NA,NA,NA,NA
NA,null,html-keyboard-response,43,164694,0.0-12.0-0.1,SS1614809230494,NA,NA,null,NA,NA,NA,NA,"<p><img src= images/blank.png width =""600"" height = ""600"" style=""border:5px solid black"">",NA,NA,NA,NA,NA,NA,NA,NA
NA,3723.159999586642,sequential-stimulus-presentation,44,168923,0.0-12.0-1.1,SS1614809230494,trial,NA,40,500,4223.159999586642,images/stimuli/spore_stims/complex_18_B_a.gif,images/stimuli/spore_stims/complex_18_A_a.gif,NA,3,complex_similar,images/stimuli/spore_stims/complex_18_A_a.gif,NA,NA,NA,NA,NA
NA,null,html-keyboard-response,45,169949,0.0-12.0-0.2,SS1614809230494,NA,NA,null,NA,NA,NA,NA,"<p><img src= images/blank.png width =""600"" height = ""600"" style=""border:5px solid black"">",NA,NA,NA,NA,NA,NA,NA,NA
NA,3904.4199995696545,sequential-stimulus-presentation,46,174358,0.0-12.0-1.2,SS1614809230494,trial,NA,40,500,4404.4199995696545,images/stimuli/spore_stims/complex_18_B_a.gif,images/stimuli/spore_stims/complex_18_A_a.gif,NA,3,complex_similar,images/stimuli/spore_stims/complex_18_A_a.gif,NA,NA,NA,NA,NA
NA,null,html-keyboard-response,47,175164,0.0-12.0-0.3,SS1614809230494,NA,NA,null,NA,NA,NA,NA,"<p><img src= images/blank.png width =""600"" height = ""600"" style=""border:5px solid black"">",NA,NA,NA,NA,NA,NA,NA,NA
NA,2132.829999551177,sequential-stimulus-presentation,48,177803,0.0-12.0-1.3,SS1614809230494,trial,NA,40,500,2632.829999551177,images/stimuli/spore_stims/complex_18_B_a.gif,images/stimuli/spore_stims/complex_18_A_a.gif,NA,3,complex_similar,images/stimuli/spore_stims/complex_18_A_a.gif,NA,NA,NA,NA,NA
NA,2772.899999283254,survey-multi-choice,49,180580,0.0-13.0,SS1614809230494,math_question,NA,NA,NA,NA,NA,NA,NA,NA,NA,NA,"{""Q0"":""4""}",[0],4,NA,NA
NA,null,html-keyboard-response,50,181559,0.0-14.0-0.0,SS1614809230494,NA,NA,null,NA,NA,NA,NA,"<p><img src= images/blank.png width =""600"" height = ""600"" style=""border:5px solid black"">",NA,NA,NA,NA,NA,NA,NA,NA
NA,9547.010000795126,sequential-stimulus-presentation,51,191613,0.0-14.0-1.0,SS1614809230494,trial,NA,40,500,10047.010000795126,images/stimuli/spore_stims/complex_07_A_a.gif,images/stimuli/spore_stims/complex_07_B_a.gif,NA,4,complex_similar,images/stimuli/spore_stims/complex_07_B_a.gif,NA,NA,NA,NA,NA
NA,null,html-keyboard-response,52,192543,0.0-14.0-0.1,SS1614809230494,NA,NA,null,NA,NA,NA,NA,"<p><img src= images/blank.png width =""600"" height = ""600"" style=""border:5px solid black"">",NA,NA,NA,NA,NA,NA,NA,NA
NA,2386.269999668002,sequential-stimulus-presentation,53,195434,0.0-14.0-1.1,SS1614809230494,trial,NA,40,500,2886.269999668002,images/stimuli/spore_stims/complex_07_A_a.gif,images/stimuli/spore_stims/complex_07_B_a.gif,NA,4,complex_similar,images/stimuli/spore_stims/complex_07_A_a.gif,NA,NA,NA,NA,NA
NA,null,html-keyboard-response,54,196589,0.0-14.0-0.2,SS1614809230494,NA,NA,null,NA,NA,NA,NA,"<p><img src= images/blank.png width =""600"" height = ""600"" style=""border:5px solid black"">",NA,NA,NA,NA,NA,NA,NA,NA
NA,1078.2150002196431,sequential-stimulus-presentation,55,198172,0.0-14.0-1.2,SS1614809230494,trial,NA,40,500,1578.2150002196431,images/stimuli/spore_stims/complex_07_A_a.gif,images/stimuli/spore_stims/complex_07_B_a.gif,NA,4,complex_similar,images/stimuli/spore_stims/complex_07_B_a.gif,NA,NA,NA,NA,NA
NA,null,html-keyboard-response,56,198989,0.0-14.0-0.3,SS1614809230494,NA,NA,null,NA,NA,NA,NA,"<p><img src= images/blank.png width =""600"" height = ""600"" style=""border:5px solid black"">",NA,NA,NA,NA,NA,NA,NA,NA
NA,3919.145000167191,sequential-stimulus-presentation,57,203413,0.0-14.0-1.3,SS1614809230494,trial,NA,40,500,4419.145000167191,images/stimuli/spore_stims/complex_07_A_a.gif,images/stimuli/spore_stims/complex_07_B_a.gif,NA,4,complex_similar,images/stimuli/spore_stims/complex_07_A_a.gif,NA,NA,NA,NA,NA
NA,null,html-keyboard-response,58,204574,0.0-14.0-0.4,SS1614809230494,NA,NA,null,NA,NA,NA,NA,"<p><img src= images/blank.png width =""600"" height = ""600"" style=""border:5px solid black"">",NA,NA,NA,NA,NA,NA,NA,NA
NA,3967.9199997335672,sequential-stimulus-presentation,59,209051,0.0-14.0-1.4,SS1614809230494,trial,NA,40,500,4467.919999733567,images/stimuli/spore_stims/complex_07_A_a.gif,images/stimuli/spore_stims/complex_07_B_a.gif,NA,4,complex_similar,images/stimuli/spore_stims/complex_07_B_a.gif,NA,NA,NA,NA,NA
NA,2505.1950002089143,survey-multi-choice,60,211560,0.0-15.0,SS1614809230494,math_question,NA,NA,NA,NA,NA,NA,NA,NA,NA,NA,"{""Q0"":""7""}",[0],7,NA,NA
NA,null,html-keyboard-response,61,212757,0.0-16.0-0.0,SS1614809230494,NA,NA,null,NA,NA,NA,NA,"<p><img src= images/blank.png width =""600"" height = ""600"" style=""border:5px solid black"">",NA,NA,NA,NA,NA,NA,NA,NA
NA,3916.9200006872416,sequential-stimulus-presentation,62,217179,0.0-16.0-1.0,SS1614809230494,trial,NA,40,500,4416.920000687242,images/stimuli/spore_stims/simple_08_B_a.gif,images/stimuli/spore_stims/simple_18_B_d.gif,NA,5,simple_dissimilar,images/stimuli/spore_stims/simple_18_B_d.gif,NA,NA,NA,NA,NA
NA,null,html-keyboard-response,63,218392,0.0-16.0-0.1,SS1614809230494,NA,NA,null,NA,NA,NA,NA,"<p><img src= images/blank.png width =""600"" height = ""600"" style=""border:5px solid black"">",NA,NA,NA,NA,NA,NA,NA,NA
NA,3144.425000064075,sequential-stimulus-presentation,64,222044,0.0-16.0-1.1,SS1614809230494,trial,NA,40,500,3644.425000064075,images/stimuli/spore_stims/simple_08_B_a.gif,images/stimuli/spore_stims/simple_18_B_d.gif,NA,5,simple_dissimilar,images/stimuli/spore_stims/simple_08_B_a.gif,NA,NA,NA,NA,NA
NA,null,html-keyboard-response,65,222999,0.0-16.0-0.2,SS1614809230494,NA,NA,null,NA,NA,NA,NA,"<p><img src= images/blank.png width =""600"" height = ""600"" style=""border:5px solid black"">",NA,NA,NA,NA,NA,NA,NA,NA
NA,3756.1450004577637,sequential-stimulus-presentation,66,227261,0.0-16.0-1.2,SS1614809230494,trial,NA,40,500,4256.145000457764,images/stimuli/spore_stims/simple_08_B_a.gif,images/stimuli/spore_stims/simple_18_B_d.gif,NA,5,simple_dissimilar,images/stimuli/spore_stims/simple_18_B_d.gif,NA,NA,NA,NA,NA
NA,null,html-keyboard-response,67,228495,0.0-16.0-0.3,SS1614809230494,NA,NA,null,NA,NA,NA,NA,"<p><img src= images/blank.png width =""600"" height = ""600"" style=""border:5px solid black"">",NA,NA,NA,NA,NA,NA,NA,NA
NA,2632.900000549853,sequential-stimulus-presentation,68,231635,0.0-16.0-1.3,SS1614809230494,trial,NA,40,500,3132.900000549853,images/stimuli/spore_stims/simple_08_B_a.gif,images/stimuli/spore_stims/simple_18_B_d.gif,NA,5,simple_dissimilar,images/stimuli/spore_stims/simple_08_B_a.gif,NA,NA,NA,NA,NA
NA,2761.1100003123283,survey-multi-choice,69,234404,0.0-17.0,SS1614809230494,math_question,NA,NA,NA,NA,NA,NA,NA,NA,NA,NA,"{""Q0"":""10""}",[0],10,NA,NA
NA,null,html-keyboard-response,70,235231,0.0-18.0-0.0,SS1614809230494,NA,NA,null,NA,NA,NA,NA,"<p><img src= images/blank.png width =""600"" height = ""600"" style=""border:5px solid black"">",NA,NA,NA,NA,NA,NA,NA,NA
NA,7548.975000157952,sequential-stimulus-presentation,71,243287,0.0-18.0-1.0,SS1614809230494,trial,NA,40,500,8048.975000157952,images/stimuli/spore_stims/complex_14_B_a.gif,images/stimuli/spore_stims/complex_06_B_a.gif,NA,6,complex_dissimilar,images/stimuli/spore_stims/complex_06_B_a.gif,NA,NA,NA,NA,NA
NA,null,html-keyboard-response,72,244542,0.0-18.0-0.1,SS1614809230494,NA,NA,null,NA,NA,NA,NA,"<p><img src= images/blank.png width =""600"" height = ""600"" style=""border:5px solid black"">",NA,NA,NA,NA,NA,NA,NA,NA
NA,2592.810000292957,sequential-stimulus-presentation,73,247642,0.0-18.0-1.1,SS1614809230494,trial,NA,40,500,3092.810000292957,images/stimuli/spore_stims/complex_14_B_a.gif,images/stimuli/spore_stims/complex_06_B_a.gif,NA,6,complex_dissimilar,images/stimuli/spore_stims/complex_06_B_a.gif,NA,NA,NA,NA,NA
NA,null,html-keyboard-response,74,248928,0.0-18.0-0.2,SS1614809230494,NA,NA,null,NA,NA,NA,NA,"<p><img src= images/blank.png width =""600"" height = ""600"" style=""border:5px solid black"">",NA,NA,NA,NA,NA,NA,NA,NA
NA,4260.230000130832,sequential-stimulus-presentation,75,253694,0.0-18.0-1.2,SS1614809230494,trial,NA,40,500,4760.230000130832,images/stimuli/spore_stims/complex_14_B_a.gif,images/stimuli/spore_stims/complex_06_B_a.gif,NA,6,complex_dissimilar,images/stimuli/spore_stims/complex_14_B_a.gif,NA,NA,NA,NA,NA
NA,null,html-keyboard-response,76,254737,0.0-18.0-0.3,SS1614809230494,NA,NA,null,NA,NA,NA,NA,"<p><img src= images/blank.png width =""600"" height = ""600"" style=""border:5px solid black"">",NA,NA,NA,NA,NA,NA,NA,NA
NA,2159.9949998781085,sequential-stimulus-presentation,77,257403,0.0-18.0-1.3,SS1614809230494,trial,NA,40,500,2659.9949998781085,images/stimuli/spore_stims/complex_14_B_a.gif,images/stimuli/spore_stims/complex_06_B_a.gif,NA,6,complex_dissimilar,images/stimuli/spore_stims/complex_06_B_a.gif,NA,NA,NA,NA,NA
NA,2520.135000348091,survey-multi-choice,78,259929,0.0-19.0,SS1614809230494,math_question,NA,NA,NA,NA,NA,NA,NA,NA,NA,NA,"{""Q0"":""12""}",[0],12,NA,NA
NA,null,html-keyboard-response,79,261180,0.0-20.0-0.0,SS1614809230494,NA,NA,null,NA,NA,NA,NA,"<p><img src= images/blank.png width =""600"" height = ""600"" style=""border:5px solid black"">",NA,NA,NA,NA,NA,NA,NA,NA
NA,3076.905000023544,sequential-stimulus-presentation,80,264766,0.0-20.0-1.0,SS1614809230494,trial,NA,40,500,3576.905000023544,images/stimuli/spore_stims/simple_20_A_c.gif,images/stimuli/spore_stims/simple_20_B_c.gif,NA,7,simple_similar,images/stimuli/spore_stims/simple_20_B_c.gif,NA,NA,NA,NA,NA
NA,null,html-keyboard-response,81,265651,0.0-20.0-0.1,SS1614809230494,NA,NA,null,NA,NA,NA,NA,"<p><img src= images/blank.png width =""600"" height = ""600"" style=""border:5px solid black"">",NA,NA,NA,NA,NA,NA,NA,NA
NA,2085.8599999919534,sequential-stimulus-presentation,82,268243,0.0-20.0-1.1,SS1614809230494,trial,NA,40,500,2585.8599999919534,images/stimuli/spore_stims/simple_20_A_c.gif,images/stimuli/spore_stims/simple_20_B_c.gif,NA,7,simple_similar,images/stimuli/spore_stims/simple_20_A_c.gif,NA,NA,NA,NA,NA
NA,null,html-keyboard-response,83,269304,0.0-20.0-0.2,SS1614809230494,NA,NA,null,NA,NA,NA,NA,"<p><img src= images/blank.png width =""600"" height = ""600"" style=""border:5px solid black"">",NA,NA,NA,NA,NA,NA,NA,NA
NA,792.6149992272258,sequential-stimulus-presentation,84,270603,0.0-20.0-1.2,SS1614809230494,trial,NA,40,500,1292.6149992272258,images/stimuli/spore_stims/simple_20_A_c.gif,images/stimuli/spore_stims/simple_20_B_c.gif,NA,7,simple_similar,images/stimuli/spore_stims/simple_20_A_c.gif,NA,NA,NA,NA,NA
NA,null,html-keyboard-response,85,271496,0.0-20.0-0.3,SS1614809230494,NA,NA,null,NA,NA,NA,NA,"<p><img src= images/blank.png width =""600"" height = ""600"" style=""border:5px solid black"">",NA,NA,NA,NA,NA,NA,NA,NA
NA,1297.1200002357364,sequential-stimulus-presentation,86,273299,0.0-20.0-1.3,SS1614809230494,trial,NA,40,500,1797.1200002357364,images/stimuli/spore_stims/simple_20_A_c.gif,images/stimuli/spore_stims/simple_20_B_c.gif,NA,7,simple_similar,images/stimuli/spore_stims/simple_20_B_c.gif,NA,NA,NA,NA,NA
NA,3622.990000061691,survey-multi-choice,87,276927,0.0-21.0,SS1614809230494,math_question,NA,NA,NA,NA,NA,NA,NA,NA,NA,NA,"{""Q0"":""14""}",[0],14,NA,NA
NA,null,html-keyboard-response,88,278237,0.0-22.0-0.0,SS1614809230494,NA,NA,null,NA,NA,NA,NA,"<p><img src= images/blank.png width =""600"" height = ""600"" style=""border:5px solid black"">",NA,NA,NA,NA,NA,NA,NA,NA
NA,2806.425000540912,sequential-stimulus-presentation,89,281547,0.0-22.0-1.0,SS1614809230494,trial,NA,40,500,3306.425000540912,images/stimuli/spore_stims/simple_02_B_b.gif,images/stimuli/spore_stims/simple_11_B_c.gif,NA,8,simple_dissimilar,images/stimuli/spore_stims/simple_11_B_c.gif,NA,NA,NA,NA,NA
NA,null,html-keyboard-response,90,282562,0.0-22.0-0.1,SS1614809230494,NA,NA,null,NA,NA,NA,NA,"<p><img src= images/blank.png width =""600"" height = ""600"" style=""border:5px solid black"">",NA,NA,NA,NA,NA,NA,NA,NA
NA,3375.905000604689,sequential-stimulus-presentation,91,286446,0.0-22.0-1.1,SS1614809230494,trial,NA,40,500,3875.905000604689,images/stimuli/spore_stims/simple_02_B_b.gif,images/stimuli/spore_stims/simple_11_B_c.gif,NA,8,simple_dissimilar,images/stimuli/spore_stims/simple_11_B_c.gif,NA,NA,NA,NA,NA
NA,null,html-keyboard-response,92,287446,0.0-22.0-0.2,SS1614809230494,NA,NA,null,NA,NA,NA,NA,"<p><img src= images/blank.png width =""600"" height = ""600"" style=""border:5px solid black"">",NA,NA,NA,NA,NA,NA,NA,NA
NA,3794.034999795258,sequential-stimulus-presentation,93,291746,0.0-22.0-1.2,SS1614809230494,trial,NA,40,500,4294.034999795258,images/stimuli/spore_stims/simple_02_B_b.gif,images/stimuli/spore_stims/simple_11_B_c.gif,NA,8,simple_dissimilar,images/stimuli/spore_stims/simple_11_B_c.gif,NA,NA,NA,NA,NA
NA,null,html-keyboard-response,94,292902,0.0-22.0-0.3,SS1614809230494,NA,NA,null,NA,NA,NA,NA,"<p><img src= images/blank.png width =""600"" height = ""600"" style=""border:5px solid black"">",NA,NA,NA,NA,NA,NA,NA,NA
NA,2039.1549998894334,sequential-stimulus-presentation,95,295451,0.0-22.0-1.3,SS1614809230494,trial,NA,40,500,2539.1549998894334,images/stimuli/spore_stims/simple_02_B_b.gif,images/stimuli/spore_stims/simple_11_B_c.gif,NA,8,simple_dissimilar,images/stimuli/spore_stims/simple_11_B_c.gif,NA,NA,NA,NA,NA
NA,null,html-keyboard-response,96,296271,0.0-22.0-0.4,SS1614809230494,NA,NA,null,NA,NA,NA,NA,"<p><img src= images/blank.png width =""600"" height = ""600"" style=""border:5px solid black"">",NA,NA,NA,NA,NA,NA,NA,NA
NA,2330.900000408292,sequential-stimulus-presentation,97,299109,0.0-22.0-1.4,SS1614809230494,trial,NA,40,500,2830.900000408292,images/stimuli/spore_stims/simple_02_B_b.gif,images/stimuli/spore_stims/simple_11_B_c.gif,NA,8,simple_dissimilar,images/stimuli/spore_stims/simple_11_B_c.gif,NA,NA,NA,NA,NA
NA,null,html-keyboard-response,98,299958,0.0-22.0-0.5,SS1614809230494,NA,NA,null,NA,NA,NA,NA,"<p><img src= images/blank.png width =""600"" height = ""600"" style=""border:5px solid black"">",NA,NA,NA,NA,NA,NA,NA,NA
NA,2296.3749999180436,sequential-stimulus-presentation,99,302762,0.0-22.0-1.5,SS1614809230494,trial,NA,40,500,2796.3749999180436,images/stimuli/spore_stims/simple_02_B_b.gif,images/stimuli/spore_stims/simple_11_B_c.gif,NA,8,simple_dissimilar,images/stimuli/spore_stims/simple_11_B_c.gif,NA,NA,NA,NA,NA
NA,null,html-keyboard-response,100,304005,0.0-22.0-0.6,SS1614809230494,NA,NA,null,NA,NA,NA,NA,"<p><img src= images/blank.png width =""600"" height = ""600"" style=""border:5px solid black"">",NA,NA,NA,NA,NA,NA,NA,NA
NA,5148.60500022769,sequential-stimulus-presentation,101,309661,0.0-22.0-1.6,SS1614809230494,trial,NA,40,500,5648.60500022769,images/stimuli/spore_stims/simple_02_B_b.gif,images/stimuli/spore_stims/simple_11_B_c.gif,NA,8,simple_dissimilar,images/stimuli/spore_stims/simple_02_B_b.gif,NA,NA,NA,NA,NA
NA,2691.469999961555,survey-multi-choice,102,312357,0.0-23.0,SS1614809230494,math_question,NA,NA,NA,NA,NA,NA,NA,NA,NA,NA,"{""Q0"":""7""}",[0],7,NA,NA
NA,null,html-keyboard-response,103,313440,0.0-24.0-0.0,SS1614809230494,NA,NA,null,NA,NA,NA,NA,"<p><img src= images/blank.png width =""600"" height = ""600"" style=""border:5px solid black"">",NA,NA,NA,NA,NA,NA,NA,NA
NA,2830.2899999544024,sequential-stimulus-presentation,104,316778,0.0-24.0-1.0,SS1614809230494,trial,NA,40,500,3330.2899999544024,images/stimuli/spore_stims/simple_11_A_d.gif,images/stimuli/spore_stims/simple_10_A_a.gif,NA,9,simple_dissimilar,images/stimuli/spore_stims/simple_10_A_a.gif,NA,NA,NA,NA,NA
NA,null,html-keyboard-response,105,317995,0.0-24.0-0.1,SS1614809230494,NA,NA,null,NA,NA,NA,NA,"<p><img src= images/blank.png width =""600"" height = ""600"" style=""border:5px solid black"">",NA,NA,NA,NA,NA,NA,NA,NA
NA,2240.9800002351403,sequential-stimulus-presentation,106,320739,0.0-24.0-1.1,SS1614809230494,trial,NA,40,500,2740.9800002351403,images/stimuli/spore_stims/simple_11_A_d.gif,images/stimuli/spore_stims/simple_10_A_a.gif,NA,9,simple_dissimilar,images/stimuli/spore_stims/simple_11_A_d.gif,NA,NA,NA,NA,NA
NA,null,html-keyboard-response,107,321913,0.0-24.0-0.2,SS1614809230494,NA,NA,null,NA,NA,NA,NA,"<p><img src= images/blank.png width =""600"" height = ""600"" style=""border:5px solid black"">",NA,NA,NA,NA,NA,NA,NA,NA
NA,2941.5749991312623,sequential-stimulus-presentation,108,325362,0.0-24.0-1.2,SS1614809230494,trial,NA,40,500,3441.5749991312623,images/stimuli/spore_stims/simple_11_A_d.gif,images/stimuli/spore_stims/simple_10_A_a.gif,NA,9,simple_dissimilar,images/stimuli/spore_stims/simple_10_A_a.gif,NA,NA,NA,NA,NA
NA,null,html-keyboard-response,109,326341,0.0-24.0-0.3,SS1614809230494,NA,NA,null,NA,NA,NA,NA,"<p><img src= images/blank.png width =""600"" height = ""600"" style=""border:5px solid black"">",NA,NA,NA,NA,NA,NA,NA,NA
NA,3882.3549998924136,sequential-stimulus-presentation,110,330730,0.0-24.0-1.3,SS1614809230494,trial,NA,40,500,4382.354999892414,images/stimuli/spore_stims/simple_11_A_d.gif,images/stimuli/spore_stims/simple_10_A_a.gif,NA,9,simple_dissimilar,images/stimuli/spore_stims/simple_11_A_d.gif,NA,NA,NA,NA,NA
NA,null,html-keyboard-response,111,331564,0.0-24.0-0.4,SS1614809230494,NA,NA,null,NA,NA,NA,NA,"<p><img src= images/blank.png width =""600"" height = ""600"" style=""border:5px solid black"">",NA,NA,NA,NA,NA,NA,NA,NA
NA,4682.634999975562,sequential-stimulus-presentation,112,336755,0.0-24.0-1.4,SS1614809230494,trial,NA,40,500,5182.634999975562,images/stimuli/spore_stims/simple_11_A_d.gif,images/stimuli/spore_stims/simple_10_A_a.gif,NA,9,simple_dissimilar,images/stimuli/spore_stims/simple_10_A_a.gif,NA,NA,NA,NA,NA
NA,3082.635000348091,survey-multi-choice,113,339840,0.0-25.0,SS1614809230494,math_question,NA,NA,NA,NA,NA,NA,NA,NA,NA,NA,"{""Q0"":""9""}",[0],9,NA,NA
NA,null,html-keyboard-response,114,340926,0.0-26.0-0.0,SS1614809230494,NA,NA,null,NA,NA,NA,NA,"<p><img src= images/blank.png width =""600"" height = ""600"" style=""border:5px solid black"">",NA,NA,NA,NA,NA,NA,NA,NA
NA,6562.0799995958805,sequential-stimulus-presentation,115,347996,0.0-26.0-1.0,SS1614809230494,trial,NA,40,500,7062.0799995958805,images/stimuli/spore_stims/complex_08_A_a.gif,images/stimuli/spore_stims/complex_13_A_a.gif,NA,10,complex_dissimilar,images/stimuli/spore_stims/complex_13_A_a.gif,NA,NA,NA,NA,NA
NA,null,html-keyboard-response,116,349223,0.0-26.0-0.1,SS1614809230494,NA,NA,null,NA,NA,NA,NA,"<p><img src= images/blank.png width =""600"" height = ""600"" style=""border:5px solid black"">",NA,NA,NA,NA,NA,NA,NA,NA
NA,5055.060000158846,sequential-stimulus-presentation,117,354786,0.0-26.0-1.1,SS1614809230494,trial,NA,40,500,5555.060000158846,images/stimuli/spore_stims/complex_08_A_a.gif,images/stimuli/spore_stims/complex_13_A_a.gif,NA,10,complex_dissimilar,images/stimuli/spore_stims/complex_13_A_a.gif,NA,NA,NA,NA,NA
NA,null,html-keyboard-response,118,355936,0.0-26.0-0.2,SS1614809230494,NA,NA,null,NA,NA,NA,NA,"<p><img src= images/blank.png width =""600"" height = ""600"" style=""border:5px solid black"">",NA,NA,NA,NA,NA,NA,NA,NA
NA,5643.509999848902,sequential-stimulus-presentation,119,362086,0.0-26.0-1.2,SS1614809230494,trial,NA,40,500,6143.509999848902,images/stimuli/spore_stims/complex_08_A_a.gif,images/stimuli/spore_stims/complex_13_A_a.gif,NA,10,complex_dissimilar,images/stimuli/spore_stims/complex_13_A_a.gif,NA,NA,NA,NA,NA
NA,null,html-keyboard-response,120,362926,0.0-26.0-0.3,SS1614809230494,NA,NA,null,NA,NA,NA,NA,"<p><img src= images/blank.png width =""600"" height = ""600"" style=""border:5px solid black"">",NA,NA,NA,NA,NA,NA,NA,NA
NA,7594.159999862313,sequential-stimulus-presentation,121,371034,0.0-26.0-1.3,SS1614809230494,trial,NA,40,500,8094.159999862313,images/stimuli/spore_stims/complex_08_A_a.gif,images/stimuli/spore_stims/complex_13_A_a.gif,NA,10,complex_dissimilar,images/stimuli/spore_stims/complex_13_A_a.gif,NA,NA,NA,NA,NA
NA,null,html-keyboard-response,122,372062,0.0-26.0-0.4,SS1614809230494,NA,NA,null,NA,NA,NA,NA,"<p><img src= images/blank.png width =""600"" height = ""600"" style=""border:5px solid black"">",NA,NA,NA,NA,NA,NA,NA,NA
NA,488.0899991840124,sequential-stimulus-presentation,123,373055,0.0-26.0-1.4,SS1614809230494,trial,NA,40,500,988.0899991840124,images/stimuli/spore_stims/complex_08_A_a.gif,images/stimuli/spore_stims/complex_13_A_a.gif,NA,10,complex_dissimilar,images/stimuli/spore_stims/complex_13_A_a.gif,NA,NA,NA,NA,NA
NA,15494.564999826252,survey-multi-choice,124,388554,0.0-27.0,SS1614809230494,math_question,NA,NA,NA,NA,NA,NA,NA,NA,NA,NA,"{""Q0"":""10""}",[0],10,NA,NA
NA,null,html-keyboard-response,125,389512,0.0-28.0-0.0,SS1614809230494,NA,NA,null,NA,NA,NA,NA,"<p><img src= images/blank.png width =""600"" height = ""600"" style=""border:5px solid black"">",NA,NA,NA,NA,NA,NA,NA,NA
NA,4174.045000225306,sequential-stimulus-presentation,126,394195,0.0-28.0-1.0,SS1614809230494,trial,NA,40,500,4674.045000225306,images/stimuli/spore_stims/complex_11_A_b.gif,images/stimuli/spore_stims/complex_11_B_b.gif,NA,11,complex_similar,images/stimuli/spore_stims/complex_11_B_b.gif,NA,NA,NA,NA,NA
NA,null,html-keyboard-response,127,395267,0.0-28.0-0.1,SS1614809230494,NA,NA,null,NA,NA,NA,NA,"<p><img src= images/blank.png width =""600"" height = ""600"" style=""border:5px solid black"">",NA,NA,NA,NA,NA,NA,NA,NA
NA,4104.975000023842,sequential-stimulus-presentation,128,399879,0.0-28.0-1.1,SS1614809230494,trial,NA,40,500,4604.975000023842,images/stimuli/spore_stims/complex_11_A_b.gif,images/stimuli/spore_stims/complex_11_B_b.gif,NA,11,complex_similar,images/stimuli/spore_stims/complex_11_B_b.gif,NA,NA,NA,NA,NA
NA,null,html-keyboard-response,129,401124,0.0-28.0-0.2,SS1614809230494,NA,NA,null,NA,NA,NA,NA,"<p><img src= images/blank.png width =""600"" height = ""600"" style=""border:5px solid black"">",NA,NA,NA,NA,NA,NA,NA,NA
NA,4692.210000008345,sequential-stimulus-presentation,130,406323,0.0-28.0-1.2,SS1614809230494,trial,NA,40,500,5192.210000008345,images/stimuli/spore_stims/complex_11_A_b.gif,images/stimuli/spore_stims/complex_11_B_b.gif,NA,11,complex_similar,images/stimuli/spore_stims/complex_11_B_b.gif,NA,NA,NA,NA,NA
NA,null,html-keyboard-response,131,407138,0.0-28.0-0.3,SS1614809230494,NA,NA,null,NA,NA,NA,NA,"<p><img src= images/blank.png width =""600"" height = ""600"" style=""border:5px solid black"">",NA,NA,NA,NA,NA,NA,NA,NA
NA,2905.7299997657537,sequential-stimulus-presentation,132,410551,0.0-28.0-1.3,SS1614809230494,trial,NA,40,500,3405.7299997657537,images/stimuli/spore_stims/complex_11_A_b.gif,images/stimuli/spore_stims/complex_11_B_b.gif,NA,11,complex_similar,images/stimuli/spore_stims/complex_11_A_b.gif,NA,NA,NA,NA,NA
NA,null,html-keyboard-response,133,411431,0.0-28.0-0.4,SS1614809230494,NA,NA,null,NA,NA,NA,NA,"<p><img src= images/blank.png width =""600"" height = ""600"" style=""border:5px solid black"">",NA,NA,NA,NA,NA,NA,NA,NA
NA,3621.174999512732,sequential-stimulus-presentation,134,415563,0.0-28.0-1.4,SS1614809230494,trial,NA,40,500,4121.174999512732,images/stimuli/spore_stims/complex_11_A_b.gif,images/stimuli/spore_stims/complex_11_B_b.gif,NA,11,complex_similar,images/stimuli/spore_stims/complex_11_A_b.gif,NA,NA,NA,NA,NA
NA,null,html-keyboard-response,135,416488,0.0-28.0-0.5,SS1614809230494,NA,NA,null,NA,NA,NA,NA,"<p><img src= images/blank.png width =""600"" height = ""600"" style=""border:5px solid black"">",NA,NA,NA,NA,NA,NA,NA,NA
NA,4480.535000562668,sequential-stimulus-presentation,136,421500,0.0-28.0-1.5,SS1614809230494,trial,NA,40,500,4980.535000562668,images/stimuli/spore_stims/complex_11_A_b.gif,images/stimuli/spore_stims/complex_11_B_b.gif,NA,11,complex_similar,images/stimuli/spore_stims/complex_11_B_b.gif,NA,NA,NA,NA,NA
"[{""page_index"":0,""viewing_time"":2577.015000395477}]",2577.42500025779,instructions,137,424081,0.0-29.0,SS1614809230494,instructions,NA,NA,NA,NA,NA,NA,NA,NA,NA,NA,NA,NA,NA,NA,NA
NA,6093.94499938935,survey-likert,138,430184,0.0-30.0,SS1614809230494,similarity_question,NA,NA,NA,NA,NA,NA,NA,NA,NA,NA,"{""Q0"":4}",[0],NA,images/stimuli/spore_stims/simple_12_B_a.gif,images/stimuli/spore_stims/simple_12_A_a.gif
NA,8093.445000238717,survey-likert,139,438292,0.0-31.0,SS1614809230494,similarity_question,NA,NA,NA,NA,NA,NA,NA,NA,NA,NA,"{""Q0"":2}",[0],NA,images/stimuli/spore_stims/complex_08_A_a.gif,images/stimuli/spore_stims/complex_13_A_a.gif
NA,3521.724999882281,survey-likert,140,441832,0.0-32.0,SS1614809230494,similarity_question,NA,NA,NA,NA,NA,NA,NA,NA,NA,NA,"{""Q0"":0}",[0],NA,images/stimuli/spore_stims/complex_06_B_a.gif,images/stimuli/spore_stims/complex_14_B_a.gif
NA,4684.394999407232,survey-likert,141,446526,0.0-33.0,SS1614809230494,similarity_question,NA,NA,NA,NA,NA,NA,NA,NA,NA,NA,"{""Q0"":0}",[0],NA,images/stimuli/spore_stims/complex_16_B_b.gif,images/stimuli/spore_stims/complex_12_B_c.gif
NA,6914.255000650883,survey-likert,142,453457,0.0-34.0,SS1614809230494,similarity_question,NA,NA,NA,NA,NA,NA,NA,NA,NA,NA,"{""Q0"":5}",[0],NA,images/stimuli/spore_stims/complex_07_B_a.gif,images/stimuli/spore_stims/complex_07_A_a.gif
NA,9490.460000000894,survey-likert,143,462962,0.0-35.0,SS1614809230494,similarity_question,NA,NA,NA,NA,NA,NA,NA,NA,NA,NA,"{""Q0"":4}",[0],NA,images/stimuli/spore_stims/simple_02_B_b.gif,images/stimuli/spore_stims/simple_11_B_c.gif
NA,4455.679999664426,survey-likert,144,467438,0.0-36.0,SS1614809230494,similarity_question,NA,NA,NA,NA,NA,NA,NA,NA,NA,NA,"{""Q0"":6}",[0],NA,images/stimuli/spore_stims/simple_13_B_d.gif,images/stimuli/spore_stims/simple_13_A_d.gif
NA,6608.245000243187,survey-likert,145,474062,0.0-37.0,SS1614809230494,similarity_question,NA,NA,NA,NA,NA,NA,NA,NA,NA,NA,"{""Q0"":5}",[0],NA,images/stimuli/spore_stims/simple_20_A_c.gif,images/stimuli/spore_stims/simple_20_B_c.gif
NA,4224.609999917448,survey-likert,146,478311,0.0-38.0,SS1614809230494,similarity_question,NA,NA,NA,NA,NA,NA,NA,NA,NA,NA,"{""Q0"":3}",[0],NA,images/stimuli/spore_stims/simple_10_A_a.gif,images/stimuli/spore_stims/simple_11_A_d.gif
NA,5531.690000556409,survey-likert,147,483860,0.0-39.0,SS1614809230494,similarity_question,NA,NA,NA,NA,NA,NA,NA,NA,NA,NA,"{""Q0"":2}",[0],NA,images/stimuli/spore_stims/simple_18_B_d.gif,images/stimuli/spore_stims/simple_08_B_a.gif
NA,9155.23000061512,survey-likert,148,493026,0.0-40.0,SS1614809230494,similarity_question,NA,NA,NA,NA,NA,NA,NA,NA,NA,NA,"{""Q0"":4}",[0],NA,images/stimuli/spore_stims/complex_18_A_a.gif,images/stimuli/spore_stims/complex_18_B_a.gif
NA,4305.70499971509,survey-likert,149,497339,0.0-41.0,SS1614809230494,similarity_question,NA,NA,NA,NA,NA,NA,NA,NA,NA,NA,"{""Q0"":6}",[0],NA,images/stimuli/spore_stims/complex_11_B_b.gif,images/stimuli/spore_stims/complex_11_A_b.gif
"[{""page_index"":0,""viewing_time"":2015.7000003382564}]",2016.2550006061792,instructions,150,499377,0.0-42.0,SS1614809230494,instructions,NA,NA,NA,NA,NA,NA,NA,NA,NA,NA,NA,NA,NA,NA,NA
NA,2528.2350005581975,survey-likert,151,501914,0.0-43.0,SS1614809230494,NA,NA,NA,NA,NA,NA,NA,images/stimuli/spore_stims/simple_13_A_d.gif,NA,NA,NA,"{""Q0"":0}",[0],NA,NA,NA
NA,2322.524999268353,survey-likert,152,504243,0.0-44.0,SS1614809230494,NA,NA,NA,NA,NA,NA,NA,images/stimuli/spore_stims/complex_12_B_c.gif,NA,NA,NA,"{""Q0"":4}",[0],NA,NA,NA
NA,2146.189999766648,survey-likert,153,506402,0.0-45.0,SS1614809230494,NA,NA,NA,NA,NA,NA,NA,images/stimuli/spore_stims/complex_14_B_a.gif,NA,NA,NA,"{""Q0"":4}",[0],NA,NA,NA
NA,2701.1699993163347,survey-likert,154,509117,0.0-46.0,SS1614809230494,NA,NA,NA,NA,NA,NA,NA,images/stimuli/spore_stims/complex_08_A_a.gif,NA,NA,NA,"{""Q0"":5}",[0],NA,NA,NA
NA,2283.1900008022785,survey-likert,155,511406,0.0-47.0,SS1614809230494,NA,NA,NA,NA,NA,NA,NA,images/stimuli/spore_stims/simple_20_B_c.gif,NA,NA,NA,"{""Q0"":1}",[0],NA,NA,NA
NA,2163.7550005689263,survey-likert,156,513587,0.0-48.0,SS1614809230494,NA,NA,NA,NA,NA,NA,NA,images/stimuli/spore_stims/simple_11_A_d.gif,NA,NA,NA,"{""Q0"":0}",[0],NA,NA,NA
NA,4833.170000463724,survey-likert,157,518437,0.0-49.0,SS1614809230494,NA,NA,NA,NA,NA,NA,NA,images/stimuli/spore_stims/complex_07_A_a.gif,NA,NA,NA,"{""Q0"":5}",[0],NA,NA,NA
NA,2689.7949995473027,survey-likert,158,521139,0.0-50.0,SS1614809230494,NA,NA,NA,NA,NA,NA,NA,images/stimuli/spore_stims/simple_08_B_a.gif,NA,NA,NA,"{""Q0"":1}",[0],NA,NA,NA
NA,2982.7250000089407,survey-likert,159,524138,0.0-51.0,SS1614809230494,NA,NA,NA,NA,NA,NA,NA,images/stimuli/spore_stims/complex_18_B_a.gif,NA,NA,NA,"{""Q0"":5}",[0],NA,NA,NA
NA,2337.4199997633696,survey-likert,160,526489,0.0-52.0,SS1614809230494,NA,NA,NA,NA,NA,NA,NA,images/stimuli/spore_stims/simple_12_A_a.gif,NA,NA,NA,"{""Q0"":0}",[0],NA,NA,NA
NA,2349.654999561608,survey-likert,161,528855,0.0-53.0,SS1614809230494,NA,NA,NA,NA,NA,NA,NA,images/stimuli/spore_stims/complex_11_A_b.gif,NA,NA,NA,"{""Q0"":5}",[0],NA,NA,NA
NA,3905.3199999034405,survey-likert,162,532768,0.0-54.0,SS1614809230494,NA,NA,NA,NA,NA,NA,NA,images/stimuli/spore_stims/simple_11_B_c.gif,NA,NA,NA,"{""Q0"":1}",[0],NA,NA,NA
"[{""page_index"":0,""viewing_time"":1548.704999499023}]",1549.0800002589822,instructions,163,534330,0.0-55.0,SS1614809230494,instructions,NA,NA,NA,NA,NA,NA,NA,NA,NA,NA,NA,NA,NA,NA,NA
NA,4714.7500002756715,demog-age,164,539058,0.0-56.0,SS1614809230494,NA,NA,NA,NA,NA,NA,NA,NA,NA,NA,NA,"{""age"":""53""}",NA,NA,NA,NA
NA,2185.150000266731,demog-ethnic-US,165,541252,0.0-57.0,SS1614809230494,NA,NA,NA,NA,NA,NA,NA,NA,NA,NA,NA,"{""ethnicity"":[""White""]}",[0],NA,NA,NA
NA,5175.7049998268485,demog-gender-and-education,166,546447,0.0-58.0,SS1614809230494,NA,NA,NA,NA,NA,NA,NA,NA,NA,NA,NA,"{""gender"":""Male"",""education"":""Master's Degree""}","[0,1]",NA,NA,NA
NA,12023.01000058651,survey-text,167,558491,0.0-59.0,SS1614809230494,feedback,NA,NA,NA,NA,NA,NA,NA,NA,NA,NA,"{""Q0"":""Some are scary... trippy!""}",NA,NA,NA,NA
"[{""page_index"":0,""viewing_time"":1590.2599999681115}]",1590.595000423491,instructions,168,560091,0.0-60.0,SS1614809230494,instructions,NA,NA,NA,NA,NA,NA,NA,NA,NA,NA,NA,NA,NA,NA,NA
"[{""page_index"":0,""viewing_time"":21211.444999964442}]",21212.260000000242,instructions,0,21214,0.0-0.0,SS1614809233708,NA,NA,NA,NA,NA,NA,NA,NA,NA,NA,NA,NA,NA,NA,NA,NA
"[{""page_index"":0,""viewing_time"":36395.734999969136},{""page_index"":1,""viewing_time"":5457.050000026356}]",41853.03999995813,instructions,1,65071,0.0-1.0,SS1614809233708,instructions,NA,NA,NA,NA,NA,NA,NA,NA,NA,NA,NA,NA,NA,NA,NA
NA,5945.610000053421,sequential-stimulus-presentation,2,71625,0.0-2.0,SS1614809233708,NA,NA,40,600,6545.610000053421,null,null,NA,NA,NA,NA,NA,NA,NA,NA,NA
NA,3052.46499995701,sequential-stimulus-presentation,3,75284,0.0-3.0,SS1614809233708,NA,NA,40,600,3652.46499995701,null,null,NA,NA,NA,NA,NA,NA,NA,NA,NA
"[{""page_index"":0,""viewing_time"":5891.319999995176}]",5891.560000018217,instructions,4,81177,0.0-4.0,SS1614809233708,instructions,NA,NA,NA,NA,NA,NA,NA,NA,NA,NA,NA,NA,NA,NA,NA
"[{""page_index"":0,""viewing_time"":4890.784999995958},{""page_index"":1,""viewing_time"":7883.195000002161},{""page_index"":2,""viewing_time"":1794.8099999921396},{""page_index"":3,""viewing_time"":1327.4499999824911}]",15896.499999973457,instructions,5,97074,0.0-5.0,SS1614809233708,instructions,NA,NA,NA,NA,NA,NA,NA,NA,NA,NA,NA,NA,NA,NA,NA
NA,null,html-keyboard-response,6,98300,0.0-6.0-0.0,SS1614809233708,NA,NA,null,NA,NA,NA,NA,"<p><img src= images/blank.png width =""600"" height = ""600"" style=""border:5px solid black"">",NA,NA,NA,NA,NA,NA,NA,NA
NA,4110.954999981914,sequential-stimulus-presentation,7,102916,0.0-6.0-1.0,SS1614809233708,trial,NA,40,500,4610.954999981914,images/stimuli/spore_stims/simple_02_A_d.gif,images/stimuli/spore_stims/simple_03_B_a.gif,NA,0,simple_dissimilar,images/stimuli/spore_stims/simple_03_B_a.gif,NA,NA,NA,NA,NA
NA,null,html-keyboard-response,8,104155,0.0-6.0-0.1,SS1614809233708,NA,NA,null,NA,NA,NA,NA,"<p><img src= images/blank.png width =""600"" height = ""600"" style=""border:5px solid black"">",NA,NA,NA,NA,NA,NA,NA,NA
NA,2338.500000012573,sequential-stimulus-presentation,9,106999,0.0-6.0-1.1,SS1614809233708,trial,NA,40,500,2838.500000012573,images/stimuli/spore_stims/simple_02_A_d.gif,images/stimuli/spore_stims/simple_03_B_a.gif,NA,0,simple_dissimilar,images/stimuli/spore_stims/simple_03_B_a.gif,NA,NA,NA,NA,NA
NA,null,html-keyboard-response,10,107845,0.0-6.0-0.2,SS1614809233708,NA,NA,null,NA,NA,NA,NA,"<p><img src= images/blank.png width =""600"" height = ""600"" style=""border:5px solid black"">",NA,NA,NA,NA,NA,NA,NA,NA
NA,4986.014999973122,sequential-stimulus-presentation,11,113335,0.0-6.0-1.2,SS1614809233708,trial,NA,40,500,5486.014999973122,images/stimuli/spore_stims/simple_02_A_d.gif,images/stimuli/spore_stims/simple_03_B_a.gif,NA,0,simple_dissimilar,images/stimuli/spore_stims/simple_03_B_a.gif,NA,NA,NA,NA,NA
NA,null,html-keyboard-response,12,114268,0.0-6.0-0.3,SS1614809233708,NA,NA,null,NA,NA,NA,NA,"<p><img src= images/blank.png width =""600"" height = ""600"" style=""border:5px solid black"">",NA,NA,NA,NA,NA,NA,NA,NA
NA,3639.6550000063144,sequential-stimulus-presentation,13,118413,0.0-6.0-1.3,SS1614809233708,trial,NA,40,500,4139.655000006314,images/stimuli/spore_stims/simple_02_A_d.gif,images/stimuli/spore_stims/simple_03_B_a.gif,NA,0,simple_dissimilar,images/stimuli/spore_stims/simple_03_B_a.gif,NA,NA,NA,NA,NA
NA,null,html-keyboard-response,14,119587,0.0-6.0-0.4,SS1614809233708,NA,NA,null,NA,NA,NA,NA,"<p><img src= images/blank.png width =""600"" height = ""600"" style=""border:5px solid black"">",NA,NA,NA,NA,NA,NA,NA,NA
NA,5529.98499997193,sequential-stimulus-presentation,15,125621,0.0-6.0-1.4,SS1614809233708,trial,NA,40,500,6029.98499997193,images/stimuli/spore_stims/simple_02_A_d.gif,images/stimuli/spore_stims/simple_03_B_a.gif,NA,0,simple_dissimilar,images/stimuli/spore_stims/simple_02_A_d.gif,NA,NA,NA,NA,NA
NA,null,html-keyboard-response,16,126756,0.0-6.0-0.5,SS1614809233708,NA,NA,null,NA,NA,NA,NA,"<p><img src= images/blank.png width =""600"" height = ""600"" style=""border:5px solid black"">",NA,NA,NA,NA,NA,NA,NA,NA
NA,6561.920000007376,sequential-stimulus-presentation,17,133824,0.0-6.0-1.5,SS1614809233708,trial,NA,40,500,7061.920000007376,images/stimuli/spore_stims/simple_02_A_d.gif,images/stimuli/spore_stims/simple_03_B_a.gif,NA,0,simple_dissimilar,images/stimuli/spore_stims/simple_02_A_d.gif,NA,NA,NA,NA,NA
NA,3081.9200000260025,survey-multi-choice,18,136910,0.0-7.0,SS1614809233708,math_question,NA,NA,NA,NA,NA,NA,NA,NA,NA,NA,"{""Q0"":""15""}",[0],15,NA,NA
NA,null,html-keyboard-response,19,137727,0.0-8.0-0.0,SS1614809233708,NA,NA,null,NA,NA,NA,NA,"<p><img src= images/blank.png width =""600"" height = ""600"" style=""border:5px solid black"">",NA,NA,NA,NA,NA,NA,NA,NA
NA,3498.0450000148267,sequential-stimulus-presentation,20,141727,0.0-8.0-1.0,SS1614809233708,trial,NA,40,500,3998.0450000148267,images/stimuli/spore_stims/complex_06_B_a.gif,images/stimuli/spore_stims/complex_03_B_a.gif,NA,1,complex_dissimilar,images/stimuli/spore_stims/complex_03_B_a.gif,NA,NA,NA,NA,NA
NA,null,html-keyboard-response,21,142551,0.0-8.0-0.1,SS1614809233708,NA,NA,null,NA,NA,NA,NA,"<p><img src= images/blank.png width =""600"" height = ""600"" style=""border:5px solid black"">",NA,NA,NA,NA,NA,NA,NA,NA
NA,3363.8300000457093,sequential-stimulus-presentation,22,146423,0.0-8.0-1.1,SS1614809233708,trial,NA,40,500,3863.8300000457093,images/stimuli/spore_stims/complex_06_B_a.gif,images/stimuli/spore_stims/complex_03_B_a.gif,NA,1,complex_dissimilar,images/stimuli/spore_stims/complex_03_B_a.gif,NA,NA,NA,NA,NA
NA,null,html-keyboard-response,23,147412,0.0-8.0-0.2,SS1614809233708,NA,NA,null,NA,NA,NA,NA,"<p><img src= images/blank.png width =""600"" height = ""600"" style=""border:5px solid black"">",NA,NA,NA,NA,NA,NA,NA,NA
NA,1109.8900000215508,sequential-stimulus-presentation,24,149025,0.0-8.0-1.2,SS1614809233708,trial,NA,40,500,1609.8900000215508,images/stimuli/spore_stims/complex_06_B_a.gif,images/stimuli/spore_stims/complex_03_B_a.gif,NA,1,complex_dissimilar,images/stimuli/spore_stims/complex_03_B_a.gif,NA,NA,NA,NA,NA
NA,null,html-keyboard-response,25,150187,0.0-8.0-0.3,SS1614809233708,NA,NA,null,NA,NA,NA,NA,"<p><img src= images/blank.png width =""600"" height = ""600"" style=""border:5px solid black"">",NA,NA,NA,NA,NA,NA,NA,NA
NA,747.1450000302866,sequential-stimulus-presentation,26,151439,0.0-8.0-1.3,SS1614809233708,trial,NA,40,500,1247.1450000302866,images/stimuli/spore_stims/complex_06_B_a.gif,images/stimuli/spore_stims/complex_03_B_a.gif,NA,1,complex_dissimilar,images/stimuli/spore_stims/complex_03_B_a.gif,NA,NA,NA,NA,NA
NA,null,html-keyboard-response,27,152634,0.0-8.0-0.4,SS1614809233708,NA,NA,null,NA,NA,NA,NA,"<p><img src= images/blank.png width =""600"" height = ""600"" style=""border:5px solid black"">",NA,NA,NA,NA,NA,NA,NA,NA
NA,1290.7499999855645,sequential-stimulus-presentation,28,154428,0.0-8.0-1.4,SS1614809233708,trial,NA,40,500,1790.7499999855645,images/stimuli/spore_stims/complex_06_B_a.gif,images/stimuli/spore_stims/complex_03_B_a.gif,NA,1,complex_dissimilar,images/stimuli/spore_stims/complex_03_B_a.gif,NA,NA,NA,NA,NA
NA,3436.2400000100024,survey-multi-choice,29,157866,0.0-9.0,SS1614809233708,math_question,NA,NA,NA,NA,NA,NA,NA,NA,NA,NA,"{""Q0"":""6""}",[0],6,NA,NA
NA,null,html-keyboard-response,30,159160,0.0-10.0-0.0,SS1614809233708,NA,NA,null,NA,NA,NA,NA,"<p><img src= images/blank.png width =""600"" height = ""600"" style=""border:5px solid black"">",NA,NA,NA,NA,NA,NA,NA,NA
NA,5542.695000011008,sequential-stimulus-presentation,31,165208,0.0-10.0-1.0,SS1614809233708,trial,NA,40,500,6042.695000011008,images/stimuli/spore_stims/simple_10_A_d.gif,images/stimuli/spore_stims/simple_07_A_c.gif,NA,2,simple_dissimilar,images/stimuli/spore_stims/simple_07_A_c.gif,NA,NA,NA,NA,NA
NA,null,html-keyboard-response,32,166463,0.0-10.0-0.1,SS1614809233708,NA,NA,null,NA,NA,NA,NA,"<p><img src= images/blank.png width =""600"" height = ""600"" style=""border:5px solid black"">",NA,NA,NA,NA,NA,NA,NA,NA
NA,3382.274999981746,sequential-stimulus-presentation,33,170352,0.0-10.0-1.1,SS1614809233708,trial,NA,40,500,3882.274999981746,images/stimuli/spore_stims/simple_10_A_d.gif,images/stimuli/spore_stims/simple_07_A_c.gif,NA,2,simple_dissimilar,images/stimuli/spore_stims/simple_10_A_d.gif,NA,NA,NA,NA,NA
NA,null,html-keyboard-response,34,171202,0.0-10.0-0.2,SS1614809233708,NA,NA,null,NA,NA,NA,NA,"<p><img src= images/blank.png width =""600"" height = ""600"" style=""border:5px solid black"">",NA,NA,NA,NA,NA,NA,NA,NA
NA,1719.5000000065193,sequential-stimulus-presentation,35,173428,0.0-10.0-1.2,SS1614809233708,trial,NA,40,500,2219.5000000065193,images/stimuli/spore_stims/simple_10_A_d.gif,images/stimuli/spore_stims/simple_07_A_c.gif,NA,2,simple_dissimilar,images/stimuli/spore_stims/simple_07_A_c.gif,NA,NA,NA,NA,NA
NA,null,html-keyboard-response,36,174510,0.0-10.0-0.3,SS1614809233708,NA,NA,null,NA,NA,NA,NA,"<p><img src= images/blank.png width =""600"" height = ""600"" style=""border:5px solid black"">",NA,NA,NA,NA,NA,NA,NA,NA
NA,5759.164999995846,sequential-stimulus-presentation,37,180775,0.0-10.0-1.3,SS1614809233708,trial,NA,40,500,6259.164999995846,images/stimuli/spore_stims/simple_10_A_d.gif,images/stimuli/spore_stims/simple_07_A_c.gif,NA,2,simple_dissimilar,images/stimuli/spore_stims/simple_07_A_c.gif,NA,NA,NA,NA,NA
NA,null,html-keyboard-response,38,181771,0.0-10.0-0.4,SS1614809233708,NA,NA,null,NA,NA,NA,NA,"<p><img src= images/blank.png width =""600"" height = ""600"" style=""border:5px solid black"">",NA,NA,NA,NA,NA,NA,NA,NA
NA,2811.0750000341795,sequential-stimulus-presentation,39,185089,0.0-10.0-1.4,SS1614809233708,trial,NA,40,500,3311.0750000341795,images/stimuli/spore_stims/simple_10_A_d.gif,images/stimuli/spore_stims/simple_07_A_c.gif,NA,2,simple_dissimilar,images/stimuli/spore_stims/simple_07_A_c.gif,NA,NA,NA,NA,NA
NA,6471.879999968223,survey-multi-choice,40,191563,0.0-11.0,SS1614809233708,math_question,NA,NA,NA,NA,NA,NA,NA,NA,NA,NA,"{""Q0"":""8""}",[0],8,NA,NA
NA,null,html-keyboard-response,41,192585,0.0-12.0-0.0,SS1614809233708,NA,NA,null,NA,NA,NA,NA,"<p><img src= images/blank.png width =""600"" height = ""600"" style=""border:5px solid black"">",NA,NA,NA,NA,NA,NA,NA,NA
NA,6357.029999955557,sequential-stimulus-presentation,42,199448,0.0-12.0-1.0,SS1614809233708,trial,NA,40,500,6857.029999955557,images/stimuli/spore_stims/complex_07_B_d.gif,images/stimuli/spore_stims/complex_07_A_d.gif,NA,3,complex_similar,images/stimuli/spore_stims/complex_07_A_d.gif,NA,NA,NA,NA,NA
NA,null,html-keyboard-response,43,200413,0.0-12.0-0.1,SS1614809233708,NA,NA,null,NA,NA,NA,NA,"<p><img src= images/blank.png width =""600"" height = ""600"" style=""border:5px solid black"">",NA,NA,NA,NA,NA,NA,NA,NA
NA,1865.7200000016019,sequential-stimulus-presentation,44,202783,0.0-12.0-1.1,SS1614809233708,trial,NA,40,500,2365.720000001602,images/stimuli/spore_stims/complex_07_B_d.gif,images/stimuli/spore_stims/complex_07_A_d.gif,NA,3,complex_similar,images/stimuli/spore_stims/complex_07_A_d.gif,NA,NA,NA,NA,NA
NA,null,html-keyboard-response,45,203840,0.0-12.0-0.2,SS1614809233708,NA,NA,null,NA,NA,NA,NA,"<p><img src= images/blank.png width =""600"" height = ""600"" style=""border:5px solid black"">",NA,NA,NA,NA,NA,NA,NA,NA
NA,257.6200000476092,sequential-stimulus-presentation,46,204605,0.0-12.0-1.2,SS1614809233708,trial,NA,40,500,757.6200000476092,images/stimuli/spore_stims/complex_07_B_d.gif,images/stimuli/spore_stims/complex_07_A_d.gif,NA,3,complex_similar,images/stimuli/spore_stims/complex_07_A_d.gif,NA,NA,NA,NA,NA
NA,null,html-keyboard-response,47,205685,0.0-12.0-0.3,SS1614809233708,NA,NA,null,NA,NA,NA,NA,"<p><img src= images/blank.png width =""600"" height = ""600"" style=""border:5px solid black"">",NA,NA,NA,NA,NA,NA,NA,NA
NA,15.294999990146607,sequential-stimulus-presentation,48,206204,0.0-12.0-1.3,SS1614809233708,trial,NA,40,500,515.2949999901466,images/stimuli/spore_stims/complex_07_B_d.gif,images/stimuli/spore_stims/complex_07_A_d.gif,NA,3,complex_similar,images/stimuli/spore_stims/complex_07_A_d.gif,NA,NA,NA,NA,NA
NA,null,html-keyboard-response,49,207205,0.0-12.0-0.4,SS1614809233708,NA,NA,null,NA,NA,NA,NA,"<p><img src= images/blank.png width =""600"" height = ""600"" style=""border:5px solid black"">",NA,NA,NA,NA,NA,NA,NA,NA
NA,980.150000017602,sequential-stimulus-presentation,50,208689,0.0-12.0-1.4,SS1614809233708,trial,NA,40,500,1480.150000017602,images/stimuli/spore_stims/complex_07_B_d.gif,images/stimuli/spore_stims/complex_07_A_d.gif,NA,3,complex_similar,images/stimuli/spore_stims/complex_07_A_d.gif,NA,NA,NA,NA,NA
NA,null,html-keyboard-response,51,209968,0.0-12.0-0.5,SS1614809233708,NA,NA,null,NA,NA,NA,NA,"<p><img src= images/blank.png width =""600"" height = ""600"" style=""border:5px solid black"">",NA,NA,NA,NA,NA,NA,NA,NA
NA,14.8250000202097,sequential-stimulus-presentation,52,210489,0.0-12.0-1.5,SS1614809233708,trial,NA,40,500,514.8250000202097,images/stimuli/spore_stims/complex_07_B_d.gif,images/stimuli/spore_stims/complex_07_A_d.gif,NA,3,complex_similar,images/stimuli/spore_stims/complex_07_A_d.gif,NA,NA,NA,NA,NA
NA,3633.2099999999627,survey-multi-choice,53,214124,0.0-13.0,SS1614809233708,math_question,NA,NA,NA,NA,NA,NA,NA,NA,NA,NA,"{""Q0"":""5""}",[0],5,NA,NA
NA,null,html-keyboard-response,54,215246,0.0-14.0-0.0,SS1614809233708,NA,NA,null,NA,NA,NA,NA,"<p><img src= images/blank.png width =""600"" height = ""600"" style=""border:5px solid black"">",NA,NA,NA,NA,NA,NA,NA,NA
NA,1111.0399999888614,sequential-stimulus-presentation,55,216862,0.0-14.0-1.0,SS1614809233708,trial,NA,40,500,1611.0399999888614,images/stimuli/spore_stims/complex_13_A_a.gif,images/stimuli/spore_stims/complex_13_B_a.gif,NA,4,complex_similar,images/stimuli/spore_stims/complex_13_B_a.gif,NA,NA,NA,NA,NA
NA,null,html-keyboard-response,56,218136,0.0-14.0-0.1,SS1614809233708,NA,NA,null,NA,NA,NA,NA,"<p><img src= images/blank.png width =""600"" height = ""600"" style=""border:5px solid black"">",NA,NA,NA,NA,NA,NA,NA,NA
NA,1344.4799999706447,sequential-stimulus-presentation,57,219988,0.0-14.0-1.1,SS1614809233708,trial,NA,40,500,1844.4799999706447,images/stimuli/spore_stims/complex_13_A_a.gif,images/stimuli/spore_stims/complex_13_B_a.gif,NA,4,complex_similar,images/stimuli/spore_stims/complex_13_A_a.gif,NA,NA,NA,NA,NA
NA,null,html-keyboard-response,58,220933,0.0-14.0-0.2,SS1614809233708,NA,NA,null,NA,NA,NA,NA,"<p><img src= images/blank.png width =""600"" height = ""600"" style=""border:5px solid black"">",NA,NA,NA,NA,NA,NA,NA,NA
NA,143.3299999916926,sequential-stimulus-presentation,59,221581,0.0-14.0-1.2,SS1614809233708,trial,NA,40,500,643.3299999916926,images/stimuli/spore_stims/complex_13_A_a.gif,images/stimuli/spore_stims/complex_13_B_a.gif,NA,4,complex_similar,images/stimuli/spore_stims/complex_13_A_a.gif,NA,NA,NA,NA,NA
NA,null,html-keyboard-response,60,222654,0.0-14.0-0.3,SS1614809233708,NA,NA,null,NA,NA,NA,NA,"<p><img src= images/blank.png width =""600"" height = ""600"" style=""border:5px solid black"">",NA,NA,NA,NA,NA,NA,NA,NA
NA,91.1799999885261,sequential-stimulus-presentation,61,223248,0.0-14.0-1.3,SS1614809233708,trial,NA,40,500,591.1799999885261,images/stimuli/spore_stims/complex_13_A_a.gif,images/stimuli/spore_stims/complex_13_B_a.gif,NA,4,complex_similar,images/stimuli/spore_stims/complex_13_B_a.gif,NA,NA,NA,NA,NA
NA,2720.819999987725,survey-multi-choice,62,225971,0.0-15.0,SS1614809233708,math_question,NA,NA,NA,NA,NA,NA,NA,NA,NA,NA,"{""Q0"":""16""}",[0],16,NA,NA
NA,null,html-keyboard-response,63,227159,0.0-16.0-0.0,SS1614809233708,NA,NA,null,NA,NA,NA,NA,"<p><img src= images/blank.png width =""600"" height = ""600"" style=""border:5px solid black"">",NA,NA,NA,NA,NA,NA,NA,NA
NA,39.57500000251457,sequential-stimulus-presentation,64,227704,0.0-16.0-1.0,SS1614809233708,trial,NA,40,500,539.5750000025146,images/stimuli/spore_stims/complex_12_A_c.gif,images/stimuli/spore_stims/complex_12_B_c.gif,NA,5,complex_similar,images/stimuli/spore_stims/complex_12_B_c.gif,NA,NA,NA,NA,NA
NA,null,html-keyboard-response,65,228995,0.0-16.0-0.1,SS1614809233708,NA,NA,null,NA,NA,NA,NA,"<p><img src= images/blank.png width =""600"" height = ""600"" style=""border:5px solid black"">",NA,NA,NA,NA,NA,NA,NA,NA
NA,413.5600000154227,sequential-stimulus-presentation,66,229916,0.0-16.0-1.1,SS1614809233708,trial,NA,40,500,913.5600000154227,images/stimuli/spore_stims/complex_12_A_c.gif,images/stimuli/spore_stims/complex_12_B_c.gif,NA,5,complex_similar,images/stimuli/spore_stims/complex_12_B_c.gif,NA,NA,NA,NA,NA
NA,null,html-keyboard-response,67,230830,0.0-16.0-0.2,SS1614809233708,NA,NA,null,NA,NA,NA,NA,"<p><img src= images/blank.png width =""600"" height = ""600"" style=""border:5px solid black"">",NA,NA,NA,NA,NA,NA,NA,NA
