view_history,rt,stimulus_type,trial_type,trial_index,time_elapsed,internal_node_id,subject,trial_stimulus,key_press,minimum_viewing_duration,trial_looking_time,stimulus,ball_pref,location,block_number,stimulus_displayed,position_displayed,stim_type_selected,slider_start,response,stimulus_left,stimulus_right
"[{""page_index"":0,""viewing_time"":1688.3450001478195},{""page_index"":1,""viewing_time"":1609.0400000102818}]",3298.1650000438094,instructions,instructions,0,3301,0.0-0.0,SS1611845447407,NA,NA,NA,NA,NA,NA,NA,NA,NA,NA,NA,NA,NA,NA,NA
NA,658.0149999354035,NA,sequential-stimulus-presentation,1,4868,0.0-1.0,SS1611845447407,NA,40,900,1558.0149999354035,NA,NA,NA,NA,NA,NA,NA,NA,NA,NA,NA
NA,647.7799999993294,NA,sequential-stimulus-presentation,2,6422,0.0-2.0,SS1611845447407,NA,40,900,1547.7799999993294,NA,NA,NA,NA,NA,NA,NA,NA,NA,NA,NA
"[{""page_index"":0,""viewing_time"":2025.3049999009818}]",2025.8449998218566,instructions,instructions,3,8452,0.0-3.0,SS1611845447407,NA,NA,NA,NA,NA,NA,NA,NA,NA,NA,NA,NA,NA,NA,NA
NA,1207.590000005439,instructions,html-keyboard-response,4,9666,0.0-4.0,SS1611845447407,NA,49,NA,NA,"<img src=images/stimuli/pokeballs_pref.jpg width =""800"" height = ""200"" style=""padding-top: 33%"">",1,left,NA,NA,NA,NA,NA,NA,NA,NA
NA,522.2449998836964,pref_reveal,sequential-stimulus-presentation,5,11099,0.0-5.0,SS1611845447407,NA,40,900,1422.2449998836964,NA,NA,NA,NA,NA,NA,NA,NA,NA,NA,NA
"[{""page_index"":0,""viewing_time"":4174.300000071526},{""page_index"":1,""viewing_time"":3111.784999957308},{""page_index"":2,""viewing_time"":991.4200000930578},{""page_index"":3,""viewing_time"":616.8649999890476}]",8895.160000072792,instructions,instructions,6,19997,0.0-6.0,SS1611845447407,NA,NA,NA,NA,NA,NA,NA,NA,NA,NA,NA,NA,NA,NA,NA
NA,null,NA,html-keyboard-response,7,21223,0.0-7.0-0.0,SS1611845447407,NA,null,NA,NA,"<p><img src= images/blank.png width =""200"" height = ""200"" style = ""float:right""></p><p><img src=images/blank.png width =""800"" height = ""200""></p>",NA,NA,NA,NA,NA,NA,NA,NA,NA,NA
NA,408.03500008769333,trial,sequential-stimulus-presentation,8,22539,0.0-7.0-1.0,SS1611845447407,NA,40,900,1308.0350000876933,NA,NA,NA,0,images/stimuli/spore_stims/complex_19_B_b.gif,middle,NA,NA,NA,NA,NA
NA,null,NA,html-keyboard-response,9,23756,0.0-7.0-0.1,SS1611845447407,NA,null,NA,NA,"<p><img src= images/blank.png width =""200"" height = ""200"" style = ""float:right""></p><p><img src=images/blank.png width =""800"" height = ""200""></p>",NA,NA,NA,NA,NA,NA,NA,NA,NA,NA
NA,428.41500020585954,trial,sequential-stimulus-presentation,10,25096,0.0-7.0-1.1,SS1611845447407,NA,40,900,1328.4150002058595,NA,NA,NA,0,images/stimuli/spore_stims/complex_19_B_b.gif,middle,NA,NA,NA,NA,NA
NA,null,NA,html-keyboard-response,11,25925,0.0-7.0-0.2,SS1611845447407,NA,null,NA,NA,"<p><img src= images/blank.png width =""200"" height = ""200"" style = ""float:right""></p><p><img src=images/blank.png width =""800"" height = ""200""></p>",NA,NA,NA,NA,NA,NA,NA,NA,NA,NA
NA,302.204999839887,trial,sequential-stimulus-presentation,12,27139,0.0-7.0-1.2,SS1611845447407,NA,40,900,1202.204999839887,NA,NA,NA,0,images/stimuli/spore_stims/complex_19_B_b.gif,middle,NA,NA,NA,NA,NA
NA,null,NA,html-keyboard-response,13,28233,0.0-7.0-0.3,SS1611845447407,NA,null,NA,NA,"<p><img src= images/blank.png width =""200"" height = ""200"" style = ""float:right""></p><p><img src=images/blank.png width =""800"" height = ""200""></p>",NA,NA,NA,NA,NA,NA,NA,NA,NA,NA
NA,349.8100000433624,trial,sequential-stimulus-presentation,14,29494,0.0-7.0-1.3,SS1611845447407,NA,40,900,1249.8100000433624,NA,NA,NA,0,images/stimuli/spore_stims/complex_19_B_b.gif,middle,NA,NA,NA,NA,NA
NA,null,NA,html-keyboard-response,15,30556,0.0-7.0-0.4,SS1611845447407,NA,null,NA,NA,"<p><img src= images/blank.png width =""200"" height = ""200"" style = ""float:right""></p><p><img src=images/blank.png width =""800"" height = ""200""></p>",NA,NA,NA,NA,NA,NA,NA,NA,NA,NA
NA,163.54999993927777,trial,sequential-stimulus-presentation,16,31632,0.0-7.0-1.4,SS1611845447407,NA,40,900,1063.5499999392778,NA,NA,NA,0,images/stimuli/spore_stims/complex_19_B_b.gif,middle,NA,NA,NA,NA,NA
NA,null,NA,html-keyboard-response,17,32922,0.0-7.0-0.5,SS1611845447407,NA,null,NA,NA,"<p><img src= images/blank.png width =""200"" height = ""200"" style = ""float:right""></p><p><img src=images/blank.png width =""800"" height = ""200""></p>",NA,NA,NA,NA,NA,NA,NA,NA,NA,NA
NA,330.2350000012666,trial,sequential-stimulus-presentation,18,34168,0.0-7.0-1.5,SS1611845447407,NA,40,900,1230.2350000012666,NA,NA,NA,0,images/stimuli/spore_stims/complex_19_B_b.gif,middle,NA,NA,NA,NA,NA
NA,null,NA,html-keyboard-response,19,35196,0.0-7.0-0.6,SS1611845447407,NA,null,NA,NA,"<p><img src= images/blank.png width =""200"" height = ""200"" style = ""float:right""></p><p><img src=images/blank.png width =""800"" height = ""200""></p>",NA,NA,NA,NA,NA,NA,NA,NA,NA,NA
NA,336.210000095889,trial,sequential-stimulus-presentation,20,36448,0.0-7.0-1.6,SS1611845447407,NA,40,900,1236.210000095889,NA,NA,NA,0,images/stimuli/spore_stims/complex_19_B_b.gif,middle,NA,NA,NA,NA,NA
NA,null,NA,html-keyboard-response,21,37585,0.0-7.0-0.7,SS1611845447407,NA,null,NA,NA,"<p><img src= images/blank.png width =""200"" height = ""200"" style = ""float:right""></p><p><img src=images/blank.png width =""800"" height = ""200""></p>",NA,NA,NA,NA,NA,NA,NA,NA,NA,NA
NA,375.11000013910234,trial,sequential-stimulus-presentation,22,38878,0.0-7.0-1.7,SS1611845447407,NA,40,900,1275.1100001391023,NA,NA,NA,0,images/stimuli/spore_stims/complex_19_A_b.gif,left,NA,NA,NA,NA,NA
NA,964.5999998319894,pref_question,html-keyboard-response,23,39854,0.0-8.0,SS1611845447407,NA,49,NA,NA,"<img src=images/stimuli/pokeballs_pref.jpg width =""800"" height = ""200"" style=""padding-top: 33%"">",1,left,0,NA,NA,NA,NA,NA,NA,NA
NA,817.8499999921769,pref_reveal,sequential-stimulus-presentation,24,41588,0.0-9.0,SS1611845447407,NA,40,900,1717.849999992177,NA,NA,NA,0,NA,NA,deviant,NA,NA,NA,NA
NA,null,NA,html-keyboard-response,25,42727,0.0-10.0-0.0,SS1611845447407,NA,null,NA,NA,"<p><img src= images/blank.png width =""200"" height = ""200"" style = ""float:right""></p><p><img src=images/blank.png width =""800"" height = ""200""></p>",NA,NA,NA,NA,NA,NA,NA,NA,NA,NA
NA,853.059999877587,trial,sequential-stimulus-presentation,26,44497,0.0-10.0-1.0,SS1611845447407,NA,40,900,1753.059999877587,NA,NA,NA,1,images/stimuli/spore_stims/complex_12_B_b.gif,middle,NA,NA,NA,NA,NA
NA,null,NA,html-keyboard-response,27,45585,0.0-10.0-0.1,SS1611845447407,NA,null,NA,NA,"<p><img src= images/blank.png width =""200"" height = ""200"" style = ""float:right""></p><p><img src=images/blank.png width =""800"" height = ""200""></p>",NA,NA,NA,NA,NA,NA,NA,NA,NA,NA
NA,803.5200000740588,trial,sequential-stimulus-presentation,28,47307,0.0-10.0-1.1,SS1611845447407,NA,40,900,1703.5200000740588,NA,NA,NA,1,images/stimuli/spore_stims/complex_12_B_b.gif,middle,NA,NA,NA,NA,NA
NA,null,NA,html-keyboard-response,29,48226,0.0-10.0-0.2,SS1611845447407,NA,null,NA,NA,"<p><img src= images/blank.png width =""200"" height = ""200"" style = ""float:right""></p><p><img src=images/blank.png width =""800"" height = ""200""></p>",NA,NA,NA,NA,NA,NA,NA,NA,NA,NA
NA,773.4700001310557,trial,sequential-stimulus-presentation,30,49918,0.0-10.0-1.2,SS1611845447407,NA,40,900,1673.4700001310557,NA,NA,NA,1,images/stimuli/spore_stims/complex_12_B_b.gif,middle,NA,NA,NA,NA,NA
NA,null,NA,html-keyboard-response,31,50983,0.0-10.0-0.3,SS1611845447407,NA,null,NA,NA,"<p><img src= images/blank.png width =""200"" height = ""200"" style = ""float:right""></p><p><img src=images/blank.png width =""800"" height = ""200""></p>",NA,NA,NA,NA,NA,NA,NA,NA,NA,NA
NA,501.30999996326864,trial,sequential-stimulus-presentation,32,52404,0.0-10.0-1.3,SS1611845447407,NA,40,900,1401.3099999632686,NA,NA,NA,1,images/stimuli/spore_stims/complex_12_B_b.gif,middle,NA,NA,NA,NA,NA
NA,null,NA,html-keyboard-response,33,53453,0.0-10.0-0.4,SS1611845447407,NA,null,NA,NA,"<p><img src= images/blank.png width =""200"" height = ""200"" style = ""float:right""></p><p><img src=images/blank.png width =""800"" height = ""200""></p>",NA,NA,NA,NA,NA,NA,NA,NA,NA,NA
NA,402.91499998420477,trial,sequential-stimulus-presentation,34,54777,0.0-10.0-1.4,SS1611845447407,NA,40,900,1302.9149999842048,NA,NA,NA,1,images/stimuli/spore_stims/complex_12_B_b.gif,middle,NA,NA,NA,NA,NA
NA,null,NA,html-keyboard-response,35,55699,0.0-10.0-0.5,SS1611845447407,NA,null,NA,NA,"<p><img src= images/blank.png width =""200"" height = ""200"" style = ""float:right""></p><p><img src=images/blank.png width =""800"" height = ""200""></p>",NA,NA,NA,NA,NA,NA,NA,NA,NA,NA
NA,280.4999998770654,trial,sequential-stimulus-presentation,36,56904,0.0-10.0-1.5,SS1611845447407,NA,40,900,1180.4999998770654,NA,NA,NA,1,images/stimuli/spore_stims/complex_12_B_b.gif,middle,NA,NA,NA,NA,NA
NA,null,NA,html-keyboard-response,37,58132,0.0-10.0-0.6,SS1611845447407,NA,null,NA,NA,"<p><img src= images/blank.png width =""200"" height = ""200"" style = ""float:right""></p><p><img src=images/blank.png width =""800"" height = ""200""></p>",NA,NA,NA,NA,NA,NA,NA,NA,NA,NA
NA,450.4450000822544,trial,sequential-stimulus-presentation,38,59501,0.0-10.0-1.6,SS1611845447407,NA,40,900,1350.4450000822544,NA,NA,NA,1,images/stimuli/spore_stims/complex_12_B_b.gif,middle,NA,NA,NA,NA,NA
NA,null,NA,html-keyboard-response,39,60797,0.0-10.0-0.7,SS1611845447407,NA,null,NA,NA,"<p><img src= images/blank.png width =""200"" height = ""200"" style = ""float:right""></p><p><img src=images/blank.png width =""800"" height = ""200""></p>",NA,NA,NA,NA,NA,NA,NA,NA,NA,NA
NA,2507.7349999919534,trial,sequential-stimulus-presentation,40,64225,0.0-10.0-1.7,SS1611845447407,NA,40,900,3407.7349999919534,NA,NA,NA,1,images/stimuli/spore_stims/complex_12_A_b.gif,left,NA,NA,NA,NA,NA
NA,3586.464999942109,pref_question,html-keyboard-response,41,67831,0.0-11.0,SS1611845447407,NA,51,NA,NA,"<img src=images/stimuli/pokeballs_pref.jpg width =""800"" height = ""200"" style=""padding-top: 33%"">",3,right,1,NA,NA,NA,NA,NA,NA,NA
NA,948.4449999872595,pref_reveal,sequential-stimulus-presentation,42,69704,0.0-12.0,SS1611845447407,NA,40,900,1848.4449999872595,NA,NA,NA,1,NA,NA,novel,NA,NA,NA,NA
NA,null,NA,html-keyboard-response,43,70980,0.0-13.0-0.0,SS1611845447407,NA,null,NA,NA,"<p><img src= images/blank.png width =""200"" height = ""200"" style = ""float:right""></p><p><img src=images/blank.png width =""800"" height = ""200""></p>",NA,NA,NA,NA,NA,NA,NA,NA,NA,NA
NA,488.3150001987815,trial,sequential-stimulus-presentation,44,72390,0.0-13.0-1.0,SS1611845447407,NA,40,900,1388.3150001987815,NA,NA,NA,2,images/stimuli/spore_stims/simple_02_B_a.gif,left,NA,NA,NA,NA,NA
NA,null,NA,html-keyboard-response,45,73670,0.0-13.0-0.1,SS1611845447407,NA,null,NA,NA,"<p><img src= images/blank.png width =""200"" height = ""200"" style = ""float:right""></p><p><img src=images/blank.png width =""800"" height = ""200""></p>",NA,NA,NA,NA,NA,NA,NA,NA,NA,NA
NA,341.2399999797344,trial,sequential-stimulus-presentation,46,74934,0.0-13.0-1.1,SS1611845447407,NA,40,900,1241.2399999797344,NA,NA,NA,2,images/stimuli/spore_stims/simple_02_B_a.gif,left,NA,NA,NA,NA,NA
NA,null,NA,html-keyboard-response,47,75963,0.0-13.0-0.2,SS1611845447407,NA,null,NA,NA,"<p><img src= images/blank.png width =""200"" height = ""200"" style = ""float:right""></p><p><img src=images/blank.png width =""800"" height = ""200""></p>",NA,NA,NA,NA,NA,NA,NA,NA,NA,NA
NA,402.0850001834333,trial,sequential-stimulus-presentation,48,77287,0.0-13.0-1.2,SS1611845447407,NA,40,900,1302.0850001834333,NA,NA,NA,2,images/stimuli/spore_stims/simple_02_B_a.gif,left,NA,NA,NA,NA,NA
NA,null,NA,html-keyboard-response,49,78376,0.0-13.0-0.3,SS1611845447407,NA,null,NA,NA,"<p><img src= images/blank.png width =""200"" height = ""200"" style = ""float:right""></p><p><img src=images/blank.png width =""800"" height = ""200""></p>",NA,NA,NA,NA,NA,NA,NA,NA,NA,NA
NA,570.8749999757856,trial,sequential-stimulus-presentation,50,79870,0.0-13.0-1.3,SS1611845447407,NA,40,900,1470.8749999757856,NA,NA,NA,2,images/stimuli/spore_stims/simple_02_A_a.gif,middle,NA,NA,NA,NA,NA
NA,null,NA,html-keyboard-response,51,80868,0.0-13.0-0.4,SS1611845447407,NA,null,NA,NA,"<p><img src= images/blank.png width =""200"" height = ""200"" style = ""float:right""></p><p><img src=images/blank.png width =""800"" height = ""200""></p>",NA,NA,NA,NA,NA,NA,NA,NA,NA,NA
NA,972.1750000026077,trial,sequential-stimulus-presentation,52,82766,0.0-13.0-1.4,SS1611845447407,NA,40,900,1872.1750000026077,NA,NA,NA,2,images/stimuli/spore_stims/simple_02_B_a.gif,left,NA,NA,NA,NA,NA
NA,null,NA,html-keyboard-response,53,83962,0.0-13.0-0.5,SS1611845447407,NA,null,NA,NA,"<p><img src= images/blank.png width =""200"" height = ""200"" style = ""float:right""></p><p><img src=images/blank.png width =""800"" height = ""200""></p>",NA,NA,NA,NA,NA,NA,NA,NA,NA,NA
NA,728.5200001206249,trial,sequential-stimulus-presentation,54,85615,0.0-13.0-1.5,SS1611845447407,NA,40,900,1628.520000120625,NA,NA,NA,2,images/stimuli/spore_stims/simple_02_B_a.gif,left,NA,NA,NA,NA,NA
NA,null,NA,html-keyboard-response,55,86637,0.0-13.0-0.6,SS1611845447407,NA,null,NA,NA,"<p><img src= images/blank.png width =""200"" height = ""200"" style = ""float:right""></p><p><img src=images/blank.png width =""800"" height = ""200""></p>",NA,NA,NA,NA,NA,NA,NA,NA,NA,NA
NA,1137.150000082329,trial,sequential-stimulus-presentation,56,88703,0.0-13.0-1.6,SS1611845447407,NA,40,900,2037.150000082329,NA,NA,NA,2,images/stimuli/spore_stims/simple_02_B_a.gif,left,NA,NA,NA,NA,NA
NA,null,NA,html-keyboard-response,57,89775,0.0-13.0-0.7,SS1611845447407,NA,null,NA,NA,"<p><img src= images/blank.png width =""200"" height = ""200"" style = ""float:right""></p><p><img src=images/blank.png width =""800"" height = ""200""></p>",NA,NA,NA,NA,NA,NA,NA,NA,NA,NA
NA,113.05499984882772,trial,sequential-stimulus-presentation,58,90813,0.0-13.0-1.7,SS1611845447407,NA,40,900,1013.0549998488277,NA,NA,NA,2,images/stimuli/spore_stims/simple_02_B_a.gif,left,NA,NA,NA,NA,NA
NA,1110.8300001360476,pref_question,html-keyboard-response,59,91943,0.0-14.0,SS1611845447407,NA,50,NA,NA,"<img src=images/stimuli/pokeballs_pref.jpg width =""800"" height = ""200"" style=""padding-top: 33%"">",2,middle,2,NA,NA,NA,NA,NA,NA,NA
NA,360.4150000028312,pref_reveal,sequential-stimulus-presentation,60,93229,0.0-15.0,SS1611845447407,NA,40,900,1260.4150000028312,NA,NA,NA,2,NA,NA,deviant,NA,NA,NA,NA
NA,null,NA,html-keyboard-response,61,94318,0.0-16.0-0.0,SS1611845447407,NA,null,NA,NA,"<p><img src= images/blank.png width =""200"" height = ""200"" style = ""float:right""></p><p><img src=images/blank.png width =""800"" height = ""200""></p>",NA,NA,NA,NA,NA,NA,NA,NA,NA,NA
NA,856.3149999827147,trial,sequential-stimulus-presentation,62,96101,0.0-16.0-1.0,SS1611845447407,NA,40,900,1756.3149999827147,NA,NA,NA,3,images/stimuli/spore_stims/complex_07_A_b.gif,right,NA,NA,NA,NA,NA
NA,null,NA,html-keyboard-response,63,97016,0.0-16.0-0.1,SS1611845447407,NA,null,NA,NA,"<p><img src= images/blank.png width =""200"" height = ""200"" style = ""float:right""></p><p><img src=images/blank.png width =""800"" height = ""200""></p>",NA,NA,NA,NA,NA,NA,NA,NA,NA,NA
NA,311.930000083521,trial,sequential-stimulus-presentation,64,98243,0.0-16.0-1.1,SS1611845447407,NA,40,900,1211.930000083521,NA,NA,NA,3,images/stimuli/spore_stims/complex_07_A_b.gif,right,NA,NA,NA,NA,NA
NA,null,NA,html-keyboard-response,65,99117,0.0-16.0-0.2,SS1611845447407,NA,null,NA,NA,"<p><img src= images/blank.png width =""200"" height = ""200"" style = ""float:right""></p><p><img src=images/blank.png width =""800"" height = ""200""></p>",NA,NA,NA,NA,NA,NA,NA,NA,NA,NA
NA,475.6050000432879,trial,sequential-stimulus-presentation,66,100506,0.0-16.0-1.2,SS1611845447407,NA,40,900,1375.6050000432879,NA,NA,NA,3,images/stimuli/spore_stims/complex_07_A_b.gif,right,NA,NA,NA,NA,NA
NA,null,NA,html-keyboard-response,67,101694,0.0-16.0-0.3,SS1611845447407,NA,null,NA,NA,"<p><img src= images/blank.png width =""200"" height = ""200"" style = ""float:right""></p><p><img src=images/blank.png width =""800"" height = ""200""></p>",NA,NA,NA,NA,NA,NA,NA,NA,NA,NA
NA,1162.3949999921024,trial,sequential-stimulus-presentation,68,103771,0.0-16.0-1.3,SS1611845447407,NA,40,900,2062.3949999921024,NA,NA,NA,3,images/stimuli/spore_stims/complex_07_A_b.gif,right,NA,NA,NA,NA,NA
NA,null,NA,html-keyboard-response,69,104882,0.0-16.0-0.4,SS1611845447407,NA,null,NA,NA,"<p><img src= images/blank.png width =""200"" height = ""200"" style = ""float:right""></p><p><img src=images/blank.png width =""800"" height = ""200""></p>",NA,NA,NA,NA,NA,NA,NA,NA,NA,NA
NA,265.74499998241663,trial,sequential-stimulus-presentation,70,106061,0.0-16.0-1.4,SS1611845447407,NA,40,900,1165.7449999824166,NA,NA,NA,3,images/stimuli/spore_stims/complex_07_A_b.gif,right,NA,NA,NA,NA,NA
NA,null,NA,html-keyboard-response,71,107233,0.0-16.0-0.5,SS1611845447407,NA,null,NA,NA,"<p><img src= images/blank.png width =""200"" height = ""200"" style = ""float:right""></p><p><img src=images/blank.png width =""800"" height = ""200""></p>",NA,NA,NA,NA,NA,NA,NA,NA,NA,NA
NA,599.5600000023842,trial,sequential-stimulus-presentation,72,108746,0.0-16.0-1.5,SS1611845447407,NA,40,900,1499.5600000023842,NA,NA,NA,3,images/stimuli/spore_stims/complex_07_A_b.gif,right,NA,NA,NA,NA,NA
NA,null,NA,html-keyboard-response,73,109932,0.0-16.0-0.6,SS1611845447407,NA,null,NA,NA,"<p><img src= images/blank.png width =""200"" height = ""200"" style = ""float:right""></p><p><img src=images/blank.png width =""800"" height = ""200""></p>",NA,NA,NA,NA,NA,NA,NA,NA,NA,NA
NA,328.34500004537404,trial,sequential-stimulus-presentation,74,111175,0.0-16.0-1.6,SS1611845447407,NA,40,900,1228.345000045374,NA,NA,NA,3,images/stimuli/spore_stims/complex_07_B_d.gif,middle,NA,NA,NA,NA,NA
NA,null,NA,html-keyboard-response,75,112382,0.0-16.0-0.7,SS1611845447407,NA,null,NA,NA,"<p><img src= images/blank.png width =""200"" height = ""200"" style = ""float:right""></p><p><img src=images/blank.png width =""800"" height = ""200""></p>",NA,NA,NA,NA,NA,NA,NA,NA,NA,NA
NA,213.1450001616031,trial,sequential-stimulus-presentation,76,113524,0.0-16.0-1.7,SS1611845447407,NA,40,900,1113.145000161603,NA,NA,NA,3,images/stimuli/spore_stims/complex_07_A_b.gif,right,NA,NA,NA,NA,NA
NA,1172.034999821335,pref_question,html-keyboard-response,77,114716,0.0-17.0,SS1611845447407,NA,50,NA,NA,"<img src=images/stimuli/pokeballs_pref.jpg width =""800"" height = ""200"" style=""padding-top: 33%"">",2,middle,3,NA,NA,NA,NA,NA,NA,NA
NA,520.3249999321997,pref_reveal,sequential-stimulus-presentation,78,116158,0.0-18.0,SS1611845447407,NA,40,900,1420.3249999321997,NA,NA,NA,3,NA,NA,deviant,NA,NA,NA,NA
NA,null,NA,html-keyboard-response,79,117416,0.0-19.0-0.0,SS1611845447407,NA,null,NA,NA,"<p><img src= images/blank.png width =""200"" height = ""200"" style = ""float:right""></p><p><img src=images/blank.png width =""800"" height = ""200""></p>",NA,NA,NA,NA,NA,NA,NA,NA,NA,NA
NA,347.28500014171004,trial,sequential-stimulus-presentation,80,118693,0.0-19.0-1.0,SS1611845447407,NA,40,900,1247.28500014171,NA,NA,NA,4,images/stimuli/spore_stims/complex_20_B_c.gif,left,NA,NA,NA,NA,NA
NA,null,NA,html-keyboard-response,81,119931,0.0-19.0-0.1,SS1611845447407,NA,null,NA,NA,"<p><img src= images/blank.png width =""200"" height = ""200"" style = ""float:right""></p><p><img src=images/blank.png width =""800"" height = ""200""></p>",NA,NA,NA,NA,NA,NA,NA,NA,NA,NA
NA,175.12000002898276,trial,sequential-stimulus-presentation,82,121037,0.0-19.0-1.1,SS1611845447407,NA,40,900,1075.1200000289828,NA,NA,NA,4,images/stimuli/spore_stims/complex_20_B_c.gif,left,NA,NA,NA,NA,NA
NA,null,NA,html-keyboard-response,83,121950,0.0-19.0-0.2,SS1611845447407,NA,null,NA,NA,"<p><img src= images/blank.png width =""200"" height = ""200"" style = ""float:right""></p><p><img src=images/blank.png width =""800"" height = ""200""></p>",NA,NA,NA,NA,NA,NA,NA,NA,NA,NA
NA,292.02499985694885,trial,sequential-stimulus-presentation,84,123177,0.0-19.0-1.2,SS1611845447407,NA,40,900,1192.0249998569489,NA,NA,NA,4,images/stimuli/spore_stims/complex_20_B_c.gif,left,NA,NA,NA,NA,NA
NA,null,NA,html-keyboard-response,85,124253,0.0-19.0-0.3,SS1611845447407,NA,null,NA,NA,"<p><img src= images/blank.png width =""200"" height = ""200"" style = ""float:right""></p><p><img src=images/blank.png width =""800"" height = ""200""></p>",NA,NA,NA,NA,NA,NA,NA,NA,NA,NA
NA,330.8600001037121,trial,sequential-stimulus-presentation,86,125517,0.0-19.0-1.3,SS1611845447407,NA,40,900,1230.860000103712,NA,NA,NA,4,images/stimuli/spore_stims/complex_20_B_c.gif,left,NA,NA,NA,NA,NA
NA,null,NA,html-keyboard-response,87,126812,0.0-19.0-0.4,SS1611845447407,NA,null,NA,NA,"<p><img src= images/blank.png width =""200"" height = ""200"" style = ""float:right""></p><p><img src=images/blank.png width =""800"" height = ""200""></p>",NA,NA,NA,NA,NA,NA,NA,NA,NA,NA
NA,477.794999955222,trial,sequential-stimulus-presentation,88,128222,0.0-19.0-1.4,SS1611845447407,NA,40,900,1377.794999955222,NA,NA,NA,4,images/stimuli/spore_stims/complex_20_B_c.gif,left,NA,NA,NA,NA,NA
NA,null,NA,html-keyboard-response,89,129495,0.0-19.0-0.5,SS1611845447407,NA,null,NA,NA,"<p><img src= images/blank.png width =""200"" height = ""200"" style = ""float:right""></p><p><img src=images/blank.png width =""800"" height = ""200""></p>",NA,NA,NA,NA,NA,NA,NA,NA,NA,NA
NA,515.360000077635,trial,sequential-stimulus-presentation,90,130943,0.0-19.0-1.5,SS1611845447407,NA,40,900,1415.360000077635,NA,NA,NA,4,images/stimuli/spore_stims/complex_20_B_c.gif,left,NA,NA,NA,NA,NA
NA,null,NA,html-keyboard-response,91,131855,0.0-19.0-0.6,SS1611845447407,NA,null,NA,NA,"<p><img src= images/blank.png width =""200"" height = ""200"" style = ""float:right""></p><p><img src=images/blank.png width =""800"" height = ""200""></p>",NA,NA,NA,NA,NA,NA,NA,NA,NA,NA
NA,418.17999980412424,trial,sequential-stimulus-presentation,92,133206,0.0-19.0-1.6,SS1611845447407,NA,40,900,1318.1799998041242,NA,NA,NA,4,images/stimuli/spore_stims/complex_18_A_a.gif,middle,NA,NA,NA,NA,NA
NA,null,NA,html-keyboard-response,93,134460,0.0-19.0-0.7,SS1611845447407,NA,null,NA,NA,"<p><img src= images/blank.png width =""200"" height = ""200"" style = ""float:right""></p><p><img src=images/blank.png width =""800"" height = ""200""></p>",NA,NA,NA,NA,NA,NA,NA,NA,NA,NA
NA,678.2100000418723,trial,sequential-stimulus-presentation,94,136073,0.0-19.0-1.7,SS1611845447407,NA,40,900,1578.2100000418723,NA,NA,NA,4,images/stimuli/spore_stims/complex_20_B_c.gif,left,NA,NA,NA,NA,NA
NA,1118.8399998936802,pref_question,html-keyboard-response,95,137223,0.0-20.0,SS1611845447407,NA,49,NA,NA,"<img src=images/stimuli/pokeballs_pref.jpg width =""800"" height = ""200"" style=""padding-top: 33%"">",1,left,4,NA,NA,NA,NA,NA,NA,NA
NA,560.2750000543892,pref_reveal,sequential-stimulus-presentation,96,138717,0.0-21.0,SS1611845447407,NA,40,900,1460.2750000543892,NA,NA,NA,4,NA,NA,background,NA,NA,NA,NA
NA,null,NA,html-keyboard-response,97,139572,0.0-22.0-0.0,SS1611845447407,NA,null,NA,NA,"<p><img src= images/blank.png width =""200"" height = ""200"" style = ""float:right""></p><p><img src=images/blank.png width =""800"" height = ""200""></p>",NA,NA,NA,NA,NA,NA,NA,NA,NA,NA
NA,939.5500000100583,trial,sequential-stimulus-presentation,98,141446,0.0-22.0-1.0,SS1611845447407,NA,40,900,1839.5500000100583,NA,NA,NA,5,images/stimuli/spore_stims/simple_07_B_a.gif,right,NA,NA,NA,NA,NA
NA,null,NA,html-keyboard-response,99,142420,0.0-22.0-0.1,SS1611845447407,NA,null,NA,NA,"<p><img src= images/blank.png width =""200"" height = ""200"" style = ""float:right""></p><p><img src=images/blank.png width =""800"" height = ""200""></p>",NA,NA,NA,NA,NA,NA,NA,NA,NA,NA
NA,940.544999903068,trial,sequential-stimulus-presentation,100,144296,0.0-22.0-1.1,SS1611845447407,NA,40,900,1840.544999903068,NA,NA,NA,5,images/stimuli/spore_stims/simple_07_B_a.gif,right,NA,NA,NA,NA,NA
NA,null,NA,html-keyboard-response,101,145300,0.0-22.0-0.2,SS1611845447407,NA,null,NA,NA,"<p><img src= images/blank.png width =""200"" height = ""200"" style = ""float:right""></p><p><img src=images/blank.png width =""800"" height = ""200""></p>",NA,NA,NA,NA,NA,NA,NA,NA,NA,NA
NA,325.60999994166195,trial,sequential-stimulus-presentation,102,146560,0.0-22.0-1.2,SS1611845447407,NA,40,900,1225.609999941662,NA,NA,NA,5,images/stimuli/spore_stims/simple_07_B_a.gif,right,NA,NA,NA,NA,NA
NA,null,NA,html-keyboard-response,103,147636,0.0-22.0-0.3,SS1611845447407,NA,null,NA,NA,"<p><img src= images/blank.png width =""200"" height = ""200"" style = ""float:right""></p><p><img src=images/blank.png width =""800"" height = ""200""></p>",NA,NA,NA,NA,NA,NA,NA,NA,NA,NA
NA,732.5000001583248,trial,sequential-stimulus-presentation,104,149304,0.0-22.0-1.3,SS1611845447407,NA,40,900,1632.5000001583248,NA,NA,NA,5,images/stimuli/spore_stims/simple_07_B_a.gif,right,NA,NA,NA,NA,NA
NA,null,NA,html-keyboard-response,105,150441,0.0-22.0-0.4,SS1611845447407,NA,null,NA,NA,"<p><img src= images/blank.png width =""200"" height = ""200"" style = ""float:right""></p><p><img src=images/blank.png width =""800"" height = ""200""></p>",NA,NA,NA,NA,NA,NA,NA,NA,NA,NA
NA,1313.5899999178946,trial,sequential-stimulus-presentation,106,152693,0.0-22.0-1.4,SS1611845447407,NA,40,900,2213.5899999178946,NA,NA,NA,5,images/stimuli/spore_stims/simple_07_B_a.gif,right,NA,NA,NA,NA,NA
NA,null,NA,html-keyboard-response,107,153903,0.0-22.0-0.5,SS1611845447407,NA,null,NA,NA,"<p><img src= images/blank.png width =""200"" height = ""200"" style = ""float:right""></p><p><img src=images/blank.png width =""800"" height = ""200""></p>",NA,NA,NA,NA,NA,NA,NA,NA,NA,NA
NA,1594.4450001697987,trial,sequential-stimulus-presentation,108,156434,0.0-22.0-1.5,SS1611845447407,NA,40,900,2494.4450001697987,NA,NA,NA,5,images/stimuli/spore_stims/simple_07_A_a.gif,left,NA,NA,NA,NA,NA
NA,null,NA,html-keyboard-response,109,157289,0.0-22.0-0.6,SS1611845447407,NA,null,NA,NA,"<p><img src= images/blank.png width =""200"" height = ""200"" style = ""float:right""></p><p><img src=images/blank.png width =""800"" height = ""200""></p>",NA,NA,NA,NA,NA,NA,NA,NA,NA,NA
NA,654.9849999137223,trial,sequential-stimulus-presentation,110,158883,0.0-22.0-1.6,SS1611845447407,NA,40,900,1554.9849999137223,NA,NA,NA,5,images/stimuli/spore_stims/simple_07_B_a.gif,right,NA,NA,NA,NA,NA
NA,null,NA,html-keyboard-response,111,160182,0.0-22.0-0.7,SS1611845447407,NA,null,NA,NA,"<p><img src= images/blank.png width =""200"" height = ""200"" style = ""float:right""></p><p><img src=images/blank.png width =""800"" height = ""200""></p>",NA,NA,NA,NA,NA,NA,NA,NA,NA,NA
NA,374.23000019043684,trial,sequential-stimulus-presentation,112,161496,0.0-22.0-1.7,SS1611845447407,NA,40,900,1274.2300001904368,NA,NA,NA,5,images/stimuli/spore_stims/simple_07_B_a.gif,right,NA,NA,NA,NA,NA
NA,1130.3949998691678,pref_question,html-keyboard-response,113,162660,0.0-23.0,SS1611845447407,NA,49,NA,NA,"<img src=images/stimuli/pokeballs_pref.jpg width =""800"" height = ""200"" style=""padding-top: 33%"">",1,left,5,NA,NA,NA,NA,NA,NA,NA
NA,370.0050001498312,pref_reveal,sequential-stimulus-presentation,114,163963,0.0-24.0,SS1611845447407,NA,40,900,1270.0050001498312,NA,NA,NA,5,NA,NA,deviant,NA,NA,NA,NA
NA,null,NA,html-keyboard-response,115,165066,0.0-25.0-0.0,SS1611845447407,NA,null,NA,NA,"<p><img src= images/blank.png width =""200"" height = ""200"" style = ""float:right""></p><p><img src=images/blank.png width =""800"" height = ""200""></p>",NA,NA,NA,NA,NA,NA,NA,NA,NA,NA
NA,402.05999999307096,trial,sequential-stimulus-presentation,116,166406,0.0-25.0-1.0,SS1611845447407,NA,40,900,1302.059999993071,NA,NA,NA,6,images/stimuli/spore_stims/simple_18_B_a.gif,middle,NA,NA,NA,NA,NA
NA,null,NA,html-keyboard-response,117,167654,0.0-25.0-0.1,SS1611845447407,NA,null,NA,NA,"<p><img src= images/blank.png width =""200"" height = ""200"" style = ""float:right""></p><p><img src=images/blank.png width =""800"" height = ""200""></p>",NA,NA,NA,NA,NA,NA,NA,NA,NA,NA
NA,515.929999994114,trial,sequential-stimulus-presentation,118,169109,0.0-25.0-1.1,SS1611845447407,NA,40,900,1415.929999994114,NA,NA,NA,6,images/stimuli/spore_stims/simple_18_B_a.gif,middle,NA,NA,NA,NA,NA
NA,null,NA,html-keyboard-response,119,169953,0.0-25.0-0.2,SS1611845447407,NA,null,NA,NA,"<p><img src= images/blank.png width =""200"" height = ""200"" style = ""float:right""></p><p><img src=images/blank.png width =""800"" height = ""200""></p>",NA,NA,NA,NA,NA,NA,NA,NA,NA,NA
NA,371.21000001206994,trial,sequential-stimulus-presentation,120,171263,0.0-25.0-1.2,SS1611845447407,NA,40,900,1271.21000001207,NA,NA,NA,6,images/stimuli/spore_stims/simple_18_B_a.gif,middle,NA,NA,NA,NA,NA
NA,null,NA,html-keyboard-response,121,172447,0.0-25.0-0.3,SS1611845447407,NA,null,NA,NA,"<p><img src= images/blank.png width =""200"" height = ""200"" style = ""float:right""></p><p><img src=images/blank.png width =""800"" height = ""200""></p>",NA,NA,NA,NA,NA,NA,NA,NA,NA,NA
NA,469.51500000432134,trial,sequential-stimulus-presentation,122,173855,0.0-25.0-1.3,SS1611845447407,NA,40,900,1369.5150000043213,NA,NA,NA,6,images/stimuli/spore_stims/simple_18_A_a.gif,left,NA,NA,NA,NA,NA
NA,null,NA,html-keyboard-response,123,174708,0.0-25.0-0.4,SS1611845447407,NA,null,NA,NA,"<p><img src= images/blank.png width =""200"" height = ""200"" style = ""float:right""></p><p><img src=images/blank.png width =""800"" height = ""200""></p>",NA,NA,NA,NA,NA,NA,NA,NA,NA,NA
NA,497.050000121817,trial,sequential-stimulus-presentation,124,176139,0.0-25.0-1.4,SS1611845447407,NA,40,900,1397.050000121817,NA,NA,NA,6,images/stimuli/spore_stims/simple_18_B_a.gif,middle,NA,NA,NA,NA,NA
NA,null,NA,html-keyboard-response,125,177003,0.0-25.0-0.5,SS1611845447407,NA,null,NA,NA,"<p><img src= images/blank.png width =""200"" height = ""200"" style = ""float:right""></p><p><img src=images/blank.png width =""800"" height = ""200""></p>",NA,NA,NA,NA,NA,NA,NA,NA,NA,NA
NA,986.4199999719858,trial,sequential-stimulus-presentation,126,178930,0.0-25.0-1.5,SS1611845447407,NA,40,900,1886.4199999719858,NA,NA,NA,6,images/stimuli/spore_stims/simple_18_B_a.gif,middle,NA,NA,NA,NA,NA
NA,null,NA,html-keyboard-response,127,179903,0.0-25.0-0.6,SS1611845447407,NA,null,NA,NA,"<p><img src= images/blank.png width =""200"" height = ""200"" style = ""float:right""></p><p><img src=images/blank.png width =""800"" height = ""200""></p>",NA,NA,NA,NA,NA,NA,NA,NA,NA,NA
NA,600.269999820739,trial,sequential-stimulus-presentation,128,181446,0.0-25.0-1.6,SS1611845447407,NA,40,900,1500.269999820739,NA,NA,NA,6,images/stimuli/spore_stims/simple_18_B_a.gif,middle,NA,NA,NA,NA,NA
NA,null,NA,html-keyboard-response,129,182569,0.0-25.0-0.7,SS1611845447407,NA,null,NA,NA,"<p><img src= images/blank.png width =""200"" height = ""200"" style = ""float:right""></p><p><img src=images/blank.png width =""800"" height = ""200""></p>",NA,NA,NA,NA,NA,NA,NA,NA,NA,NA
NA,292.3600000794977,trial,sequential-stimulus-presentation,130,183788,0.0-25.0-1.7,SS1611845447407,NA,40,900,1192.3600000794977,NA,NA,NA,6,images/stimuli/spore_stims/simple_18_B_a.gif,middle,NA,NA,NA,NA,NA
NA,1453.4950000233948,pref_question,html-keyboard-response,131,185267,0.0-26.0,SS1611845447407,NA,51,NA,NA,"<img src=images/stimuli/pokeballs_pref.jpg width =""800"" height = ""200"" style=""padding-top: 33%"">",3,right,6,NA,NA,NA,NA,NA,NA,NA
NA,3844.160000095144,pref_reveal,sequential-stimulus-presentation,132,190041,0.0-27.0,SS1611845447407,NA,40,900,4744.160000095144,NA,NA,NA,6,NA,NA,novel,NA,NA,NA,NA
NA,null,NA,html-keyboard-response,133,190903,0.0-28.0-0.0,SS1611845447407,NA,null,NA,NA,"<p><img src= images/blank.png width =""200"" height = ""200"" style = ""float:right""></p><p><img src=images/blank.png width =""800"" height = ""200""></p>",NA,NA,NA,NA,NA,NA,NA,NA,NA,NA
NA,414.69500004313886,trial,sequential-stimulus-presentation,134,192245,0.0-28.0-1.0,SS1611845447407,NA,40,900,1314.6950000431389,NA,NA,NA,7,images/stimuli/spore_stims/complex_10_A_c.gif,middle,NA,NA,NA,NA,NA
NA,null,NA,html-keyboard-response,135,193347,0.0-28.0-0.1,SS1611845447407,NA,null,NA,NA,"<p><img src= images/blank.png width =""200"" height = ""200"" style = ""float:right""></p><p><img src=images/blank.png width =""800"" height = ""200""></p>",NA,NA,NA,NA,NA,NA,NA,NA,NA,NA
NA,1345.8199999295175,trial,sequential-stimulus-presentation,136,195634,0.0-28.0-1.1,SS1611845447407,NA,40,900,2245.8199999295175,NA,NA,NA,7,images/stimuli/spore_stims/complex_10_A_c.gif,middle,NA,NA,NA,NA,NA
NA,null,NA,html-keyboard-response,137,196578,0.0-28.0-0.2,SS1611845447407,NA,null,NA,NA,"<p><img src= images/blank.png width =""200"" height = ""200"" style = ""float:right""></p><p><img src=images/blank.png width =""800"" height = ""200""></p>",NA,NA,NA,NA,NA,NA,NA,NA,NA,NA
NA,461.99500001966953,trial,sequential-stimulus-presentation,138,197985,0.0-28.0-1.2,SS1611845447407,NA,40,900,1361.9950000196695,NA,NA,NA,7,images/stimuli/spore_stims/complex_10_A_c.gif,middle,NA,NA,NA,NA,NA
NA,null,NA,html-keyboard-response,139,199167,0.0-28.0-0.3,SS1611845447407,NA,null,NA,NA,"<p><img src= images/blank.png width =""200"" height = ""200"" style = ""float:right""></p><p><img src=images/blank.png width =""800"" height = ""200""></p>",NA,NA,NA,NA,NA,NA,NA,NA,NA,NA
NA,358.50500012747943,trial,sequential-stimulus-presentation,140,200466,0.0-28.0-1.3,SS1611845447407,NA,40,900,1258.5050001274794,NA,NA,NA,7,images/stimuli/spore_stims/complex_10_B_c.gif,left,NA,NA,NA,NA,NA
NA,null,NA,html-keyboard-response,141,201418,0.0-28.0-0.4,SS1611845447407,NA,null,NA,NA,"<p><img src= images/blank.png width =""200"" height = ""200"" style = ""float:right""></p><p><img src=images/blank.png width =""800"" height = ""200""></p>",NA,NA,NA,NA,NA,NA,NA,NA,NA,NA
NA,705.640000058338,trial,sequential-stimulus-presentation,142,203062,0.0-28.0-1.4,SS1611845447407,NA,40,900,1605.640000058338,NA,NA,NA,7,images/stimuli/spore_stims/complex_10_A_c.gif,middle,NA,NA,NA,NA,NA
NA,null,NA,html-keyboard-response,143,204004,0.0-28.0-0.5,SS1611845447407,NA,null,NA,NA,"<p><img src= images/blank.png width =""200"" height = ""200"" style = ""float:right""></p><p><img src=images/blank.png width =""800"" height = ""200""></p>",NA,NA,NA,NA,NA,NA,NA,NA,NA,NA
NA,420.4599999357015,trial,sequential-stimulus-presentation,144,205368,0.0-28.0-1.5,SS1611845447407,NA,40,900,1320.4599999357015,NA,NA,NA,7,images/stimuli/spore_stims/complex_10_A_c.gif,middle,NA,NA,NA,NA,NA
NA,null,NA,html-keyboard-response,145,206621,0.0-28.0-0.6,SS1611845447407,NA,null,NA,NA,"<p><img src= images/blank.png width =""200"" height = ""200"" style = ""float:right""></p><p><img src=images/blank.png width =""800"" height = ""200""></p>",NA,NA,NA,NA,NA,NA,NA,NA,NA,NA
NA,445.78499998897314,trial,sequential-stimulus-presentation,146,208013,0.0-28.0-1.6,SS1611845447407,NA,40,900,1345.7849999889731,NA,NA,NA,7,images/stimuli/spore_stims/complex_10_A_c.gif,middle,NA,NA,NA,NA,NA
NA,null,NA,html-keyboard-response,147,209077,0.0-28.0-0.7,SS1611845447407,NA,null,NA,NA,"<p><img src= images/blank.png width =""200"" height = ""200"" style = ""float:right""></p><p><img src=images/blank.png width =""800"" height = ""200""></p>",NA,NA,NA,NA,NA,NA,NA,NA,NA,NA
NA,391.8649998959154,trial,sequential-stimulus-presentation,148,210412,0.0-28.0-1.7,SS1611845447407,NA,40,900,1291.8649998959154,NA,NA,NA,7,images/stimuli/spore_stims/complex_10_A_c.gif,middle,NA,NA,NA,NA,NA
NA,1374.1949999239296,pref_question,html-keyboard-response,149,211824,0.0-29.0,SS1611845447407,NA,50,NA,NA,"<img src=images/stimuli/pokeballs_pref.jpg width =""800"" height = ""200"" style=""padding-top: 33%"">",2,middle,7,NA,NA,NA,NA,NA,NA,NA
NA,534.345000050962,pref_reveal,sequential-stimulus-presentation,150,213305,0.0-30.0,SS1611845447407,NA,40,900,1434.345000050962,NA,NA,NA,7,NA,NA,background,NA,NA,NA,NA
NA,null,NA,html-keyboard-response,151,214170,0.0-31.0-0.0,SS1611845447407,NA,null,NA,NA,"<p><img src= images/blank.png width =""200"" height = ""200"" style = ""float:right""></p><p><img src=images/blank.png width =""800"" height = ""200""></p>",NA,NA,NA,NA,NA,NA,NA,NA,NA,NA
NA,630.7399999350309,trial,sequential-stimulus-presentation,152,215743,0.0-31.0-1.0,SS1611845447407,NA,40,900,1530.739999935031,NA,NA,NA,8,images/stimuli/spore_stims/complex_16_A_c.gif,left,NA,NA,NA,NA,NA
NA,null,NA,html-keyboard-response,153,216654,0.0-31.0-0.1,SS1611845447407,NA,null,NA,NA,"<p><img src= images/blank.png width =""200"" height = ""200"" style = ""float:right""></p><p><img src=images/blank.png width =""800"" height = ""200""></p>",NA,NA,NA,NA,NA,NA,NA,NA,NA,NA
NA,1021.9650000799447,trial,sequential-stimulus-presentation,154,218625,0.0-31.0-1.1,SS1611845447407,NA,40,900,1921.9650000799447,NA,NA,NA,8,images/stimuli/spore_stims/complex_16_A_c.gif,left,NA,NA,NA,NA,NA
NA,null,NA,html-keyboard-response,155,219567,0.0-31.0-0.2,SS1611845447407,NA,null,NA,NA,"<p><img src= images/blank.png width =""200"" height = ""200"" style = ""float:right""></p><p><img src=images/blank.png width =""800"" height = ""200""></p>",NA,NA,NA,NA,NA,NA,NA,NA,NA,NA
NA,3229.2400000151247,trial,sequential-stimulus-presentation,156,223743,0.0-31.0-1.2,SS1611845447407,NA,40,900,4129.240000015125,NA,NA,NA,8,images/stimuli/spore_stims/complex_16_A_c.gif,left,NA,NA,NA,NA,NA
NA,null,NA,html-keyboard-response,157,224954,0.0-31.0-0.3,SS1611845447407,NA,null,NA,NA,"<p><img src= images/blank.png width =""200"" height = ""200"" style = ""float:right""></p><p><img src=images/blank.png width =""800"" height = ""200""></p>",NA,NA,NA,NA,NA,NA,NA,NA,NA,NA
NA,1039.7749999538064,trial,sequential-stimulus-presentation,158,226940,0.0-31.0-1.3,SS1611845447407,NA,40,900,1939.7749999538064,NA,NA,NA,8,images/stimuli/spore_stims/complex_16_A_c.gif,left,NA,NA,NA,NA,NA
NA,null,NA,html-keyboard-response,159,228156,0.0-31.0-0.4,SS1611845447407,NA,null,NA,NA,"<p><img src= images/blank.png width =""200"" height = ""200"" style = ""float:right""></p><p><img src=images/blank.png width =""800"" height = ""200""></p>",NA,NA,NA,NA,NA,NA,NA,NA,NA,NA
NA,341.22500009834766,trial,sequential-stimulus-presentation,160,229437,0.0-31.0-1.4,SS1611845447407,NA,40,900,1241.2250000983477,NA,NA,NA,8,images/stimuli/spore_stims/complex_16_A_c.gif,left,NA,NA,NA,NA,NA
NA,null,NA,html-keyboard-response,161,230421,0.0-31.0-0.5,SS1611845447407,NA,null,NA,NA,"<p><img src= images/blank.png width =""200"" height = ""200"" style = ""float:right""></p><p><img src=images/blank.png width =""800"" height = ""200""></p>",NA,NA,NA,NA,NA,NA,NA,NA,NA,NA
NA,377.1699999924749,trial,sequential-stimulus-presentation,162,231744,0.0-31.0-1.5,SS1611845447407,NA,40,900,1277.169999992475,NA,NA,NA,8,images/stimuli/spore_stims/complex_16_B_c.gif,middle,NA,NA,NA,NA,NA
NA,null,NA,html-keyboard-response,163,232653,0.0-31.0-0.6,SS1611845447407,NA,null,NA,NA,"<p><img src= images/blank.png width =""200"" height = ""200"" style = ""float:right""></p><p><img src=images/blank.png width =""800"" height = ""200""></p>",NA,NA,NA,NA,NA,NA,NA,NA,NA,NA
NA,609.2350000981241,trial,sequential-stimulus-presentation,164,234208,0.0-31.0-1.6,SS1611845447407,NA,40,900,1509.2350000981241,NA,NA,NA,8,images/stimuli/spore_stims/complex_16_A_c.gif,left,NA,NA,NA,NA,NA
NA,null,NA,html-keyboard-response,165,235338,0.0-31.0-0.7,SS1611845447407,NA,null,NA,NA,"<p><img src= images/blank.png width =""200"" height = ""200"" style = ""float:right""></p><p><img src=images/blank.png width =""800"" height = ""200""></p>",NA,NA,NA,NA,NA,NA,NA,NA,NA,NA
NA,358.8749999180436,trial,sequential-stimulus-presentation,166,236628,0.0-31.0-1.7,SS1611845447407,NA,40,900,1258.8749999180436,NA,NA,NA,8,images/stimuli/spore_stims/complex_16_A_c.gif,left,NA,NA,NA,NA,NA
NA,1200.0649999827147,pref_question,html-keyboard-response,167,237875,0.0-32.0,SS1611845447407,NA,50,NA,NA,"<img src=images/stimuli/pokeballs_pref.jpg width =""800"" height = ""200"" style=""padding-top: 33%"">",2,middle,8,NA,NA,NA,NA,NA,NA,NA
NA,760.2949999272823,pref_reveal,sequential-stimulus-presentation,168,239569,0.0-33.0,SS1611845447407,NA,40,900,1660.2949999272823,NA,NA,NA,8,NA,NA,deviant,NA,NA,NA,NA
NA,null,NA,html-keyboard-response,169,240804,0.0-34.0-0.0,SS1611845447407,NA,null,NA,NA,"<p><img src= images/blank.png width =""200"" height = ""200"" style = ""float:right""></p><p><img src=images/blank.png width =""800"" height = ""200""></p>",NA,NA,NA,NA,NA,NA,NA,NA,NA,NA
NA,502.0200000144541,trial,sequential-stimulus-presentation,170,242253,0.0-34.0-1.0,SS1611845447407,NA,40,900,1402.0200000144541,NA,NA,NA,9,images/stimuli/spore_stims/simple_19_A_a.gif,left,NA,NA,NA,NA,NA
NA,null,NA,html-keyboard-response,171,243334,0.0-34.0-0.1,SS1611845447407,NA,null,NA,NA,"<p><img src= images/blank.png width =""200"" height = ""200"" style = ""float:right""></p><p><img src=images/blank.png width =""800"" height = ""200""></p>",NA,NA,NA,NA,NA,NA,NA,NA,NA,NA
NA,1144.8099999688566,trial,sequential-stimulus-presentation,172,245413,0.0-34.0-1.1,SS1611845447407,NA,40,900,2044.8099999688566,NA,NA,NA,9,images/stimuli/spore_stims/simple_19_A_a.gif,left,NA,NA,NA,NA,NA
NA,null,NA,html-keyboard-response,173,246611,0.0-34.0-0.2,SS1611845447407,NA,null,NA,NA,"<p><img src= images/blank.png width =""200"" height = ""200"" style = ""float:right""></p><p><img src=images/blank.png width =""800"" height = ""200""></p>",NA,NA,NA,NA,NA,NA,NA,NA,NA,NA
NA,1188.7600000482053,trial,sequential-stimulus-presentation,174,249091,0.0-34.0-1.2,SS1611845447407,NA,40,900,2088.7600000482053,NA,NA,NA,9,images/stimuli/spore_stims/simple_19_A_a.gif,left,NA,NA,NA,NA,NA
NA,null,NA,html-keyboard-response,175,250053,0.0-34.0-0.3,SS1611845447407,NA,null,NA,NA,"<p><img src= images/blank.png width =""200"" height = ""200"" style = ""float:right""></p><p><img src=images/blank.png width =""800"" height = ""200""></p>",NA,NA,NA,NA,NA,NA,NA,NA,NA,NA
NA,145.72999998927116,trial,sequential-stimulus-presentation,176,251134,0.0-34.0-1.3,SS1611845447407,NA,40,900,1045.7299999892712,NA,NA,NA,9,images/stimuli/spore_stims/simple_19_A_a.gif,left,NA,NA,NA,NA,NA
NA,null,NA,html-keyboard-response,177,252235,0.0-34.0-0.4,SS1611845447407,NA,null,NA,NA,"<p><img src= images/blank.png width =""200"" height = ""200"" style = ""float:right""></p><p><img src=images/blank.png width =""800"" height = ""200""></p>",NA,NA,NA,NA,NA,NA,NA,NA,NA,NA
NA,238.83499996736646,trial,sequential-stimulus-presentation,178,253421,0.0-34.0-1.4,SS1611845447407,NA,40,900,1138.8349999673665,NA,NA,NA,9,images/stimuli/spore_stims/simple_19_A_a.gif,left,NA,NA,NA,NA,NA
NA,null,NA,html-keyboard-response,179,254528,0.0-34.0-0.5,SS1611845447407,NA,null,NA,NA,"<p><img src= images/blank.png width =""200"" height = ""200"" style = ""float:right""></p><p><img src=images/blank.png width =""800"" height = ""200""></p>",NA,NA,NA,NA,NA,NA,NA,NA,NA,NA
NA,333.5949999745935,trial,sequential-stimulus-presentation,180,255809,0.0-34.0-1.5,SS1611845447407,NA,40,900,1233.5949999745935,NA,NA,NA,9,images/stimuli/spore_stims/simple_19_A_a.gif,left,NA,NA,NA,NA,NA
NA,null,NA,html-keyboard-response,181,256722,0.0-34.0-0.6,SS1611845447407,NA,null,NA,NA,"<p><img src= images/blank.png width =""200"" height = ""200"" style = ""float:right""></p><p><img src=images/blank.png width =""800"" height = ""200""></p>",NA,NA,NA,NA,NA,NA,NA,NA,NA,NA
NA,335.2900000754744,trial,sequential-stimulus-presentation,182,258006,0.0-34.0-1.6,SS1611845447407,NA,40,900,1235.2900000754744,NA,NA,NA,9,images/stimuli/spore_stims/simple_19_A_a.gif,left,NA,NA,NA,NA,NA
NA,null,NA,html-keyboard-response,183,259346,0.0-34.0-0.7,SS1611845447407,NA,null,NA,NA,"<p><img src= images/blank.png width =""200"" height = ""200"" style = ""float:right""></p><p><img src=images/blank.png width =""800"" height = ""200""></p>",NA,NA,NA,NA,NA,NA,NA,NA,NA,NA
NA,519.4299998693168,trial,sequential-stimulus-presentation,184,260819,0.0-34.0-1.7,SS1611845447407,NA,40,900,1419.4299998693168,NA,NA,NA,9,images/stimuli/spore_stims/simple_19_A_a.gif,left,NA,NA,NA,NA,NA
NA,null,NA,html-keyboard-response,185,261745,0.0-34.0-0.8,SS1611845447407,NA,null,NA,NA,"<p><img src= images/blank.png width =""200"" height = ""200"" style = ""float:right""></p><p><img src=images/blank.png width =""800"" height = ""200""></p>",NA,NA,NA,NA,NA,NA,NA,NA,NA,NA
NA,390.30000008642673,trial,sequential-stimulus-presentation,186,263086,0.0-34.0-1.8,SS1611845447407,NA,40,900,1290.3000000864267,NA,NA,NA,9,images/stimuli/spore_stims/simple_16_A_c.gif,right,NA,NA,NA,NA,NA
NA,1277.3099998012185,pref_question,html-keyboard-response,187,264409,0.0-35.0,SS1611845447407,NA,51,NA,NA,"<img src=images/stimuli/pokeballs_pref.jpg width =""800"" height = ""200"" style=""padding-top: 33%"">",3,right,9,NA,NA,NA,NA,NA,NA,NA
NA,571.7949999962002,pref_reveal,sequential-stimulus-presentation,188,265933,0.0-36.0,SS1611845447407,NA,40,900,1471.7949999962002,NA,NA,NA,9,NA,NA,deviant,NA,NA,NA,NA
NA,null,NA,html-keyboard-response,189,266854,0.0-37.0-0.0,SS1611845447407,NA,null,NA,NA,"<p><img src= images/blank.png width =""200"" height = ""200"" style = ""float:right""></p><p><img src=images/blank.png width =""800"" height = ""200""></p>",NA,NA,NA,NA,NA,NA,NA,NA,NA,NA
NA,319.7449999861419,trial,sequential-stimulus-presentation,190,268123,0.0-37.0-1.0,SS1611845447407,NA,40,900,1219.744999986142,NA,NA,NA,10,images/stimuli/spore_stims/simple_13_A_c.gif,middle,NA,NA,NA,NA,NA
NA,null,NA,html-keyboard-response,191,269390,0.0-37.0-0.1,SS1611845447407,NA,null,NA,NA,"<p><img src= images/blank.png width =""200"" height = ""200"" style = ""float:right""></p><p><img src=images/blank.png width =""800"" height = ""200""></p>",NA,NA,NA,NA,NA,NA,NA,NA,NA,NA
NA,401.64000005461276,trial,sequential-stimulus-presentation,192,270745,0.0-37.0-1.1,SS1611845447407,NA,40,900,1301.6400000546128,NA,NA,NA,10,images/stimuli/spore_stims/simple_13_A_c.gif,middle,NA,NA,NA,NA,NA
NA,null,NA,html-keyboard-response,193,271625,0.0-37.0-0.2,SS1611845447407,NA,null,NA,NA,"<p><img src= images/blank.png width =""200"" height = ""200"" style = ""float:right""></p><p><img src=images/blank.png width =""800"" height = ""200""></p>",NA,NA,NA,NA,NA,NA,NA,NA,NA,NA
NA,660.5449998751283,trial,sequential-stimulus-presentation,194,273237,0.0-37.0-1.2,SS1611845447407,NA,40,900,1560.5449998751283,NA,NA,NA,10,images/stimuli/spore_stims/simple_13_A_c.gif,middle,NA,NA,NA,NA,NA
NA,null,NA,html-keyboard-response,195,274328,0.0-37.0-0.3,SS1611845447407,NA,null,NA,NA,"<p><img src= images/blank.png width =""200"" height = ""200"" style = ""float:right""></p><p><img src=images/blank.png width =""800"" height = ""200""></p>",NA,NA,NA,NA,NA,NA,NA,NA,NA,NA
NA,767.0249999500811,trial,sequential-stimulus-presentation,196,276048,0.0-37.0-1.3,SS1611845447407,NA,40,900,1667.024999950081,NA,NA,NA,10,images/stimuli/spore_stims/simple_17_B_d.gif,right,NA,NA,NA,NA,NA
NA,null,NA,html-keyboard-response,197,277329,0.0-37.0-0.4,SS1611845447407,NA,null,NA,NA,"<p><img src= images/blank.png width =""200"" height = ""200"" style = ""float:right""></p><p><img src=images/blank.png width =""800"" height = ""200""></p>",NA,NA,NA,NA,NA,NA,NA,NA,NA,NA
NA,304.80000004172325,trial,sequential-stimulus-presentation,198,278587,0.0-37.0-1.4,SS1611845447407,NA,40,900,1204.8000000417233,NA,NA,NA,10,images/stimuli/spore_stims/simple_13_A_c.gif,middle,NA,NA,NA,NA,NA
NA,null,NA,html-keyboard-response,199,279578,0.0-37.0-0.5,SS1611845447407,NA,null,NA,NA,"<p><img src= images/blank.png width =""200"" height = ""200"" style = ""float:right""></p><p><img src=images/blank.png width =""800"" height = ""200""></p>",NA,NA,NA,NA,NA,NA,NA,NA,NA,NA
NA,375.6349999457598,trial,sequential-stimulus-presentation,200,280893,0.0-37.0-1.5,SS1611845447407,NA,40,900,1275.6349999457598,NA,NA,NA,10,images/stimuli/spore_stims/simple_13_A_c.gif,middle,NA,NA,NA,NA,NA
NA,null,NA,html-keyboard-response,201,282197,0.0-37.0-0.6,SS1611845447407,NA,null,NA,NA,"<p><img src= images/blank.png width =""200"" height = ""200"" style = ""float:right""></p><p><img src=images/blank.png width =""800"" height = ""200""></p>",NA,NA,NA,NA,NA,NA,NA,NA,NA,NA
NA,359.8699998110533,trial,sequential-stimulus-presentation,202,283509,0.0-37.0-1.6,SS1611845447407,NA,40,900,1259.8699998110533,NA,NA,NA,10,images/stimuli/spore_stims/simple_13_A_c.gif,middle,NA,NA,NA,NA,NA
NA,null,NA,html-keyboard-response,203,284569,0.0-37.0-0.7,SS1611845447407,NA,null,NA,NA,"<p><img src= images/blank.png width =""200"" height = ""200"" style = ""float:right""></p><p><img src=images/blank.png width =""800"" height = ""200""></p>",NA,NA,NA,NA,NA,NA,NA,NA,NA,NA
NA,679.4599997811019,trial,sequential-stimulus-presentation,204,286202,0.0-37.0-1.7,SS1611845447407,NA,40,900,1579.459999781102,NA,NA,NA,10,images/stimuli/spore_stims/simple_13_A_c.gif,middle,NA,NA,NA,NA,NA
NA,1388.7850001920015,pref_question,html-keyboard-response,205,287640,0.0-38.0,SS1611845447407,NA,49,NA,NA,"<img src=images/stimuli/pokeballs_pref.jpg width =""800"" height = ""200"" style=""padding-top: 33%"">",1,left,10,NA,NA,NA,NA,NA,NA,NA
NA,405.55000002495944,pref_reveal,sequential-stimulus-presentation,206,288998,0.0-39.0,SS1611845447407,NA,40,900,1305.5500000249594,NA,NA,NA,10,NA,NA,novel,NA,NA,NA,NA
NA,null,NA,html-keyboard-response,207,290241,0.0-40.0-0.0,SS1611845447407,NA,null,NA,NA,"<p><img src= images/blank.png width =""200"" height = ""200"" style = ""float:right""></p><p><img src=images/blank.png width =""800"" height = ""200""></p>",NA,NA,NA,NA,NA,NA,NA,NA,NA,NA
NA,522.1850001253188,trial,sequential-stimulus-presentation,208,291714,0.0-40.0-1.0,SS1611845447407,NA,40,900,1422.1850001253188,NA,NA,NA,11,images/stimuli/spore_stims/complex_16_B_b.gif,middle,NA,NA,NA,NA,NA
NA,null,NA,html-keyboard-response,209,292904,0.0-40.0-0.1,SS1611845447407,NA,null,NA,NA,"<p><img src= images/blank.png width =""200"" height = ""200"" style = ""float:right""></p><p><img src=images/blank.png width =""800"" height = ""200""></p>",NA,NA,NA,NA,NA,NA,NA,NA,NA,NA
NA,555.1749998703599,trial,sequential-stimulus-presentation,210,294413,0.0-40.0-1.1,SS1611845447407,NA,40,900,1455.17499987036,NA,NA,NA,11,images/stimuli/spore_stims/complex_16_B_b.gif,middle,NA,NA,NA,NA,NA
NA,null,NA,html-keyboard-response,211,295325,0.0-40.0-0.2,SS1611845447407,NA,null,NA,NA,"<p><img src= images/blank.png width =""200"" height = ""200"" style = ""float:right""></p><p><img src=images/blank.png width =""800"" height = ""200""></p>",NA,NA,NA,NA,NA,NA,NA,NA,NA,NA
NA,1422.969999955967,trial,sequential-stimulus-presentation,212,297702,0.0-40.0-1.2,SS1611845447407,NA,40,900,2322.969999955967,NA,NA,NA,11,images/stimuli/spore_stims/complex_16_B_b.gif,middle,NA,NA,NA,NA,NA
NA,null,NA,html-keyboard-response,213,298610,0.0-40.0-0.3,SS1611845447407,NA,null,NA,NA,"<p><img src= images/blank.png width =""200"" height = ""200"" style = ""float:right""></p><p><img src=images/blank.png width =""800"" height = ""200""></p>",NA,NA,NA,NA,NA,NA,NA,NA,NA,NA
NA,499.1450000088662,trial,sequential-stimulus-presentation,214,300063,0.0-40.0-1.3,SS1611845447407,NA,40,900,1399.1450000088662,NA,NA,NA,11,images/stimuli/spore_stims/complex_16_B_b.gif,middle,NA,NA,NA,NA,NA
NA,null,NA,html-keyboard-response,215,301404,0.0-40.0-0.4,SS1611845447407,NA,null,NA,NA,"<p><img src= images/blank.png width =""200"" height = ""200"" style = ""float:right""></p><p><img src=images/blank.png width =""800"" height = ""200""></p>",NA,NA,NA,NA,NA,NA,NA,NA,NA,NA
NA,815.6200000084937,trial,sequential-stimulus-presentation,216,303173,0.0-40.0-1.4,SS1611845447407,NA,40,900,1715.6200000084937,NA,NA,NA,11,images/stimuli/spore_stims/complex_16_B_b.gif,middle,NA,NA,NA,NA,NA
NA,null,NA,html-keyboard-response,217,304428,0.0-40.0-0.5,SS1611845447407,NA,null,NA,NA,"<p><img src= images/blank.png width =""200"" height = ""200"" style = ""float:right""></p><p><img src=images/blank.png width =""800"" height = ""200""></p>",NA,NA,NA,NA,NA,NA,NA,NA,NA,NA
NA,469.285000115633,trial,sequential-stimulus-presentation,218,305856,0.0-40.0-1.5,SS1611845447407,NA,40,900,1369.285000115633,NA,NA,NA,11,images/stimuli/spore_stims/complex_16_B_b.gif,middle,NA,NA,NA,NA,NA
NA,null,NA,html-keyboard-response,219,307176,0.0-40.0-0.6,SS1611845447407,NA,null,NA,NA,"<p><img src= images/blank.png width =""200"" height = ""200"" style = ""float:right""></p><p><img src=images/blank.png width =""800"" height = ""200""></p>",NA,NA,NA,NA,NA,NA,NA,NA,NA,NA
NA,459.33500002138317,trial,sequential-stimulus-presentation,220,308592,0.0-40.0-1.6,SS1611845447407,NA,40,900,1359.3350000213832,NA,NA,NA,11,images/stimuli/spore_stims/complex_16_B_b.gif,middle,NA,NA,NA,NA,NA
NA,null,NA,html-keyboard-response,221,309509,0.0-40.0-0.7,SS1611845447407,NA,null,NA,NA,"<p><img src= images/blank.png width =""200"" height = ""200"" style = ""float:right""></p><p><img src=images/blank.png width =""800"" height = ""200""></p>",NA,NA,NA,NA,NA,NA,NA,NA,NA,NA
NA,2206.7549999337643,trial,sequential-stimulus-presentation,222,312677,0.0-40.0-1.7,SS1611845447407,NA,40,900,3106.7549999337643,NA,NA,NA,11,images/stimuli/spore_stims/complex_08_B_d.gif,left,NA,NA,NA,NA,NA
NA,1131.2349999789149,pref_question,html-keyboard-response,223,313857,0.0-41.0,SS1611845447407,NA,50,NA,NA,"<img src=images/stimuli/pokeballs_pref.jpg width =""800"" height = ""200"" style=""padding-top: 33%"">",2,middle,11,NA,NA,NA,NA,NA,NA,NA
NA,462.16499991714954,pref_reveal,sequential-stimulus-presentation,224,315280,0.0-42.0,SS1611845447407,NA,40,900,1362.1649999171495,NA,NA,NA,11,NA,NA,background,NA,NA,NA,NA
NA,null,NA,html-keyboard-response,225,316185,0.0-43.0-0.0,SS1611845447407,NA,null,NA,NA,"<p><img src= images/blank.png width =""200"" height = ""200"" style = ""float:right""></p><p><img src=images/blank.png width =""800"" height = ""200""></p>",NA,NA,NA,NA,NA,NA,NA,NA,NA,NA
NA,750.5850000306964,trial,sequential-stimulus-presentation,226,317895,0.0-43.0-1.0,SS1611845447407,NA,40,900,1650.5850000306964,NA,NA,NA,12,images/stimuli/spore_stims/complex_05_A_c.gif,middle,NA,NA,NA,NA,NA
NA,null,NA,html-keyboard-response,227,319148,0.0-43.0-0.1,SS1611845447407,NA,null,NA,NA,"<p><img src= images/blank.png width =""200"" height = ""200"" style = ""float:right""></p><p><img src=images/blank.png width =""800"" height = ""200""></p>",NA,NA,NA,NA,NA,NA,NA,NA,NA,NA
NA,409.3049999792129,trial,sequential-stimulus-presentation,228,320513,0.0-43.0-1.1,SS1611845447407,NA,40,900,1309.3049999792129,NA,NA,NA,12,images/stimuli/spore_stims/complex_05_A_c.gif,middle,NA,NA,NA,NA,NA
NA,null,NA,html-keyboard-response,229,321740,0.0-43.0-0.2,SS1611845447407,NA,null,NA,NA,"<p><img src= images/blank.png width =""200"" height = ""200"" style = ""float:right""></p><p><img src=images/blank.png width =""800"" height = ""200""></p>",NA,NA,NA,NA,NA,NA,NA,NA,NA,NA
NA,626.979999942705,trial,sequential-stimulus-presentation,230,323330,0.0-43.0-1.2,SS1611845447407,NA,40,900,1526.979999942705,NA,NA,NA,12,images/stimuli/spore_stims/complex_05_A_c.gif,middle,NA,NA,NA,NA,NA
NA,null,NA,html-keyboard-response,231,324535,0.0-43.0-0.3,SS1611845447407,NA,null,NA,NA,"<p><img src= images/blank.png width =""200"" height = ""200"" style = ""float:right""></p><p><img src=images/blank.png width =""800"" height = ""200""></p>",NA,NA,NA,NA,NA,NA,NA,NA,NA,NA
NA,557.5849998276681,trial,sequential-stimulus-presentation,232,326051,0.0-43.0-1.3,SS1611845447407,NA,40,900,1457.584999827668,NA,NA,NA,12,images/stimuli/spore_stims/complex_05_A_c.gif,middle,NA,NA,NA,NA,NA
NA,null,NA,html-keyboard-response,233,326911,0.0-43.0-0.4,SS1611845447407,NA,null,NA,NA,"<p><img src= images/blank.png width =""200"" height = ""200"" style = ""float:right""></p><p><img src=images/blank.png width =""800"" height = ""200""></p>",NA,NA,NA,NA,NA,NA,NA,NA,NA,NA
NA,2240.9549998119473,trial,sequential-stimulus-presentation,234,330111,0.0-43.0-1.4,SS1611845447407,NA,40,900,3140.9549998119473,NA,NA,NA,12,images/stimuli/spore_stims/complex_04_B_a.gif,right,NA,NA,NA,NA,NA
NA,null,NA,html-keyboard-response,235,331057,0.0-43.0-0.5,SS1611845447407,NA,null,NA,NA,"<p><img src= images/blank.png width =""200"" height = ""200"" style = ""float:right""></p><p><img src=images/blank.png width =""800"" height = ""200""></p>",NA,NA,NA,NA,NA,NA,NA,NA,NA,NA
NA,51.37500003911555,trial,sequential-stimulus-presentation,236,332067,0.0-43.0-1.5,SS1611845447407,NA,40,900,951.3750000391155,NA,NA,NA,12,images/stimuli/spore_stims/complex_05_A_c.gif,middle,NA,NA,NA,NA,NA
NA,null,NA,html-keyboard-response,237,333293,0.0-43.0-0.6,SS1611845447407,NA,null,NA,NA,"<p><img src= images/blank.png width =""200"" height = ""200"" style = ""float:right""></p><p><img src=images/blank.png width =""800"" height = ""200""></p>",NA,NA,NA,NA,NA,NA,NA,NA,NA,NA
NA,1642.344999825582,trial,sequential-stimulus-presentation,238,335893,0.0-43.0-1.6,SS1611845447407,NA,40,900,2542.344999825582,NA,NA,NA,12,images/stimuli/spore_stims/complex_05_A_c.gif,middle,NA,NA,NA,NA,NA
NA,null,NA,html-keyboard-response,239,337158,0.0-43.0-0.7,SS1611845447407,NA,null,NA,NA,"<p><img src= images/blank.png width =""200"" height = ""200"" style = ""float:right""></p><p><img src=images/blank.png width =""800"" height = ""200""></p>",NA,NA,NA,NA,NA,NA,NA,NA,NA,NA
NA,550.190000096336,trial,sequential-stimulus-presentation,240,338671,0.0-43.0-1.7,SS1611845447407,NA,40,900,1450.190000096336,NA,NA,NA,12,images/stimuli/spore_stims/complex_05_A_c.gif,middle,NA,NA,NA,NA,NA
NA,9224.225000012666,pref_question,html-keyboard-response,241,347951,0.0-44.0,SS1611845447407,NA,51,NA,NA,"<img src=images/stimuli/pokeballs_pref.jpg width =""800"" height = ""200"" style=""padding-top: 33%"">",3,right,12,NA,NA,NA,NA,NA,NA,NA
NA,154.4650001451373,pref_reveal,sequential-stimulus-presentation,242,349068,0.0-45.0,SS1611845447407,NA,40,900,1054.4650001451373,NA,NA,NA,12,NA,NA,deviant,NA,NA,NA,NA
NA,null,NA,html-keyboard-response,243,350210,0.0-46.0-0.0,SS1611845447407,NA,null,NA,NA,"<p><img src= images/blank.png width =""200"" height = ""200"" style = ""float:right""></p><p><img src=images/blank.png width =""800"" height = ""200""></p>",NA,NA,NA,NA,NA,NA,NA,NA,NA,NA
NA,1786.6000002250075,trial,sequential-stimulus-presentation,244,352960,0.0-46.0-1.0,SS1611845447407,NA,40,900,2686.6000002250075,NA,NA,NA,13,images/stimuli/spore_stims/simple_09_A_c.gif,middle,NA,NA,NA,NA,NA
NA,null,NA,html-keyboard-response,245,354153,0.0-46.0-0.1,SS1611845447407,NA,null,NA,NA,"<p><img src= images/blank.png width =""200"" height = ""200"" style = ""float:right""></p><p><img src=images/blank.png width =""800"" height = ""200""></p>",NA,NA,NA,NA,NA,NA,NA,NA,NA,NA
NA,349.2000000551343,trial,sequential-stimulus-presentation,246,355464,0.0-46.0-1.1,SS1611845447407,NA,40,900,1249.2000000551343,NA,NA,NA,13,images/stimuli/spore_stims/simple_09_A_c.gif,middle,NA,NA,NA,NA,NA
NA,null,NA,html-keyboard-response,247,356397,0.0-46.0-0.2,SS1611845447407,NA,null,NA,NA,"<p><img src= images/blank.png width =""200"" height = ""200"" style = ""float:right""></p><p><img src=images/blank.png width =""800"" height = ""200""></p>",NA,NA,NA,NA,NA,NA,NA,NA,NA,NA
NA,1016.8550000526011,trial,sequential-stimulus-presentation,248,358378,0.0-46.0-1.2,SS1611845447407,NA,40,900,1916.855000052601,NA,NA,NA,13,images/stimuli/spore_stims/simple_09_A_c.gif,middle,NA,NA,NA,NA,NA
NA,null,NA,html-keyboard-response,249,359714,0.0-46.0-0.3,SS1611845447407,NA,null,NA,NA,"<p><img src= images/blank.png width =""200"" height = ""200"" style = ""float:right""></p><p><img src=images/blank.png width =""800"" height = ""200""></p>",NA,NA,NA,NA,NA,NA,NA,NA,NA,NA
NA,357.6849999371916,trial,sequential-stimulus-presentation,250,361032,0.0-46.0-1.3,SS1611845447407,NA,40,900,1257.6849999371916,NA,NA,NA,13,images/stimuli/spore_stims/simple_09_A_c.gif,middle,NA,NA,NA,NA,NA
NA,null,NA,html-keyboard-response,251,362035,0.0-46.0-0.4,SS1611845447407,NA,null,NA,NA,"<p><img src= images/blank.png width =""200"" height = ""200"" style = ""float:right""></p><p><img src=images/blank.png width =""800"" height = ""200""></p>",NA,NA,NA,NA,NA,NA,NA,NA,NA,NA
NA,644.7650000918657,trial,sequential-stimulus-presentation,252,363642,0.0-46.0-1.4,SS1611845447407,NA,40,900,1544.7650000918657,NA,NA,NA,13,images/stimuli/spore_stims/simple_09_A_c.gif,middle,NA,NA,NA,NA,NA
NA,null,NA,html-keyboard-response,253,364861,0.0-46.0-0.5,SS1611845447407,NA,null,NA,NA,"<p><img src= images/blank.png width =""200"" height = ""200"" style = ""float:right""></p><p><img src=images/blank.png width =""800"" height = ""200""></p>",NA,NA,NA,NA,NA,NA,NA,NA,NA,NA
NA,243.56499989517033,trial,sequential-stimulus-presentation,254,366067,0.0-46.0-1.5,SS1611845447407,NA,40,900,1143.5649998951703,NA,NA,NA,13,images/stimuli/spore_stims/simple_17_A_b.gif,right,NA,NA,NA,NA,NA
NA,null,NA,html-keyboard-response,255,367233,0.0-46.0-0.6,SS1611845447407,NA,null,NA,NA,"<p><img src= images/blank.png width =""200"" height = ""200"" style = ""float:right""></p><p><img src=images/blank.png width =""800"" height = ""200""></p>",NA,NA,NA,NA,NA,NA,NA,NA,NA,NA
NA,513.5350001510233,trial,sequential-stimulus-presentation,256,368709,0.0-46.0-1.6,SS1611845447407,NA,40,900,1413.5350001510233,NA,NA,NA,13,images/stimuli/spore_stims/simple_09_A_c.gif,middle,NA,NA,NA,NA,NA
NA,null,NA,html-keyboard-response,257,369685,0.0-46.0-0.7,SS1611845447407,NA,null,NA,NA,"<p><img src= images/blank.png width =""200"" height = ""200"" style = ""float:right""></p><p><img src=images/blank.png width =""800"" height = ""200""></p>",NA,NA,NA,NA,NA,NA,NA,NA,NA,NA
NA,1432.0950000546873,trial,sequential-stimulus-presentation,258,372082,0.0-46.0-1.7,SS1611845447407,NA,40,900,2332.0950000546873,NA,NA,NA,13,images/stimuli/spore_stims/simple_09_A_c.gif,middle,NA,NA,NA,NA,NA
NA,989.6400000434369,pref_question,html-keyboard-response,259,373129,0.0-47.0,SS1611845447407,NA,49,NA,NA,"<img src=images/stimuli/pokeballs_pref.jpg width =""800"" height = ""200"" style=""padding-top: 33%"">",1,left,13,NA,NA,NA,NA,NA,NA,NA
NA,364.4550000317395,pref_reveal,sequential-stimulus-presentation,260,374456,0.0-48.0,SS1611845447407,NA,40,900,1264.4550000317395,NA,NA,NA,13,NA,NA,novel,NA,NA,NA,NA
NA,null,NA,html-keyboard-response,261,375641,0.0-49.0-0.0,SS1611845447407,NA,null,NA,NA,"<p><img src= images/blank.png width =""200"" height = ""200"" style = ""float:right""></p><p><img src=images/blank.png width =""800"" height = ""200""></p>",NA,NA,NA,NA,NA,NA,NA,NA,NA,NA
NA,282.57500007748604,trial,sequential-stimulus-presentation,262,376887,0.0-49.0-1.0,SS1611845447407,NA,40,900,1182.575000077486,NA,NA,NA,14,images/stimuli/spore_stims/complex_14_A_b.gif,left,NA,NA,NA,NA,NA
NA,null,NA,html-keyboard-response,263,378068,0.0-49.0-0.1,SS1611845447407,NA,null,NA,NA,"<p><img src= images/blank.png width =""200"" height = ""200"" style = ""float:right""></p><p><img src=images/blank.png width =""800"" height = ""200""></p>",NA,NA,NA,NA,NA,NA,NA,NA,NA,NA
NA,275.76999994926155,trial,sequential-stimulus-presentation,264,379308,0.0-49.0-1.1,SS1611845447407,NA,40,900,1175.7699999492615,NA,NA,NA,14,images/stimuli/spore_stims/complex_14_A_b.gif,left,NA,NA,NA,NA,NA
NA,null,NA,html-keyboard-response,265,380337,0.0-49.0-0.2,SS1611845447407,NA,null,NA,NA,"<p><img src= images/blank.png width =""200"" height = ""200"" style = ""float:right""></p><p><img src=images/blank.png width =""800"" height = ""200""></p>",NA,NA,NA,NA,NA,NA,NA,NA,NA,NA
NA,3186.075000092387,trial,sequential-stimulus-presentation,266,384488,0.0-49.0-1.2,SS1611845447407,NA,40,900,4086.075000092387,NA,NA,NA,14,images/stimuli/spore_stims/complex_14_A_b.gif,left,NA,NA,NA,NA,NA
NA,null,NA,html-keyboard-response,267,385756,0.0-49.0-0.3,SS1611845447407,NA,null,NA,NA,"<p><img src= images/blank.png width =""200"" height = ""200"" style = ""float:right""></p><p><img src=images/blank.png width =""800"" height = ""200""></p>",NA,NA,NA,NA,NA,NA,NA,NA,NA,NA
NA,436.82499998249114,trial,sequential-stimulus-presentation,268,387160,0.0-49.0-1.3,SS1611845447407,NA,40,900,1336.8249999824911,NA,NA,NA,14,images/stimuli/spore_stims/complex_14_A_b.gif,left,NA,NA,NA,NA,NA
NA,null,NA,html-keyboard-response,269,388151,0.0-49.0-0.4,SS1611845447407,NA,null,NA,NA,"<p><img src= images/blank.png width =""200"" height = ""200"" style = ""float:right""></p><p><img src=images/blank.png width =""800"" height = ""200""></p>",NA,NA,NA,NA,NA,NA,NA,NA,NA,NA
NA,2098.9650001283735,trial,sequential-stimulus-presentation,270,391217,0.0-49.0-1.4,SS1611845447407,NA,40,900,2998.9650001283735,NA,NA,NA,14,images/stimuli/spore_stims/complex_14_A_b.gif,left,NA,NA,NA,NA,NA
NA,null,NA,html-keyboard-response,271,392222,0.0-49.0-0.5,SS1611845447407,NA,null,NA,NA,"<p><img src= images/blank.png width =""200"" height = ""200"" style = ""float:right""></p><p><img src=images/blank.png width =""800"" height = ""200""></p>",NA,NA,NA,NA,NA,NA,NA,NA,NA,NA
NA,496.29499996080995,trial,sequential-stimulus-presentation,272,393687,0.0-49.0-1.5,SS1611845447407,NA,40,900,1396.29499996081,NA,NA,NA,14,images/stimuli/spore_stims/complex_14_B_b.gif,middle,NA,NA,NA,NA,NA
NA,null,NA,html-keyboard-response,273,395004,0.0-49.0-0.6,SS1611845447407,NA,null,NA,NA,"<p><img src= images/blank.png width =""200"" height = ""200"" style = ""float:right""></p><p><img src=images/blank.png width =""800"" height = ""200""></p>",NA,NA,NA,NA,NA,NA,NA,NA,NA,NA
NA,453.57499993406236,trial,sequential-stimulus-presentation,274,396422,0.0-49.0-1.6,SS1611845447407,NA,40,900,1353.5749999340624,NA,NA,NA,14,images/stimuli/spore_stims/complex_14_A_b.gif,left,NA,NA,NA,NA,NA
NA,null,NA,html-keyboard-response,275,397694,0.0-49.0-0.7,SS1611845447407,NA,null,NA,NA,"<p><img src= images/blank.png width =""200"" height = ""200"" style = ""float:right""></p><p><img src=images/blank.png width =""800"" height = ""200""></p>",NA,NA,NA,NA,NA,NA,NA,NA,NA,NA
NA,980.8049998246133,trial,sequential-stimulus-presentation,276,399641,0.0-49.0-1.7,SS1611845447407,NA,40,900,1880.8049998246133,NA,NA,NA,14,images/stimuli/spore_stims/complex_14_A_b.gif,left,NA,NA,NA,NA,NA
NA,1730.6050001643598,pref_question,html-keyboard-response,277,401433,0.0-50.0,SS1611845447407,NA,51,NA,NA,"<img src=images/stimuli/pokeballs_pref.jpg width =""800"" height = ""200"" style=""padding-top: 33%"">",3,right,14,NA,NA,NA,NA,NA,NA,NA
NA,2527.900000102818,pref_reveal,sequential-stimulus-presentation,278,404926,0.0-51.0,SS1611845447407,NA,40,900,3427.900000102818,NA,NA,NA,14,NA,NA,novel,NA,NA,NA,NA
NA,null,NA,html-keyboard-response,279,406211,0.0-52.0-0.0,SS1611845447407,NA,null,NA,NA,"<p><img src= images/blank.png width =""200"" height = ""200"" style = ""float:right""></p><p><img src=images/blank.png width =""800"" height = ""200""></p>",NA,NA,NA,NA,NA,NA,NA,NA,NA,NA
NA,302.7950001414865,trial,sequential-stimulus-presentation,280,407484,0.0-52.0-1.0,SS1611845447407,NA,40,900,1202.7950001414865,NA,NA,NA,15,images/stimuli/spore_stims/simple_20_B_c.gif,right,NA,NA,NA,NA,NA
NA,null,NA,html-keyboard-response,281,408704,0.0-52.0-0.1,SS1611845447407,NA,null,NA,NA,"<p><img src= images/blank.png width =""200"" height = ""200"" style = ""float:right""></p><p><img src=images/blank.png width =""800"" height = ""200""></p>",NA,NA,NA,NA,NA,NA,NA,NA,NA,NA
NA,327.90000014938414,trial,sequential-stimulus-presentation,282,410000,0.0-52.0-1.1,SS1611845447407,NA,40,900,1227.9000001493841,NA,NA,NA,15,images/stimuli/spore_stims/simple_20_B_c.gif,right,NA,NA,NA,NA,NA
NA,null,NA,html-keyboard-response,283,410902,0.0-52.0-0.2,SS1611845447407,NA,null,NA,NA,"<p><img src= images/blank.png width =""200"" height = ""200"" style = ""float:right""></p><p><img src=images/blank.png width =""800"" height = ""200""></p>",NA,NA,NA,NA,NA,NA,NA,NA,NA,NA
NA,1690.5350000597537,trial,sequential-stimulus-presentation,284,413559,0.0-52.0-1.2,SS1611845447407,NA,40,900,2590.5350000597537,NA,NA,NA,15,images/stimuli/spore_stims/simple_20_B_c.gif,right,NA,NA,NA,NA,NA
NA,null,NA,html-keyboard-response,285,414734,0.0-52.0-0.3,SS1611845447407,NA,null,NA,NA,"<p><img src= images/blank.png width =""200"" height = ""200"" style = ""float:right""></p><p><img src=images/blank.png width =""800"" height = ""200""></p>",NA,NA,NA,NA,NA,NA,NA,NA,NA,NA
NA,1314.879999961704,trial,sequential-stimulus-presentation,286,417019,0.0-52.0-1.3,SS1611845447407,NA,40,900,2214.879999961704,NA,NA,NA,15,images/stimuli/spore_stims/simple_20_B_c.gif,right,NA,NA,NA,NA,NA
NA,null,NA,html-keyboard-response,287,418316,0.0-52.0-0.4,SS1611845447407,NA,null,NA,NA,"<p><img src= images/blank.png width =""200"" height = ""200"" style = ""float:right""></p><p><img src=images/blank.png width =""800"" height = ""200""></p>",NA,NA,NA,NA,NA,NA,NA,NA,NA,NA
NA,498.0100002139807,trial,sequential-stimulus-presentation,288,419781,0.0-52.0-1.4,SS1611845447407,NA,40,900,1398.0100002139807,NA,NA,NA,15,images/stimuli/spore_stims/simple_08_A_b.gif,middle,NA,NA,NA,NA,NA
NA,null,NA,html-keyboard-response,289,420953,0.0-52.0-0.5,SS1611845447407,NA,null,NA,NA,"<p><img src= images/blank.png width =""200"" height = ""200"" style = ""float:right""></p><p><img src=images/blank.png width =""800"" height = ""200""></p>",NA,NA,NA,NA,NA,NA,NA,NA,NA,NA
NA,688.9249999076128,trial,sequential-stimulus-presentation,290,422612,0.0-52.0-1.5,SS1611845447407,NA,40,900,1588.9249999076128,NA,NA,NA,15,images/stimuli/spore_stims/simple_20_B_c.gif,right,NA,NA,NA,NA,NA
NA,null,NA,html-keyboard-response,291,423503,0.0-52.0-0.6,SS1611845447407,NA,null,NA,NA,"<p><img src= images/blank.png width =""200"" height = ""200"" style = ""float:right""></p><p><img src=images/blank.png width =""800"" height = ""200""></p>",NA,NA,NA,NA,NA,NA,NA,NA,NA,NA
NA,310.9699999913573,trial,sequential-stimulus-presentation,292,424784,0.0-52.0-1.6,SS1611845447407,NA,40,900,1210.9699999913573,NA,NA,NA,15,images/stimuli/spore_stims/simple_20_B_c.gif,right,NA,NA,NA,NA,NA
NA,null,NA,html-keyboard-response,293,425875,0.0-52.0-0.7,SS1611845447407,NA,null,NA,NA,"<p><img src= images/blank.png width =""200"" height = ""200"" style = ""float:right""></p><p><img src=images/blank.png width =""800"" height = ""200""></p>",NA,NA,NA,NA,NA,NA,NA,NA,NA,NA
NA,250.1650000922382,trial,sequential-stimulus-presentation,294,427093,0.0-52.0-1.7,SS1611845447407,NA,40,900,1150.1650000922382,NA,NA,NA,15,images/stimuli/spore_stims/simple_20_B_c.gif,right,NA,NA,NA,NA,NA
NA,829.630000051111,pref_question,html-keyboard-response,295,427985,0.0-53.0,SS1611845447407,NA,49,NA,NA,"<img src=images/stimuli/pokeballs_pref.jpg width =""800"" height = ""200"" style=""padding-top: 33%"">",1,left,15,NA,NA,NA,NA,NA,NA,NA
NA,507.42999999783933,pref_reveal,sequential-stimulus-presentation,296,429463,0.0-54.0,SS1611845447407,NA,40,900,1407.4299999978393,NA,NA,NA,15,NA,NA,novel,NA,NA,NA,NA
NA,null,NA,html-keyboard-response,297,430546,0.0-55.0-0.0,SS1611845447407,NA,null,NA,NA,"<p><img src= images/blank.png width =""200"" height = ""200"" style = ""float:right""></p><p><img src=images/blank.png width =""800"" height = ""200""></p>",NA,NA,NA,NA,NA,NA,NA,NA,NA,NA
NA,299.1799998562783,trial,sequential-stimulus-presentation,298,431823,0.0-55.0-1.0,SS1611845447407,NA,40,900,1199.1799998562783,NA,NA,NA,16,images/stimuli/spore_stims/simple_01_A_c.gif,middle,NA,NA,NA,NA,NA
NA,null,NA,html-keyboard-response,299,433166,0.0-55.0-0.1,SS1611845447407,NA,null,NA,NA,"<p><img src= images/blank.png width =""200"" height = ""200"" style = ""float:right""></p><p><img src=images/blank.png width =""800"" height = ""200""></p>",NA,NA,NA,NA,NA,NA,NA,NA,NA,NA
NA,502.9200001154095,trial,sequential-stimulus-presentation,300,434622,0.0-55.0-1.1,SS1611845447407,NA,40,900,1402.9200001154095,NA,NA,NA,16,images/stimuli/spore_stims/simple_01_A_c.gif,middle,NA,NA,NA,NA,NA
NA,null,NA,html-keyboard-response,301,435593,0.0-55.0-0.2,SS1611845447407,NA,null,NA,NA,"<p><img src= images/blank.png width =""200"" height = ""200"" style = ""float:right""></p><p><img src=images/blank.png width =""800"" height = ""200""></p>",NA,NA,NA,NA,NA,NA,NA,NA,NA,NA
NA,383.9350000489503,trial,sequential-stimulus-presentation,302,436946,0.0-55.0-1.2,SS1611845447407,NA,40,900,1283.9350000489503,NA,NA,NA,16,images/stimuli/spore_stims/simple_01_A_c.gif,middle,NA,NA,NA,NA,NA
NA,null,NA,html-keyboard-response,303,438031,0.0-55.0-0.3,SS1611845447407,NA,null,NA,NA,"<p><img src= images/blank.png width =""200"" height = ""200"" style = ""float:right""></p><p><img src=images/blank.png width =""800"" height = ""200""></p>",NA,NA,NA,NA,NA,NA,NA,NA,NA,NA
NA,370.14000001363456,trial,sequential-stimulus-presentation,304,439369,0.0-55.0-1.3,SS1611845447407,NA,40,900,1270.1400000136346,NA,NA,NA,16,images/stimuli/spore_stims/simple_01_A_c.gif,middle,NA,NA,NA,NA,NA
NA,null,NA,html-keyboard-response,305,440649,0.0-55.0-0.4,SS1611845447407,NA,null,NA,NA,"<p><img src= images/blank.png width =""200"" height = ""200"" style = ""float:right""></p><p><img src=images/blank.png width =""800"" height = ""200""></p>",NA,NA,NA,NA,NA,NA,NA,NA,NA,NA
NA,15.439999988302588,trial,sequential-stimulus-presentation,306,441635,0.0-55.0-1.4,SS1611845447407,NA,40,900,915.4399999883026,NA,NA,NA,16,images/stimuli/spore_stims/simple_01_A_c.gif,middle,NA,NA,NA,NA,NA
NA,null,NA,html-keyboard-response,307,442527,0.0-55.0-0.5,SS1611845447407,NA,null,NA,NA,"<p><img src= images/blank.png width =""200"" height = ""200"" style = ""float:right""></p><p><img src=images/blank.png width =""800"" height = ""200""></p>",NA,NA,NA,NA,NA,NA,NA,NA,NA,NA
NA,57.650000089779496,trial,sequential-stimulus-presentation,308,443557,0.0-55.0-1.5,SS1611845447407,NA,40,900,957.6500000897795,NA,NA,NA,16,images/stimuli/spore_stims/simple_01_A_c.gif,middle,NA,NA,NA,NA,NA
NA,null,NA,html-keyboard-response,309,444719,0.0-55.0-0.6,SS1611845447407,NA,null,NA,NA,"<p><img src= images/blank.png width =""200"" height = ""200"" style = ""float:right""></p><p><img src=images/blank.png width =""800"" height = ""200""></p>",NA,NA,NA,NA,NA,NA,NA,NA,NA,NA
NA,390.7650001347065,trial,sequential-stimulus-presentation,310,446087,0.0-55.0-1.6,SS1611845447407,NA,40,900,1290.7650001347065,NA,NA,NA,16,images/stimuli/spore_stims/simple_01_A_c.gif,middle,NA,NA,NA,NA,NA
NA,null,NA,html-keyboard-response,311,446992,0.0-55.0-0.7,SS1611845447407,NA,null,NA,NA,"<p><img src= images/blank.png width =""200"" height = ""200"" style = ""float:right""></p><p><img src=images/blank.png width =""800"" height = ""200""></p>",NA,NA,NA,NA,NA,NA,NA,NA,NA,NA
NA,407.43499994277954,trial,sequential-stimulus-presentation,312,448371,0.0-55.0-1.7,SS1611845447407,NA,40,900,1307.4349999427795,NA,NA,NA,16,images/stimuli/spore_stims/simple_01_A_c.gif,middle,NA,NA,NA,NA,NA
NA,null,NA,html-keyboard-response,313,449377,0.0-55.0-0.8,SS1611845447407,NA,null,NA,NA,"<p><img src= images/blank.png width =""200"" height = ""200"" style = ""float:right""></p><p><img src=images/blank.png width =""800"" height = ""200""></p>",NA,NA,NA,NA,NA,NA,NA,NA,NA,NA
NA,174.35500002466142,trial,sequential-stimulus-presentation,314,450523,0.0-55.0-1.8,SS1611845447407,NA,40,900,1074.3550000246614,NA,NA,NA,16,images/stimuli/spore_stims/simple_10_B_b.gif,right,NA,NA,NA,NA,NA
NA,1092.2700001392514,pref_question,html-keyboard-response,315,451680,0.0-56.0,SS1611845447407,NA,51,NA,NA,"<img src=images/stimuli/pokeballs_pref.jpg width =""800"" height = ""200"" style=""padding-top: 33%"">",3,right,16,NA,NA,NA,NA,NA,NA,NA
NA,564.6699999924749,pref_reveal,sequential-stimulus-presentation,316,453216,0.0-57.0,SS1611845447407,NA,40,900,1464.669999992475,NA,NA,NA,16,NA,NA,deviant,NA,NA,NA,NA
NA,null,NA,html-keyboard-response,317,454326,0.0-58.0-0.0,SS1611845447407,NA,null,NA,NA,"<p><img src= images/blank.png width =""200"" height = ""200"" style = ""float:right""></p><p><img src=images/blank.png width =""800"" height = ""200""></p>",NA,NA,NA,NA,NA,NA,NA,NA,NA,NA
NA,321.94000016897917,trial,sequential-stimulus-presentation,318,455620,0.0-58.0-1.0,SS1611845447407,NA,40,900,1221.9400001689792,NA,NA,NA,17,images/stimuli/spore_stims/complex_20_A_a.gif,left,NA,NA,NA,NA,NA
NA,null,NA,html-keyboard-response,319,456909,0.0-58.0-0.1,SS1611845447407,NA,null,NA,NA,"<p><img src= images/blank.png width =""200"" height = ""200"" style = ""float:right""></p><p><img src=images/blank.png width =""800"" height = ""200""></p>",NA,NA,NA,NA,NA,NA,NA,NA,NA,NA
NA,280.7700000703335,trial,sequential-stimulus-presentation,320,458165,0.0-58.0-1.1,SS1611845447407,NA,40,900,1180.7700000703335,NA,NA,NA,17,images/stimuli/spore_stims/complex_20_A_a.gif,left,NA,NA,NA,NA,NA
NA,null,NA,html-keyboard-response,321,459482,0.0-58.0-0.2,SS1611845447407,NA,null,NA,NA,"<p><img src= images/blank.png width =""200"" height = ""200"" style = ""float:right""></p><p><img src=images/blank.png width =""800"" height = ""200""></p>",NA,NA,NA,NA,NA,NA,NA,NA,NA,NA
NA,188.89000010676682,trial,sequential-stimulus-presentation,322,460647,0.0-58.0-1.2,SS1611845447407,NA,40,900,1088.8900001067668,NA,NA,NA,17,images/stimuli/spore_stims/complex_20_A_a.gif,left,NA,NA,NA,NA,NA
NA,null,NA,html-keyboard-response,323,461541,0.0-58.0-0.3,SS1611845447407,NA,null,NA,NA,"<p><img src= images/blank.png width =""200"" height = ""200"" style = ""float:right""></p><p><img src=images/blank.png width =""800"" height = ""200""></p>",NA,NA,NA,NA,NA,NA,NA,NA,NA,NA
NA,1460.820000153035,trial,sequential-stimulus-presentation,324,463977,0.0-58.0-1.3,SS1611845447407,NA,40,900,2360.820000153035,NA,NA,NA,17,images/stimuli/spore_stims/complex_20_A_a.gif,left,NA,NA,NA,NA,NA
NA,null,NA,html-keyboard-response,325,465107,0.0-58.0-0.4,SS1611845447407,NA,null,NA,NA,"<p><img src= images/blank.png width =""200"" height = ""200"" style = ""float:right""></p><p><img src=images/blank.png width =""800"" height = ""200""></p>",NA,NA,NA,NA,NA,NA,NA,NA,NA,NA
NA,599.4400000199676,trial,sequential-stimulus-presentation,326,466680,0.0-58.0-1.4,SS1611845447407,NA,40,900,1499.4400000199676,NA,NA,NA,17,images/stimuli/spore_stims/complex_20_A_a.gif,left,NA,NA,NA,NA,NA
NA,null,NA,html-keyboard-response,327,467749,0.0-58.0-0.5,SS1611845447407,NA,null,NA,NA,"<p><img src= images/blank.png width =""200"" height = ""200"" style = ""float:right""></p><p><img src=images/blank.png width =""800"" height = ""200""></p>",NA,NA,NA,NA,NA,NA,NA,NA,NA,NA
NA,987.7449998166412,trial,sequential-stimulus-presentation,328,469712,0.0-58.0-1.5,SS1611845447407,NA,40,900,1887.7449998166412,NA,NA,NA,17,images/stimuli/spore_stims/complex_20_A_a.gif,left,NA,NA,NA,NA,NA
NA,null,NA,html-keyboard-response,329,470797,0.0-58.0-0.6,SS1611845447407,NA,null,NA,NA,"<p><img src= images/blank.png width =""200"" height = ""200"" style = ""float:right""></p><p><img src=images/blank.png width =""800"" height = ""200""></p>",NA,NA,NA,NA,NA,NA,NA,NA,NA,NA
NA,682.655000127852,trial,sequential-stimulus-presentation,330,472457,0.0-58.0-1.6,SS1611845447407,NA,40,900,1582.655000127852,NA,NA,NA,17,images/stimuli/spore_stims/complex_20_A_a.gif,left,NA,NA,NA,NA,NA
NA,null,NA,html-keyboard-response,331,473351,0.0-58.0-0.7,SS1611845447407,NA,null,NA,NA,"<p><img src= images/blank.png width =""200"" height = ""200"" style = ""float:right""></p><p><img src=images/blank.png width =""800"" height = ""200""></p>",NA,NA,NA,NA,NA,NA,NA,NA,NA,NA
NA,325.94000012613833,trial,sequential-stimulus-presentation,332,474656,0.0-58.0-1.7,SS1611845447407,NA,40,900,1225.9400001261383,NA,NA,NA,17,images/stimuli/spore_stims/complex_20_A_a.gif,left,NA,NA,NA,NA,NA
NA,null,NA,html-keyboard-response,333,475971,0.0-58.0-0.8,SS1611845447407,NA,null,NA,NA,"<p><img src= images/blank.png width =""200"" height = ""200"" style = ""float:right""></p><p><img src=images/blank.png width =""800"" height = ""200""></p>",NA,NA,NA,NA,NA,NA,NA,NA,NA,NA
NA,283.4199999924749,trial,sequential-stimulus-presentation,334,477230,0.0-58.0-1.8,SS1611845447407,NA,40,900,1183.419999992475,NA,NA,NA,17,images/stimuli/spore_stims/complex_17_B_d.gif,middle,NA,NA,NA,NA,NA
NA,1075.429999968037,pref_question,html-keyboard-response,335,478376,0.0-59.0,SS1611845447407,NA,50,NA,NA,"<img src=images/stimuli/pokeballs_pref.jpg width =""800"" height = ""200"" style=""padding-top: 33%"">",2,middle,17,NA,NA,NA,NA,NA,NA,NA
NA,385.63999999314547,pref_reveal,sequential-stimulus-presentation,336,479743,0.0-60.0,SS1611845447407,NA,40,900,1285.6399999931455,NA,NA,NA,17,NA,NA,deviant,NA,NA,NA,NA
NA,null,NA,html-keyboard-response,337,480985,0.0-61.0-0.0,SS1611845447407,NA,null,NA,NA,"<p><img src= images/blank.png width =""200"" height = ""200"" style = ""float:right""></p><p><img src=images/blank.png width =""800"" height = ""200""></p>",NA,NA,NA,NA,NA,NA,NA,NA,NA,NA
NA,433.614999987185,trial,sequential-stimulus-presentation,338,482395,0.0-61.0-1.0,SS1611845447407,NA,40,900,1333.614999987185,NA,NA,NA,18,images/stimuli/spore_stims/simple_14_A_b.gif,left,NA,NA,NA,NA,NA
NA,null,NA,html-keyboard-response,339,483535,0.0-61.0-0.1,SS1611845447407,NA,null,NA,NA,"<p><img src= images/blank.png width =""200"" height = ""200"" style = ""float:right""></p><p><img src=images/blank.png width =""800"" height = ""200""></p>",NA,NA,NA,NA,NA,NA,NA,NA,NA,NA
NA,1394.899999955669,trial,sequential-stimulus-presentation,340,486723,0.0-61.0-1.1,SS1611845447407,NA,40,900,2294.899999955669,NA,NA,NA,18,images/stimuli/spore_stims/simple_14_A_b.gif,left,NA,NA,NA,NA,NA
NA,null,NA,html-keyboard-response,341,487866,0.0-61.0-0.2,SS1611845447407,NA,null,NA,NA,"<p><img src= images/blank.png width =""200"" height = ""200"" style = ""float:right""></p><p><img src=images/blank.png width =""800"" height = ""200""></p>",NA,NA,NA,NA,NA,NA,NA,NA,NA,NA
NA,167.6399998832494,trial,sequential-stimulus-presentation,342,489011,0.0-61.0-1.2,SS1611845447407,NA,40,900,1067.6399998832494,NA,NA,NA,18,images/stimuli/spore_stims/simple_14_A_b.gif,left,NA,NA,NA,NA,NA
NA,null,NA,html-keyboard-response,343,490044,0.0-61.0-0.3,SS1611845447407,NA,null,NA,NA,"<p><img src= images/blank.png width =""200"" height = ""200"" style = ""float:right""></p><p><img src=images/blank.png width =""800"" height = ""200""></p>",NA,NA,NA,NA,NA,NA,NA,NA,NA,NA
NA,337.23000017926097,trial,sequential-stimulus-presentation,344,491358,0.0-61.0-1.3,SS1611845447407,NA,40,900,1237.230000179261,NA,NA,NA,18,images/stimuli/spore_stims/simple_14_A_b.gif,left,NA,NA,NA,NA,NA
NA,null,NA,html-keyboard-response,345,492527,0.0-61.0-0.4,SS1611845447407,NA,null,NA,NA,"<p><img src= images/blank.png width =""200"" height = ""200"" style = ""float:right""></p><p><img src=images/blank.png width =""800"" height = ""200""></p>",NA,NA,NA,NA,NA,NA,NA,NA,NA,NA
NA,325.4350000061095,trial,sequential-stimulus-presentation,346,493830,0.0-61.0-1.4,SS1611845447407,NA,40,900,1225.4350000061095,NA,NA,NA,18,images/stimuli/spore_stims/simple_14_A_b.gif,left,NA,NA,NA,NA,NA
NA,null,NA,html-keyboard-response,347,495053,0.0-61.0-0.5,SS1611845447407,NA,null,NA,NA,"<p><img src= images/blank.png width =""200"" height = ""200"" style = ""float:right""></p><p><img src=images/blank.png width =""800"" height = ""200""></p>",NA,NA,NA,NA,NA,NA,NA,NA,NA,NA
NA,300.1650001388043,trial,sequential-stimulus-presentation,348,496332,0.0-61.0-1.5,SS1611845447407,NA,40,900,1200.1650001388043,NA,NA,NA,18,images/stimuli/spore_stims/simple_14_A_b.gif,left,NA,NA,NA,NA,NA
NA,null,NA,html-keyboard-response,349,497554,0.0-61.0-0.6,SS1611845447407,NA,null,NA,NA,"<p><img src= images/blank.png width =""200"" height = ""200"" style = ""float:right""></p><p><img src=images/blank.png width =""800"" height = ""200""></p>",NA,NA,NA,NA,NA,NA,NA,NA,NA,NA
NA,265.36999992094934,trial,sequential-stimulus-presentation,350,498803,0.0-61.0-1.6,SS1611845447407,NA,40,900,1165.3699999209493,NA,NA,NA,18,images/stimuli/spore_stims/simple_14_B_b.gif,right,NA,NA,NA,NA,NA
NA,null,NA,html-keyboard-response,351,499820,0.0-61.0-0.7,SS1611845447407,NA,null,NA,NA,"<p><img src= images/blank.png width =""200"" height = ""200"" style = ""float:right""></p><p><img src=images/blank.png width =""800"" height = ""200""></p>",NA,NA,NA,NA,NA,NA,NA,NA,NA,NA
NA,534.8600000143051,trial,sequential-stimulus-presentation,352,501333,0.0-61.0-1.7,SS1611845447407,NA,40,900,1434.8600000143051,NA,NA,NA,18,images/stimuli/spore_stims/simple_14_A_b.gif,left,NA,NA,NA,NA,NA
NA,1109.2149999458343,pref_question,html-keyboard-response,353,502511,0.0-62.0,SS1611845447407,NA,49,NA,NA,"<img src=images/stimuli/pokeballs_pref.jpg width =""800"" height = ""200"" style=""padding-top: 33%"">",1,left,18,NA,NA,NA,NA,NA,NA,NA
NA,298.6500000115484,pref_reveal,sequential-stimulus-presentation,354,503789,0.0-63.0,SS1611845447407,NA,40,900,1198.6500000115484,NA,NA,NA,18,NA,NA,background,NA,NA,NA,NA
NA,null,NA,html-keyboard-response,355,505013,0.0-64.0-0.0,SS1611845447407,NA,null,NA,NA,"<p><img src= images/blank.png width =""200"" height = ""200"" style = ""float:right""></p><p><img src=images/blank.png width =""800"" height = ""200""></p>",NA,NA,NA,NA,NA,NA,NA,NA,NA,NA
NA,389.17999994009733,trial,sequential-stimulus-presentation,356,506381,0.0-64.0-1.0,SS1611845447407,NA,40,900,1289.1799999400973,NA,NA,NA,19,images/stimuli/spore_stims/simple_03_A_a.gif,middle,NA,NA,NA,NA,NA
NA,null,NA,html-keyboard-response,357,507325,0.0-64.0-0.1,SS1611845447407,NA,null,NA,NA,"<p><img src= images/blank.png width =""200"" height = ""200"" style = ""float:right""></p><p><img src=images/blank.png width =""800"" height = ""200""></p>",NA,NA,NA,NA,NA,NA,NA,NA,NA,NA
NA,515.6150001566857,trial,sequential-stimulus-presentation,358,508821,0.0-64.0-1.1,SS1611845447407,NA,40,900,1415.6150001566857,NA,NA,NA,19,images/stimuli/spore_stims/simple_03_A_a.gif,middle,NA,NA,NA,NA,NA
NA,null,NA,html-keyboard-response,359,510078,0.0-64.0-0.2,SS1611845447407,NA,null,NA,NA,"<p><img src= images/blank.png width =""200"" height = ""200"" style = ""float:right""></p><p><img src=images/blank.png width =""800"" height = ""200""></p>",NA,NA,NA,NA,NA,NA,NA,NA,NA,NA
NA,330.8049999177456,trial,sequential-stimulus-presentation,360,511390,0.0-64.0-1.2,SS1611845447407,NA,40,900,1230.8049999177456,NA,NA,NA,19,images/stimuli/spore_stims/simple_03_A_a.gif,middle,NA,NA,NA,NA,NA
NA,null,NA,html-keyboard-response,361,512459,0.0-64.0-0.3,SS1611845447407,NA,null,NA,NA,"<p><img src= images/blank.png width =""200"" height = ""200"" style = ""float:right""></p><p><img src=images/blank.png width =""800"" height = ""200""></p>",NA,NA,NA,NA,NA,NA,NA,NA,NA,NA
NA,390.9449998755008,trial,sequential-stimulus-presentation,362,513832,0.0-64.0-1.3,SS1611845447407,NA,40,900,1290.9449998755008,NA,NA,NA,19,images/stimuli/spore_stims/simple_03_B_a.gif,right,NA,NA,NA,NA,NA
NA,null,NA,html-keyboard-response,363,514933,0.0-64.0-0.4,SS1611845447407,NA,null,NA,NA,"<p><img src= images/blank.png width =""200"" height = ""200"" style = ""float:right""></p><p><img src=images/blank.png width =""800"" height = ""200""></p>",NA,NA,NA,NA,NA,NA,NA,NA,NA,NA
NA,382.9550000373274,trial,sequential-stimulus-presentation,364,516294,0.0-64.0-1.4,SS1611845447407,NA,40,900,1282.9550000373274,NA,NA,NA,19,images/stimuli/spore_stims/simple_03_A_a.gif,middle,NA,NA,NA,NA,NA
NA,null,NA,html-keyboard-response,365,517604,0.0-64.0-0.5,SS1611845447407,NA,null,NA,NA,"<p><img src= images/blank.png width =""200"" height = ""200"" style = ""float:right""></p><p><img src=images/blank.png width =""800"" height = ""200""></p>",NA,NA,NA,NA,NA,NA,NA,NA,NA,NA
NA,3643.2150001637638,trial,sequential-stimulus-presentation,366,522230,0.0-64.0-1.5,SS1611845447407,NA,40,900,4543.215000163764,NA,NA,NA,19,images/stimuli/spore_stims/simple_03_A_a.gif,middle,NA,NA,NA,NA,NA
NA,null,NA,html-keyboard-response,367,523568,0.0-64.0-0.6,SS1611845447407,NA,null,NA,NA,"<p><img src= images/blank.png width =""200"" height = ""200"" style = ""float:right""></p><p><img src=images/blank.png width =""800"" height = ""200""></p>",NA,NA,NA,NA,NA,NA,NA,NA,NA,NA
NA,538.1800001487136,trial,sequential-stimulus-presentation,368,525088,0.0-64.0-1.6,SS1611845447407,NA,40,900,1438.1800001487136,NA,NA,NA,19,images/stimuli/spore_stims/simple_03_A_a.gif,middle,NA,NA,NA,NA,NA
NA,null,NA,html-keyboard-response,369,526326,0.0-64.0-0.7,SS1611845447407,NA,null,NA,NA,"<p><img src= images/blank.png width =""200"" height = ""200"" style = ""float:right""></p><p><img src=images/blank.png width =""800"" height = ""200""></p>",NA,NA,NA,NA,NA,NA,NA,NA,NA,NA
NA,960.1150001399219,trial,sequential-stimulus-presentation,370,528271,0.0-64.0-1.7,SS1611845447407,NA,40,900,1860.115000139922,NA,NA,NA,19,images/stimuli/spore_stims/simple_03_A_a.gif,middle,NA,NA,NA,NA,NA
NA,929.4400000944734,pref_question,html-keyboard-response,371,529280,0.0-65.0,SS1611845447407,NA,49,NA,NA,"<img src=images/stimuli/pokeballs_pref.jpg width =""800"" height = ""200"" style=""padding-top: 33%"">",1,left,19,NA,NA,NA,NA,NA,NA,NA
NA,792.0099999755621,pref_reveal,sequential-stimulus-presentation,372,531057,0.0-66.0,SS1611845447407,NA,40,900,1692.009999975562,NA,NA,NA,19,NA,NA,novel,NA,NA,NA,NA
"[{""page_index"":0,""viewing_time"":2094.7249999735504}]",2095.285000046715,instructions,instructions,373,533229,0.0-67.0,SS1611845447407,NA,NA,NA,NA,NA,NA,NA,NA,NA,NA,NA,NA,NA,NA,NA
NA,1711.8550001177937,similarity_question,html-slider-response,374,535029,0.0-68.0,SS1611845447407,NA,NA,NA,NA,"<p><img src=images/stimuli/spore_stims/simple_19_A_a.gif width =""200"" height = ""200"" style = ""float:left margin-right: 10px;""></p><p><img src=images/stimuli/spore_stims/simple_16_A_c.gif width =""200"" height = ""200"" style = ""float:right margin-right: 10px;"" ></p>",NA,NA,NA,NA,NA,NA,50,73,images/stimuli/spore_stims/simple_19_A_a.gif,images/stimuli/spore_stims/simple_16_A_c.gif
NA,1830.504999961704,similarity_question,html-slider-response,375,536950,0.0-69.0,SS1611845447407,NA,NA,NA,NA,"<p><img src=images/stimuli/spore_stims/simple_03_A_a.gif width =""200"" height = ""200"" style = ""float:left margin-right: 10px;""></p><p><img src=images/stimuli/spore_stims/simple_03_B_a.gif width =""200"" height = ""200"" style = ""float:right margin-right: 10px;"" ></p>",NA,NA,NA,NA,NA,NA,50,26,images/stimuli/spore_stims/simple_03_A_a.gif,images/stimuli/spore_stims/simple_03_B_a.gif
NA,1346.2849999777973,similarity_question,html-slider-response,376,538391,0.0-70.0,SS1611845447407,NA,NA,NA,NA,"<p><img src=images/stimuli/spore_stims/complex_16_A_c.gif width =""200"" height = ""200"" style = ""float:left margin-right: 10px;""></p><p><img src=images/stimuli/spore_stims/complex_16_B_c.gif width =""200"" height = ""200"" style = ""float:right margin-right: 10px;"" ></p>",NA,NA,NA,NA,NA,NA,50,71,images/stimuli/spore_stims/complex_16_A_c.gif,images/stimuli/spore_stims/complex_16_B_c.gif
NA,1761.5000000223517,similarity_question,html-slider-response,377,540237,0.0-71.0,SS1611845447407,NA,NA,NA,NA,"<p><img src=images/stimuli/spore_stims/simple_18_A_a.gif width =""200"" height = ""200"" style = ""float:left margin-right: 10px;""></p><p><img src=images/stimuli/spore_stims/simple_18_B_a.gif width =""200"" height = ""200"" style = ""float:right margin-right: 10px;"" ></p>",NA,NA,NA,NA,NA,NA,50,87,images/stimuli/spore_stims/simple_18_A_a.gif,images/stimuli/spore_stims/simple_18_B_a.gif
NA,5952.3800001479685,similarity_question,html-slider-response,378,546276,0.0-72.0,SS1611845447407,NA,NA,NA,NA,"<p><img src=images/stimuli/spore_stims/complex_04_B_a.gif width =""200"" height = ""200"" style = ""float:left margin-right: 10px;""></p><p><img src=images/stimuli/spore_stims/complex_05_A_c.gif width =""200"" height = ""200"" style = ""float:right margin-right: 10px;"" ></p>",NA,NA,NA,NA,NA,NA,50,18,images/stimuli/spore_stims/complex_04_B_a.gif,images/stimuli/spore_stims/complex_05_A_c.gif
NA,1588.8250002171844,similarity_question,html-slider-response,379,547947,0.0-73.0,SS1611845447407,NA,NA,NA,NA,"<p><img src=images/stimuli/spore_stims/complex_07_B_d.gif width =""200"" height = ""200"" style = ""float:left margin-right: 10px;""></p><p><img src=images/stimuli/spore_stims/complex_07_A_b.gif width =""200"" height = ""200"" style = ""float:right margin-right: 10px;"" ></p>",NA,NA,NA,NA,NA,NA,50,69,images/stimuli/spore_stims/complex_07_B_d.gif,images/stimuli/spore_stims/complex_07_A_b.gif
NA,2274.3049999698997,similarity_question,html-slider-response,380,550309,0.0-74.0,SS1611845447407,NA,NA,NA,NA,"<p><img src=images/stimuli/spore_stims/simple_14_B_b.gif width =""200"" height = ""200"" style = ""float:left margin-right: 10px;""></p><p><img src=images/stimuli/spore_stims/simple_14_A_b.gif width =""200"" height = ""200"" style = ""float:right margin-right: 10px;"" ></p>",NA,NA,NA,NA,NA,NA,50,68,images/stimuli/spore_stims/simple_14_B_b.gif,images/stimuli/spore_stims/simple_14_A_b.gif
NA,1657.2449998930097,similarity_question,html-slider-response,381,552061,0.0-75.0,SS1611845447407,NA,NA,NA,NA,"<p><img src=images/stimuli/spore_stims/complex_17_B_d.gif width =""200"" height = ""200"" style = ""float:left margin-right: 10px;""></p><p><img src=images/stimuli/spore_stims/complex_20_A_a.gif width =""200"" height = ""200"" style = ""float:right margin-right: 10px;"" ></p>",NA,NA,NA,NA,NA,NA,50,64,images/stimuli/spore_stims/complex_17_B_d.gif,images/stimuli/spore_stims/complex_20_A_a.gif
NA,2083.2150001078844,similarity_question,html-slider-response,382,554229,0.0-76.0,SS1611845447407,NA,NA,NA,NA,"<p><img src=images/stimuli/spore_stims/simple_02_B_a.gif width =""200"" height = ""200"" style = ""float:left margin-right: 10px;""></p><p><img src=images/stimuli/spore_stims/simple_02_A_a.gif width =""200"" height = ""200"" style = ""float:right margin-right: 10px;"" ></p>",NA,NA,NA,NA,NA,NA,50,73,images/stimuli/spore_stims/simple_02_B_a.gif,images/stimuli/spore_stims/simple_02_A_a.gif
NA,2300.7749998942018,similarity_question,html-slider-response,383,556622,0.0-77.0,SS1611845447407,NA,NA,NA,NA,"<p><img src=images/stimuli/spore_stims/simple_01_A_c.gif width =""200"" height = ""200"" style = ""float:left margin-right: 10px;""></p><p><img src=images/stimuli/spore_stims/simple_10_B_b.gif width =""200"" height = ""200"" style = ""float:right margin-right: 10px;"" ></p>",NA,NA,NA,NA,NA,NA,50,76,images/stimuli/spore_stims/simple_01_A_c.gif,images/stimuli/spore_stims/simple_10_B_b.gif
NA,1555.9950000606477,similarity_question,html-slider-response,384,558269,0.0-78.0,SS1611845447407,NA,NA,NA,NA,"<p><img src=images/stimuli/spore_stims/complex_10_B_c.gif width =""200"" height = ""200"" style = ""float:left margin-right: 10px;""></p><p><img src=images/stimuli/spore_stims/complex_10_A_c.gif width =""200"" height = ""200"" style = ""float:right margin-right: 10px;"" ></p>",NA,NA,NA,NA,NA,NA,50,70,images/stimuli/spore_stims/complex_10_B_c.gif,images/stimuli/spore_stims/complex_10_A_c.gif
NA,1678.2549999188632,similarity_question,html-slider-response,385,560037,0.0-79.0,SS1611845447407,NA,NA,NA,NA,"<p><img src=images/stimuli/spore_stims/complex_18_A_a.gif width =""200"" height = ""200"" style = ""float:left margin-right: 10px;""></p><p><img src=images/stimuli/spore_stims/complex_20_B_c.gif width =""200"" height = ""200"" style = ""float:right margin-right: 10px;"" ></p>",NA,NA,NA,NA,NA,NA,50,36,images/stimuli/spore_stims/complex_18_A_a.gif,images/stimuli/spore_stims/complex_20_B_c.gif
NA,3008.7550000753254,similarity_question,html-slider-response,386,563135,0.0-80.0,SS1611845447407,NA,NA,NA,NA,"<p><img src=images/stimuli/spore_stims/simple_20_B_c.gif width =""200"" height = ""200"" style = ""float:left margin-right: 10px;""></p><p><img src=images/stimuli/spore_stims/simple_08_A_b.gif width =""200"" height = ""200"" style = ""float:right margin-right: 10px;"" ></p>",NA,NA,NA,NA,NA,NA,50,14,images/stimuli/spore_stims/simple_20_B_c.gif,images/stimuli/spore_stims/simple_08_A_b.gif
NA,1520.6699999980628,similarity_question,html-slider-response,387,564747,0.0-81.0,SS1611845447407,NA,NA,NA,NA,"<p><img src=images/stimuli/spore_stims/simple_13_A_c.gif width =""200"" height = ""200"" style = ""float:left margin-right: 10px;""></p><p><img src=images/stimuli/spore_stims/simple_17_B_d.gif width =""200"" height = ""200"" style = ""float:right margin-right: 10px;"" ></p>",NA,NA,NA,NA,NA,NA,50,33,images/stimuli/spore_stims/simple_13_A_c.gif,images/stimuli/spore_stims/simple_17_B_d.gif
NA,1967.9200001992285,similarity_question,html-slider-response,388,566798,0.0-82.0,SS1611845447407,NA,NA,NA,NA,"<p><img src=images/stimuli/spore_stims/simple_17_A_b.gif width =""200"" height = ""200"" style = ""float:left margin-right: 10px;""></p><p><img src=images/stimuli/spore_stims/simple_09_A_c.gif width =""200"" height = ""200"" style = ""float:right margin-right: 10px;"" ></p>",NA,NA,NA,NA,NA,NA,50,32,images/stimuli/spore_stims/simple_17_A_b.gif,images/stimuli/spore_stims/simple_09_A_c.gif
NA,2243.0399998556823,similarity_question,html-slider-response,389,569134,0.0-83.0,SS1611845447407,NA,NA,NA,NA,"<p><img src=images/stimuli/spore_stims/complex_14_A_b.gif width =""200"" height = ""200"" style = ""float:left margin-right: 10px;""></p><p><img src=images/stimuli/spore_stims/complex_14_B_b.gif width =""200"" height = ""200"" style = ""float:right margin-right: 10px;"" ></p>",NA,NA,NA,NA,NA,NA,50,62,images/stimuli/spore_stims/complex_14_A_b.gif,images/stimuli/spore_stims/complex_14_B_b.gif
NA,2219.3549999501556,similarity_question,html-slider-response,390,571445,0.0-84.0,SS1611845447407,NA,NA,NA,NA,"<p><img src=images/stimuli/spore_stims/complex_16_B_b.gif width =""200"" height = ""200"" style = ""float:left margin-right: 10px;""></p><p><img src=images/stimuli/spore_stims/complex_08_B_d.gif width =""200"" height = ""200"" style = ""float:right margin-right: 10px;"" ></p>",NA,NA,NA,NA,NA,NA,50,66,images/stimuli/spore_stims/complex_16_B_b.gif,images/stimuli/spore_stims/complex_08_B_d.gif
NA,2091.105000115931,similarity_question,html-slider-response,391,573621,0.0-85.0,SS1611845447407,NA,NA,NA,NA,"<p><img src=images/stimuli/spore_stims/complex_19_B_b.gif width =""200"" height = ""200"" style = ""float:left margin-right: 10px;""></p><p><img src=images/stimuli/spore_stims/complex_19_A_b.gif width =""200"" height = ""200"" style = ""float:right margin-right: 10px;"" ></p>",NA,NA,NA,NA,NA,NA,50,83,images/stimuli/spore_stims/complex_19_B_b.gif,images/stimuli/spore_stims/complex_19_A_b.gif
NA,1771.805000025779,similarity_question,html-slider-response,392,575479,0.0-86.0,SS1611845447407,NA,NA,NA,NA,"<p><img src=images/stimuli/spore_stims/simple_07_A_a.gif width =""200"" height = ""200"" style = ""float:left margin-right: 10px;""></p><p><img src=images/stimuli/spore_stims/simple_07_B_a.gif width =""200"" height = ""200"" style = ""float:right margin-right: 10px;"" ></p>",NA,NA,NA,NA,NA,NA,50,73,images/stimuli/spore_stims/simple_07_A_a.gif,images/stimuli/spore_stims/simple_07_B_a.gif
NA,2392.0900002121925,similarity_question,html-slider-response,393,577957,0.0-87.0,SS1611845447407,NA,NA,NA,NA,"<p><img src=images/stimuli/spore_stims/complex_12_A_b.gif width =""200"" height = ""200"" style = ""float:left margin-right: 10px;""></p><p><img src=images/stimuli/spore_stims/complex_12_B_b.gif width =""200"" height = ""200"" style = ""float:right margin-right: 10px;"" ></p>",NA,NA,NA,NA,NA,NA,50,72,images/stimuli/spore_stims/complex_12_A_b.gif,images/stimuli/spore_stims/complex_12_B_b.gif
"[{""page_index"":0,""viewing_time"":971.4900001417845}]",972.0400001388043,instructions,instructions,394,579028,0.0-88.0,SS1611845447407,NA,NA,NA,NA,NA,NA,NA,NA,NA,NA,NA,NA,NA,NA,NA
NA,1986.9300001300871,complexity_question,html-slider-response,395,581103,0.0-89.0,SS1611845447407,NA,NA,NA,NA,images/stimuli/spore_stims/complex_16_A_c.gif,NA,NA,NA,NA,NA,NA,50,66,NA,NA
NA,2219.8600000701845,complexity_question,html-slider-response,396,583422,0.0-90.0,SS1611845447407,NA,NA,NA,NA,images/stimuli/spore_stims/simple_10_B_b.gif,NA,NA,NA,NA,NA,NA,50,68,NA,NA
NA,2847.3399998620152,complexity_question,html-slider-response,397,586365,0.0-91.0,SS1611845447407,NA,NA,NA,NA,images/stimuli/spore_stims/simple_14_A_b.gif,NA,NA,NA,NA,NA,NA,50,57,NA,NA
NA,1948.7450001761317,complexity_question,html-slider-response,398,588406,0.0-92.0,SS1611845447407,NA,NA,NA,NA,images/stimuli/spore_stims/complex_16_B_b.gif,NA,NA,NA,NA,NA,NA,50,75,NA,NA
NA,1749.5750000234693,complexity_question,html-slider-response,399,590253,0.0-93.0,SS1611845447407,NA,NA,NA,NA,images/stimuli/spore_stims/complex_14_B_b.gif,NA,NA,NA,NA,NA,NA,50,63,NA,NA
