success,trial_type,trial_index,time_elapsed,internal_node_id,subject,rt,responses,view_history,stimulus_type,trial_stimulus,key_press,minimum_viewing_duration,trial_looking_time,block_deviant,block_background,exposure_type,forced_exposure_time,stimulus,stimulus_displayed,question_order
TRUE,fullscreen,0,104110,0.0-0.0,SS1651680208732,NA,NA,NA,NA,NA,NA,NA,NA,NA,NA,NA,NA,NA,NA,NA
NA,survey-text,1,126564,0.0-1.0,SS1651680208732,22449.700000000186,"{""p_id"":""6130c6f2f70b6f67907d589d""}",NA,NA,NA,NA,NA,NA,NA,NA,NA,NA,NA,NA,NA
NA,instructions,2,130235,0.0-2.0-0.0,SS1651680208732,3665.5,NA,"[{""page_index"":0,""viewing_time"":3664.9000000003725}]",NA,NA,NA,NA,NA,NA,NA,NA,NA,NA,NA,NA
NA,instructions,3,156573,0.0-2.0-1.0,SS1651680208732,24325.599999999627,NA,"[{""page_index"":0,""viewing_time"":14985.199999999255},{""page_index"":1,""viewing_time"":9340.200000000186}]",instructions,NA,NA,NA,NA,NA,NA,NA,NA,NA,NA,NA
NA,stimuli-presentation,4,162840,0.0-2.0-2.0,SS1651680208732,5762.399999999441,NA,NA,NA,NA,40,500,6262.399999999441,null,null,self_paced,0,NA,NA,NA
NA,stimuli-presentation,5,169584,0.0-2.0-3.0,SS1651680208732,6238.200000000186,NA,NA,NA,NA,40,500,6738.200000000186,null,null,self_paced,0,NA,NA,NA
NA,instructions,6,173019,0.0-2.0-4.0,SS1651680208732,3433.100000000559,NA,"[{""page_index"":0,""viewing_time"":3432.800000000745}]",instructions,NA,NA,NA,NA,NA,NA,NA,NA,NA,NA,NA
NA,instructions,7,196159,0.0-2.0-5.0,SS1651680208732,23138.099999999627,NA,"[{""page_index"":0,""viewing_time"":14866.5},{""page_index"":1,""viewing_time"":4894.5999999996275},{""page_index"":2,""viewing_time"":1696},{""page_index"":3,""viewing_time"":1680.800000000745}]",instructions,NA,NA,NA,NA,NA,NA,NA,NA,NA,NA,NA
NA,html-keyboard-response,8,197097,0.0-2.0-6.0-0.0,SS1651680208732,null,NA,NA,NA,NA,null,NA,NA,NA,NA,NA,NA,"<p><img src= images/blank.png width =""600"" height = ""600"" style=""position:fixed;top:50%; left:50%; transform: translate(-50%, -50%); border:5px solid black"">",NA,NA
NA,stimuli-presentation,9,205427,0.0-2.0-6.0-1.0,SS1651680208732,7826.100000000559,NA,NA,trial,NA,40,500,8326.100000000559,null,null,self_paced,0,NA,images/stimuli/simple_04_A_a.gif,NA
NA,html-keyboard-response,10,206400,0.0-2.0-6.0-0.1,SS1651680208732,null,NA,NA,NA,NA,null,NA,NA,NA,NA,NA,NA,"<p><img src= images/blank.png width =""600"" height = ""600"" style=""position:fixed;top:50%; left:50%; transform: translate(-50%, -50%); border:5px solid black"">",NA,NA
NA,stimuli-presentation,11,211418,0.0-2.0-6.0-1.1,SS1651680208732,4515.799999999814,NA,NA,trial,NA,40,500,5015.799999999814,null,null,self_paced,0,NA,images/stimuli/simple_09_A_a.gif,NA
NA,html-keyboard-response,12,212530,0.0-2.0-6.0-0.2,SS1651680208732,null,NA,NA,NA,NA,null,NA,NA,NA,NA,NA,NA,"<p><img src= images/blank.png width =""600"" height = ""600"" style=""position:fixed;top:50%; left:50%; transform: translate(-50%, -50%); border:5px solid black"">",NA,NA
NA,stimuli-presentation,13,217310,0.0-2.0-6.0-1.2,SS1651680208732,4262.799999999814,NA,NA,trial,NA,40,500,4762.799999999814,null,null,self_paced,0,NA,images/stimuli/complex_05_A_a.gif,NA
NA,html-keyboard-response,14,218411,0.0-2.0-6.0-0.3,SS1651680208732,null,NA,NA,NA,NA,null,NA,NA,NA,NA,NA,NA,"<p><img src= images/blank.png width =""600"" height = ""600"" style=""position:fixed;top:50%; left:50%; transform: translate(-50%, -50%); border:5px solid black"">",NA,NA
NA,stimuli-presentation,15,222404,0.0-2.0-6.0-1.3,SS1651680208732,3487.600000000559,NA,NA,trial,NA,40,500,3987.600000000559,null,null,self_paced,0,NA,images/stimuli/complex_19_A_a.gif,NA
NA,html-keyboard-response,16,223227,0.0-2.0-6.0-0.4,SS1651680208732,null,NA,NA,NA,NA,null,NA,NA,NA,NA,NA,NA,"<p><img src= images/blank.png width =""600"" height = ""600"" style=""position:fixed;top:50%; left:50%; transform: translate(-50%, -50%); border:5px solid black"">",NA,NA
NA,stimuli-presentation,17,226831,0.0-2.0-6.0-1.4,SS1651680208732,3086.0999999996275,NA,NA,trial,NA,40,500,3586.0999999996275,null,null,self_paced,0,NA,images/stimuli/complex_10_A_a.gif,NA
NA,html-keyboard-response,18,227742,0.0-2.0-6.0-0.5,SS1651680208732,null,NA,NA,NA,NA,null,NA,NA,NA,NA,NA,NA,"<p><img src= images/blank.png width =""600"" height = ""600"" style=""position:fixed;top:50%; left:50%; transform: translate(-50%, -50%); border:5px solid black"">",NA,NA
NA,stimuli-presentation,19,230216,0.0-2.0-6.0-1.5,SS1651680208732,1969.2000000001863,NA,NA,trial,NA,40,500,2469.2000000001863,null,null,self_paced,0,NA,images/stimuli/simple_07_A_a.gif,NA
NA,html-keyboard-response,20,231178,0.0-2.0-6.0-0.6,SS1651680208732,null,NA,NA,NA,NA,null,NA,NA,NA,NA,NA,NA,"<p><img src= images/blank.png width =""600"" height = ""600"" style=""position:fixed;top:50%; left:50%; transform: translate(-50%, -50%); border:5px solid black"">",NA,NA
NA,stimuli-presentation,21,239698,0.0-2.0-6.0-1.6,SS1651680208732,8000.5,NA,NA,trial,NA,40,500,8500.5,null,null,self_paced,0,NA,images/stimuli/complex_06_A_a.gif,NA
NA,html-keyboard-response,22,240802,0.0-2.0-6.0-0.7,SS1651680208732,null,NA,NA,NA,NA,null,NA,NA,NA,NA,NA,NA,"<p><img src= images/blank.png width =""600"" height = ""600"" style=""position:fixed;top:50%; left:50%; transform: translate(-50%, -50%); border:5px solid black"">",NA,NA
NA,stimuli-presentation,23,244244,0.0-2.0-6.0-1.7,SS1651680208732,2936.5999999996275,NA,NA,trial,NA,40,500,3436.5999999996275,null,null,self_paced,0,NA,images/stimuli/simple_06_A_a.gif,NA
NA,html-keyboard-response,24,245385,0.0-2.0-6.0-0.8,SS1651680208732,null,NA,NA,NA,NA,null,NA,NA,NA,NA,NA,NA,"<p><img src= images/blank.png width =""600"" height = ""600"" style=""position:fixed;top:50%; left:50%; transform: translate(-50%, -50%); border:5px solid black"">",NA,NA
NA,stimuli-presentation,25,248709,0.0-2.0-6.0-1.8,SS1651680208732,2822.399999999441,NA,NA,trial,NA,40,500,3322.399999999441,null,null,self_paced,0,NA,images/stimuli/complex_13_A_a.gif,NA
NA,html-keyboard-response,26,249763,0.0-2.0-6.0-0.9,SS1651680208732,null,NA,NA,NA,NA,null,NA,NA,NA,NA,NA,NA,"<p><img src= images/blank.png width =""600"" height = ""600"" style=""position:fixed;top:50%; left:50%; transform: translate(-50%, -50%); border:5px solid black"">",NA,NA
NA,stimuli-presentation,27,253294,0.0-2.0-6.0-1.9,SS1651680208732,3015.9000000003725,NA,NA,trial,NA,40,500,3515.9000000003725,null,null,self_paced,0,NA,images/stimuli/complex_17_A_a.gif,NA
NA,html-keyboard-response,28,254294,0.0-2.0-6.0-0.10,SS1651680208732,null,NA,NA,NA,NA,null,NA,NA,NA,NA,NA,NA,"<p><img src= images/blank.png width =""600"" height = ""600"" style=""position:fixed;top:50%; left:50%; transform: translate(-50%, -50%); border:5px solid black"">",NA,NA
NA,stimuli-presentation,29,258440,0.0-2.0-6.0-1.10,SS1651680208732,3639.7000000001863,NA,NA,trial,NA,40,500,4139.700000000186,null,null,self_paced,0,NA,images/stimuli/complex_03_A_a.gif,NA
NA,html-keyboard-response,30,259561,0.0-2.0-6.0-0.11,SS1651680208732,null,NA,NA,NA,NA,null,NA,NA,NA,NA,NA,NA,"<p><img src= images/blank.png width =""600"" height = ""600"" style=""position:fixed;top:50%; left:50%; transform: translate(-50%, -50%); border:5px solid black"">",NA,NA
NA,stimuli-presentation,31,265820,0.0-2.0-6.0-1.11,SS1651680208732,5754.5,NA,NA,trial,NA,40,500,6254.5,null,null,self_paced,0,NA,images/stimuli/complex_11_A_a.gif,NA
NA,html-keyboard-response,32,266674,0.0-2.0-6.0-0.12,SS1651680208732,null,NA,NA,NA,NA,null,NA,NA,NA,NA,NA,NA,"<p><img src= images/blank.png width =""600"" height = ""600"" style=""position:fixed;top:50%; left:50%; transform: translate(-50%, -50%); border:5px solid black"">",NA,NA
NA,stimuli-presentation,33,270464,0.0-2.0-6.0-1.12,SS1651680208732,3283.7999999998137,NA,NA,trial,NA,40,500,3783.7999999998137,null,null,self_paced,0,NA,images/stimuli/simple_01_A_a.gif,NA
NA,html-keyboard-response,34,271305,0.0-2.0-6.0-0.13,SS1651680208732,null,NA,NA,NA,NA,null,NA,NA,NA,NA,NA,NA,"<p><img src= images/blank.png width =""600"" height = ""600"" style=""position:fixed;top:50%; left:50%; transform: translate(-50%, -50%); border:5px solid black"">",NA,NA
NA,stimuli-presentation,35,274498,0.0-2.0-6.0-1.13,SS1651680208732,2688.2999999998137,NA,NA,trial,NA,40,500,3188.2999999998137,null,null,self_paced,0,NA,images/stimuli/simple_17_A_a.gif,NA
NA,html-keyboard-response,36,275314,0.0-2.0-6.0-0.14,SS1651680208732,null,NA,NA,NA,NA,null,NA,NA,NA,NA,NA,NA,"<p><img src= images/blank.png width =""600"" height = ""600"" style=""position:fixed;top:50%; left:50%; transform: translate(-50%, -50%); border:5px solid black"">",NA,NA
NA,stimuli-presentation,37,279003,0.0-2.0-6.0-1.14,SS1651680208732,3178,NA,NA,trial,NA,40,500,3678,null,null,self_paced,0,NA,images/stimuli/simple_12_A_a.gif,NA
NA,html-keyboard-response,38,280279,0.0-2.0-6.0-0.15,SS1651680208732,null,NA,NA,NA,NA,null,NA,NA,NA,NA,NA,NA,"<p><img src= images/blank.png width =""600"" height = ""600"" style=""position:fixed;top:50%; left:50%; transform: translate(-50%, -50%); border:5px solid black"">",NA,NA
NA,stimuli-presentation,39,283663,0.0-2.0-6.0-1.15,SS1651680208732,2878,NA,NA,trial,NA,40,500,3378,null,null,self_paced,0,NA,images/stimuli/complex_01_A_a.gif,NA
NA,html-keyboard-response,40,284922,0.0-2.0-6.0-0.16,SS1651680208732,null,NA,NA,NA,NA,null,NA,NA,NA,NA,NA,NA,"<p><img src= images/blank.png width =""600"" height = ""600"" style=""position:fixed;top:50%; left:50%; transform: translate(-50%, -50%); border:5px solid black"">",NA,NA
NA,stimuli-presentation,41,288138,0.0-2.0-6.0-1.16,SS1651680208732,2697,NA,NA,trial,NA,40,500,3197,null,null,self_paced,0,NA,images/stimuli/complex_09_A_a.gif,NA
NA,html-keyboard-response,42,289165,0.0-2.0-6.0-0.17,SS1651680208732,null,NA,NA,NA,NA,null,NA,NA,NA,NA,NA,NA,"<p><img src= images/blank.png width =""600"" height = ""600"" style=""position:fixed;top:50%; left:50%; transform: translate(-50%, -50%); border:5px solid black"">",NA,NA
NA,stimuli-presentation,43,293890,0.0-2.0-6.0-1.17,SS1651680208732,4209.299999999814,NA,NA,trial,NA,40,500,4709.299999999814,null,null,self_paced,0,NA,images/stimuli/simple_16_A_a.gif,NA
NA,html-keyboard-response,44,294900,0.0-2.0-6.0-0.18,SS1651680208732,null,NA,NA,NA,NA,null,NA,NA,NA,NA,NA,NA,"<p><img src= images/blank.png width =""600"" height = ""600"" style=""position:fixed;top:50%; left:50%; transform: translate(-50%, -50%); border:5px solid black"">",NA,NA
NA,stimuli-presentation,45,299134,0.0-2.0-6.0-1.18,SS1651680208732,3719.600000000559,NA,NA,trial,NA,40,500,4219.600000000559,null,null,self_paced,0,NA,images/stimuli/simple_03_A_a.gif,NA
NA,html-keyboard-response,46,300089,0.0-2.0-6.0-0.19,SS1651680208732,null,NA,NA,NA,NA,null,NA,NA,NA,NA,NA,NA,"<p><img src= images/blank.png width =""600"" height = ""600"" style=""position:fixed;top:50%; left:50%; transform: translate(-50%, -50%); border:5px solid black"">",NA,NA
NA,stimuli-presentation,47,304500,0.0-2.0-6.0-1.19,SS1651680208732,3900.7999999998137,NA,NA,trial,NA,40,500,4400.799999999814,null,null,self_paced,0,NA,images/stimuli/simple_10_A_a.gif,NA
NA,instructions,48,308201,0.0-2.0-7.0,SS1651680208732,3697.399999999441,NA,"[{""page_index"":0,""viewing_time"":3697.2000000001863}]",instructions,NA,NA,NA,NA,NA,NA,NA,NA,NA,NA,NA
NA,survey-likert,49,317819,0.0-2.0-8.0-0.0,SS1651680208732,9614.200000000186,"{""Q0"":4}",NA,NA,NA,NA,NA,NA,NA,NA,NA,NA,images/stimuli/complex_19_A_a.gif,NA,[0]
NA,survey-likert,50,326007,0.0-2.0-8.0-0.1,SS1651680208732,8181.0999999996275,"{""Q0"":2}",NA,NA,NA,NA,NA,NA,NA,NA,NA,NA,images/stimuli/simple_09_A_a.gif,NA,[0]
NA,survey-likert,51,332723,0.0-2.0-8.0-0.2,SS1651680208732,6709.4000000003725,"{""Q0"":1}",NA,NA,NA,NA,NA,NA,NA,NA,NA,NA,images/stimuli/complex_05_A_a.gif,NA,[0]
NA,survey-likert,52,337739,0.0-2.0-8.0-0.3,SS1651680208732,5009.899999999441,"{""Q0"":0}",NA,NA,NA,NA,NA,NA,NA,NA,NA,NA,images/stimuli/simple_03_A_a.gif,NA,[0]
NA,survey-likert,53,341231,0.0-2.0-8.0-0.4,SS1651680208732,3485.7999999998137,"{""Q0"":5}",NA,NA,NA,NA,NA,NA,NA,NA,NA,NA,images/stimuli/simple_12_A_a.gif,NA,[0]
NA,survey-likert,54,346659,0.0-2.0-8.0-0.5,SS1651680208732,5423.0999999996275,"{""Q0"":1}",NA,NA,NA,NA,NA,NA,NA,NA,NA,NA,images/stimuli/complex_17_A_a.gif,NA,[0]
NA,survey-likert,55,349783,0.0-2.0-8.0-0.6,SS1651680208732,3115.199999999255,"{""Q0"":1}",NA,NA,NA,NA,NA,NA,NA,NA,NA,NA,images/stimuli/simple_06_A_a.gif,NA,[0]
NA,survey-likert,56,353453,0.0-2.0-8.0-0.7,SS1651680208732,3664.199999999255,"{""Q0"":1}",NA,NA,NA,NA,NA,NA,NA,NA,NA,NA,images/stimuli/complex_03_A_a.gif,NA,[0]
NA,survey-likert,57,355917,0.0-2.0-8.0-0.8,SS1651680208732,2457.5999999996275,"{""Q0"":1}",NA,NA,NA,NA,NA,NA,NA,NA,NA,NA,images/stimuli/simple_04_A_a.gif,NA,[0]
NA,survey-likert,58,362531,0.0-2.0-8.0-0.9,SS1651680208732,6606.700000000186,"{""Q0"":0}",NA,NA,NA,NA,NA,NA,NA,NA,NA,NA,images/stimuli/complex_11_A_a.gif,NA,[0]
NA,survey-likert,59,364683,0.0-2.0-8.0-0.10,SS1651680208732,2145.2000000001863,"{""Q0"":0}",NA,NA,NA,NA,NA,NA,NA,NA,NA,NA,images/stimuli/simple_10_A_a.gif,NA,[0]
NA,survey-likert,60,368534,0.0-2.0-8.0-0.11,SS1651680208732,3845.5,"{""Q0"":4}",NA,NA,NA,NA,NA,NA,NA,NA,NA,NA,images/stimuli/simple_01_A_a.gif,NA,[0]
NA,survey-likert,61,373814,0.0-2.0-8.0-0.12,SS1651680208732,5272.5999999996275,"{""Q0"":3}",NA,NA,NA,NA,NA,NA,NA,NA,NA,NA,images/stimuli/simple_17_A_a.gif,NA,[0]
NA,survey-likert,62,376567,0.0-2.0-8.0-0.13,SS1651680208732,2746.2000000001863,"{""Q0"":0}",NA,NA,NA,NA,NA,NA,NA,NA,NA,NA,images/stimuli/simple_16_A_a.gif,NA,[0]
NA,survey-likert,63,379598,0.0-2.0-8.0-0.14,SS1651680208732,3026.2999999998137,"{""Q0"":5}",NA,NA,NA,NA,NA,NA,NA,NA,NA,NA,images/stimuli/complex_06_A_a.gif,NA,[0]
NA,survey-likert,64,383905,0.0-2.0-8.0-0.15,SS1651680208732,4300,"{""Q0"":1}",NA,NA,NA,NA,NA,NA,NA,NA,NA,NA,images/stimuli/complex_09_A_a.gif,NA,[0]
NA,survey-likert,65,387681,0.0-2.0-8.0-0.16,SS1651680208732,3768.5,"{""Q0"":5}",NA,NA,NA,NA,NA,NA,NA,NA,NA,NA,images/stimuli/complex_10_A_a.gif,NA,[0]
NA,survey-likert,66,391811,0.0-2.0-8.0-0.17,SS1651680208732,4122.4000000003725,"{""Q0"":1}",NA,NA,NA,NA,NA,NA,NA,NA,NA,NA,images/stimuli/simple_07_A_a.gif,NA,[0]
NA,survey-likert,67,396005,0.0-2.0-8.0-0.18,SS1651680208732,4188.799999999814,"{""Q0"":1}",NA,NA,NA,NA,NA,NA,NA,NA,NA,NA,images/stimuli/complex_01_A_a.gif,NA,[0]
NA,survey-likert,68,399959,0.0-2.0-8.0-0.19,SS1651680208732,3948,"{""Q0"":5}",NA,NA,NA,NA,NA,NA,NA,NA,NA,NA,images/stimuli/complex_13_A_a.gif,NA,[0]
NA,survey-text,69,412721,0.0-2.0-9.0,SS1651680208732,12754.099999999627,"{""Q0"":""No, everything was fine""}",NA,feedback,NA,NA,NA,NA,NA,NA,NA,NA,NA,NA,NA
TRUE,fullscreen,70,413732,0.0-2.0-10.0,SS1651680208732,NA,NA,NA,NA,NA,NA,NA,NA,NA,NA,NA,NA,NA,NA,NA
NA,instructions,71,415989,0.0-2.0-11.0,SS1651680208732,2253.0999999996275,NA,"[{""page_index"":0,""viewing_time"":2252.399999999441}]",instructions,NA,NA,NA,NA,NA,NA,NA,NA,NA,NA,NA
TRUE,fullscreen,0,2339,0.0-0.0,SS1651681198761,NA,NA,NA,NA,NA,NA,NA,NA,NA,NA,NA,NA,NA,NA,NA
NA,survey-text,1,4600,0.0-1.0,SS1651681198761,2252.5,"{""p_id"":""613433254f90cad23b8907fe""}",NA,NA,NA,NA,NA,NA,NA,NA,NA,NA,NA,NA,NA
NA,instructions,2,12584,0.0-32.0-0.0,SS1651681198761,7979.399999976158,NA,"[{""page_index"":0,""viewing_time"":7977.799999952316}]",NA,NA,NA,NA,NA,NA,NA,NA,NA,NA,NA,NA
NA,instructions,3,27266,0.0-32.0-1.0,SS1651681198761,12675.699999928474,NA,"[{""page_index"":0,""viewing_time"":7226.100000023842},{""page_index"":1,""viewing_time"":5449}]",instructions,NA,NA,NA,NA,NA,NA,NA,NA,NA,NA,NA
NA,stimuli-presentation,4,33552,0.0-32.0-2.0,SS1651681198761,5779.300000071526,NA,NA,NA,NA,40,500,6279.300000071526,null,null,self_paced,0,NA,NA,NA
NA,stimuli-presentation,5,37998,0.0-32.0-3.0,SS1651681198761,3938,NA,NA,NA,NA,40,500,4438,null,null,self_paced,0,NA,NA,NA
NA,instructions,6,41018,0.0-32.0-4.0,SS1651681198761,3014.899999976158,NA,"[{""page_index"":0,""viewing_time"":3014.2999999523163}]",instructions,NA,NA,NA,NA,NA,NA,NA,NA,NA,NA,NA
NA,instructions,7,51600,0.0-32.0-5.0,SS1651681198761,10578.200000047684,NA,"[{""page_index"":0,""viewing_time"":5078.200000047684},{""page_index"":1,""viewing_time"":3533},{""page_index"":2,""viewing_time"":1116.8999999761581},{""page_index"":3,""viewing_time"":849.6000000238419}]",instructions,NA,NA,NA,NA,NA,NA,NA,NA,NA,NA,NA
NA,html-keyboard-response,8,52651,0.0-32.0-6.0-0.0,SS1651681198761,null,NA,NA,NA,NA,null,NA,NA,NA,NA,NA,NA,"<p><img src= images/blank.png width =""600"" height = ""600"" style=""position:fixed;top:50%; left:50%; transform: translate(-50%, -50%); border:5px solid black"">",NA,NA
NA,stimuli-presentation,9,59274,0.0-32.0-6.0-1.0,SS1651681198761,6114,NA,NA,trial,NA,40,500,6614,null,null,self_paced,0,NA,images/stimuli/complex_13_A_a.gif,NA
NA,html-keyboard-response,10,60245,0.0-32.0-6.0-0.1,SS1651681198761,null,NA,NA,NA,NA,null,NA,NA,NA,NA,NA,NA,"<p><img src= images/blank.png width =""600"" height = ""600"" style=""position:fixed;top:50%; left:50%; transform: translate(-50%, -50%); border:5px solid black"">",NA,NA
NA,stimuli-presentation,11,65139,0.0-32.0-6.0-1.1,SS1651681198761,4386.300000071526,NA,NA,trial,NA,40,500,4886.300000071526,null,null,self_paced,0,NA,images/stimuli/complex_17_A_a.gif,NA
NA,html-keyboard-response,12,66278,0.0-32.0-6.0-0.2,SS1651681198761,null,NA,NA,NA,NA,null,NA,NA,NA,NA,NA,NA,"<p><img src= images/blank.png width =""600"" height = ""600"" style=""position:fixed;top:50%; left:50%; transform: translate(-50%, -50%); border:5px solid black"">",NA,NA
NA,stimuli-presentation,13,73190,0.0-32.0-6.0-1.2,SS1651681198761,6404.699999928474,NA,NA,trial,NA,40,500,6904.699999928474,null,null,self_paced,0,NA,images/stimuli/simple_09_A_a.gif,NA
NA,html-keyboard-response,14,74000,0.0-32.0-6.0-0.3,SS1651681198761,null,NA,NA,NA,NA,null,NA,NA,NA,NA,NA,NA,"<p><img src= images/blank.png width =""600"" height = ""600"" style=""position:fixed;top:50%; left:50%; transform: translate(-50%, -50%); border:5px solid black"">",NA,NA
NA,stimuli-presentation,15,80142,0.0-32.0-6.0-1.3,SS1651681198761,5631.700000047684,NA,NA,trial,NA,40,500,6131.700000047684,null,null,self_paced,0,NA,images/stimuli/simple_10_A_a.gif,NA
NA,html-keyboard-response,16,81332,0.0-32.0-6.0-0.4,SS1651681198761,null,NA,NA,NA,NA,null,NA,NA,NA,NA,NA,NA,"<p><img src= images/blank.png width =""600"" height = ""600"" style=""position:fixed;top:50%; left:50%; transform: translate(-50%, -50%); border:5px solid black"">",NA,NA
NA,stimuli-presentation,17,87561,0.0-32.0-6.0-1.4,SS1651681198761,5721.600000023842,NA,NA,trial,NA,40,500,6221.600000023842,null,null,self_paced,0,NA,images/stimuli/complex_06_A_a.gif,NA
NA,html-keyboard-response,18,88555,0.0-32.0-6.0-0.5,SS1651681198761,null,NA,NA,NA,NA,null,NA,NA,NA,NA,NA,NA,"<p><img src= images/blank.png width =""600"" height = ""600"" style=""position:fixed;top:50%; left:50%; transform: translate(-50%, -50%); border:5px solid black"">",NA,NA
NA,stimuli-presentation,19,94980,0.0-32.0-6.0-1.5,SS1651681198761,5918.299999952316,NA,NA,trial,NA,40,500,6418.299999952316,null,null,self_paced,0,NA,images/stimuli/simple_15_A_a.gif,NA
NA,html-keyboard-response,20,95843,0.0-32.0-6.0-0.6,SS1651681198761,null,NA,NA,NA,NA,null,NA,NA,NA,NA,NA,NA,"<p><img src= images/blank.png width =""600"" height = ""600"" style=""position:fixed;top:50%; left:50%; transform: translate(-50%, -50%); border:5px solid black"">",NA,NA
NA,stimuli-presentation,21,100035,0.0-32.0-6.0-1.6,SS1651681198761,3684.399999976158,NA,NA,trial,NA,40,500,4184.399999976158,null,null,self_paced,0,NA,images/stimuli/simple_01_A_a.gif,NA
NA,html-keyboard-response,22,100857,0.0-32.0-6.0-0.7,SS1651681198761,null,NA,NA,NA,NA,null,NA,NA,NA,NA,NA,NA,"<p><img src= images/blank.png width =""600"" height = ""600"" style=""position:fixed;top:50%; left:50%; transform: translate(-50%, -50%); border:5px solid black"">",NA,NA
NA,stimuli-presentation,23,107464,0.0-32.0-6.0-1.7,SS1651681198761,6099.899999976158,NA,NA,trial,NA,40,500,6599.899999976158,null,null,self_paced,0,NA,images/stimuli/complex_10_A_a.gif,NA
NA,html-keyboard-response,24,108367,0.0-32.0-6.0-0.8,SS1651681198761,null,NA,NA,NA,NA,null,NA,NA,NA,NA,NA,NA,"<p><img src= images/blank.png width =""600"" height = ""600"" style=""position:fixed;top:50%; left:50%; transform: translate(-50%, -50%); border:5px solid black"">",NA,NA
NA,stimuli-presentation,25,115214,0.0-32.0-6.0-1.8,SS1651681198761,6338.699999928474,NA,NA,trial,NA,40,500,6838.699999928474,null,null,self_paced,0,NA,images/stimuli/complex_19_A_a.gif,NA
NA,html-keyboard-response,26,116399,0.0-32.0-6.0-0.9,SS1651681198761,null,NA,NA,NA,NA,null,NA,NA,NA,NA,NA,NA,"<p><img src= images/blank.png width =""600"" height = ""600"" style=""position:fixed;top:50%; left:50%; transform: translate(-50%, -50%); border:5px solid black"">",NA,NA
NA,stimuli-presentation,27,120376,0.0-32.0-6.0-1.9,SS1651681198761,3468.399999976158,NA,NA,trial,NA,40,500,3968.399999976158,null,null,self_paced,0,NA,images/stimuli/simple_04_A_a.gif,NA
NA,html-keyboard-response,28,121487,0.0-32.0-6.0-0.10,SS1651681198761,null,NA,NA,NA,NA,null,NA,NA,NA,NA,NA,NA,"<p><img src= images/blank.png width =""600"" height = ""600"" style=""position:fixed;top:50%; left:50%; transform: translate(-50%, -50%); border:5px solid black"">",NA,NA
NA,stimuli-presentation,29,124908,0.0-32.0-6.0-1.10,SS1651681198761,2914.1999999284744,NA,NA,trial,NA,40,500,3414.1999999284744,null,null,self_paced,0,NA,images/stimuli/simple_12_A_a.gif,NA
NA,html-keyboard-response,30,125753,0.0-32.0-6.0-0.11,SS1651681198761,null,NA,NA,NA,NA,null,NA,NA,NA,NA,NA,NA,"<p><img src= images/blank.png width =""600"" height = ""600"" style=""position:fixed;top:50%; left:50%; transform: translate(-50%, -50%); border:5px solid black"">",NA,NA
NA,stimuli-presentation,31,131331,0.0-32.0-6.0-1.11,SS1651681198761,5070.599999904633,NA,NA,trial,NA,40,500,5570.599999904633,null,null,self_paced,0,NA,images/stimuli/complex_14_A_a.gif,NA
NA,html-keyboard-response,32,132270,0.0-32.0-6.0-0.12,SS1651681198761,null,NA,NA,NA,NA,null,NA,NA,NA,NA,NA,NA,"<p><img src= images/blank.png width =""600"" height = ""600"" style=""position:fixed;top:50%; left:50%; transform: translate(-50%, -50%); border:5px solid black"">",NA,NA
NA,stimuli-presentation,33,141012,0.0-32.0-6.0-1.12,SS1651681198761,8235.800000071526,NA,NA,trial,NA,40,500,8735.800000071526,null,null,self_paced,0,NA,images/stimuli/complex_08_A_a.gif,NA
NA,html-keyboard-response,34,141897,0.0-32.0-6.0-0.13,SS1651681198761,null,NA,NA,NA,NA,null,NA,NA,NA,NA,NA,NA,"<p><img src= images/blank.png width =""600"" height = ""600"" style=""position:fixed;top:50%; left:50%; transform: translate(-50%, -50%); border:5px solid black"">",NA,NA
NA,stimuli-presentation,35,146147,0.0-32.0-6.0-1.13,SS1651681198761,3742.2000000476837,NA,NA,trial,NA,40,500,4242.200000047684,null,null,self_paced,0,NA,images/stimuli/simple_07_A_a.gif,NA
NA,html-keyboard-response,36,147192,0.0-32.0-6.0-0.14,SS1651681198761,null,NA,NA,NA,NA,null,NA,NA,NA,NA,NA,NA,"<p><img src= images/blank.png width =""600"" height = ""600"" style=""position:fixed;top:50%; left:50%; transform: translate(-50%, -50%); border:5px solid black"">",NA,NA
NA,stimuli-presentation,37,153943,0.0-32.0-6.0-1.14,SS1651681198761,6244,NA,NA,trial,NA,40,500,6744,null,null,self_paced,0,NA,images/stimuli/simple_17_A_a.gif,NA
NA,html-keyboard-response,38,154927,0.0-32.0-6.0-0.15,SS1651681198761,null,NA,NA,NA,NA,null,NA,NA,NA,NA,NA,NA,"<p><img src= images/blank.png width =""600"" height = ""600"" style=""position:fixed;top:50%; left:50%; transform: translate(-50%, -50%); border:5px solid black"">",NA,NA
NA,stimuli-presentation,39,159423,0.0-32.0-6.0-1.15,SS1651681198761,3988.399999976158,NA,NA,trial,NA,40,500,4488.399999976158,null,null,self_paced,0,NA,images/stimuli/complex_20_A_a.gif,NA
NA,html-keyboard-response,40,160386,0.0-32.0-6.0-0.16,SS1651681198761,null,NA,NA,NA,NA,null,NA,NA,NA,NA,NA,NA,"<p><img src= images/blank.png width =""600"" height = ""600"" style=""position:fixed;top:50%; left:50%; transform: translate(-50%, -50%); border:5px solid black"">",NA,NA
NA,stimuli-presentation,41,164748,0.0-32.0-6.0-1.16,SS1651681198761,3855.7000000476837,NA,NA,trial,NA,40,500,4355.700000047684,null,null,self_paced,0,NA,images/stimuli/complex_09_A_a.gif,NA
NA,html-keyboard-response,42,166013,0.0-32.0-6.0-0.17,SS1651681198761,null,NA,NA,NA,NA,null,NA,NA,NA,NA,NA,NA,"<p><img src= images/blank.png width =""600"" height = ""600"" style=""position:fixed;top:50%; left:50%; transform: translate(-50%, -50%); border:5px solid black"">",NA,NA
NA,stimuli-presentation,43,171040,0.0-32.0-6.0-1.17,SS1651681198761,4516.800000071526,NA,NA,trial,NA,40,500,5016.800000071526,null,null,self_paced,0,NA,images/stimuli/simple_02_A_a.gif,NA
NA,html-keyboard-response,44,172248,0.0-32.0-6.0-0.18,SS1651681198761,null,NA,NA,NA,NA,null,NA,NA,NA,NA,NA,NA,"<p><img src= images/blank.png width =""600"" height = ""600"" style=""position:fixed;top:50%; left:50%; transform: translate(-50%, -50%); border:5px solid black"">",NA,NA
NA,stimuli-presentation,45,174094,0.0-32.0-6.0-1.18,SS1651681198761,1336.8999999761581,NA,NA,trial,NA,40,500,1836.899999976158,null,null,self_paced,0,NA,images/stimuli/complex_03_A_a.gif,NA
NA,html-keyboard-response,46,175143,0.0-32.0-6.0-0.19,SS1651681198761,null,NA,NA,NA,NA,null,NA,NA,NA,NA,NA,NA,"<p><img src= images/blank.png width =""600"" height = ""600"" style=""position:fixed;top:50%; left:50%; transform: translate(-50%, -50%); border:5px solid black"">",NA,NA
NA,stimuli-presentation,47,176237,0.0-32.0-6.0-1.19,SS1651681198761,586.6000000238419,NA,NA,trial,NA,40,500,1086.600000023842,null,null,self_paced,0,NA,images/stimuli/simple_03_A_a.gif,NA
NA,instructions,48,178615,0.0-32.0-7.0,SS1651681198761,2373.899999976158,NA,"[{""page_index"":0,""viewing_time"":2373.2999999523163}]",instructions,NA,NA,NA,NA,NA,NA,NA,NA,NA,NA,NA
NA,survey-likert,49,185952,0.0-32.0-8.0-0.0,SS1651681198761,7329.200000047684,"{""Q0"":0}",NA,NA,NA,NA,NA,NA,NA,NA,NA,NA,images/stimuli/simple_15_A_a.gif,NA,[0]
NA,survey-likert,50,190583,0.0-32.0-8.0-0.1,SS1651681198761,4623.200000047684,"{""Q0"":1}",NA,NA,NA,NA,NA,NA,NA,NA,NA,NA,images/stimuli/complex_08_A_a.gif,NA,[0]
NA,survey-likert,51,194136,0.0-32.0-8.0-0.2,SS1651681198761,3546.899999976158,"{""Q0"":2}",NA,NA,NA,NA,NA,NA,NA,NA,NA,NA,images/stimuli/complex_20_A_a.gif,NA,[0]
NA,survey-likert,52,199466,0.0-32.0-8.0-0.3,SS1651681198761,5322.5,"{""Q0"":1}",NA,NA,NA,NA,NA,NA,NA,NA,NA,NA,images/stimuli/simple_17_A_a.gif,NA,[0]
NA,survey-likert,53,202549,0.0-32.0-8.0-0.4,SS1651681198761,3076.5,"{""Q0"":2}",NA,NA,NA,NA,NA,NA,NA,NA,NA,NA,images/stimuli/simple_02_A_a.gif,NA,[0]
NA,survey-likert,54,205801,0.0-32.0-8.0-0.5,SS1651681198761,3243.7999999523163,"{""Q0"":3}",NA,NA,NA,NA,NA,NA,NA,NA,NA,NA,images/stimuli/simple_09_A_a.gif,NA,[0]
NA,survey-likert,55,208665,0.0-32.0-8.0-0.6,SS1651681198761,2857.8000000715256,"{""Q0"":2}",NA,NA,NA,NA,NA,NA,NA,NA,NA,NA,images/stimuli/complex_10_A_a.gif,NA,[0]
NA,survey-likert,56,212098,0.0-32.0-8.0-0.7,SS1651681198761,3426.2000000476837,"{""Q0"":3}",NA,NA,NA,NA,NA,NA,NA,NA,NA,NA,images/stimuli/simple_01_A_a.gif,NA,[0]
NA,survey-likert,57,215700,0.0-32.0-8.0-0.8,SS1651681198761,3593.4000000953674,"{""Q0"":4}",NA,NA,NA,NA,NA,NA,NA,NA,NA,NA,images/stimuli/simple_10_A_a.gif,NA,[0]
NA,survey-likert,58,218915,0.0-32.0-8.0-0.9,SS1651681198761,3208,"{""Q0"":3}",NA,NA,NA,NA,NA,NA,NA,NA,NA,NA,images/stimuli/complex_09_A_a.gif,NA,[0]
NA,survey-likert,59,223033,0.0-32.0-8.0-0.10,SS1651681198761,4110.700000047684,"{""Q0"":2}",NA,NA,NA,NA,NA,NA,NA,NA,NA,NA,images/stimuli/simple_04_A_a.gif,NA,[0]
NA,survey-likert,60,226316,0.0-32.0-8.0-0.11,SS1651681198761,3275.3000000715256,"{""Q0"":1}",NA,NA,NA,NA,NA,NA,NA,NA,NA,NA,images/stimuli/complex_14_A_a.gif,NA,[0]
NA,survey-likert,61,228733,0.0-32.0-8.0-0.12,SS1651681198761,2408.600000023842,"{""Q0"":1}",NA,NA,NA,NA,NA,NA,NA,NA,NA,NA,images/stimuli/simple_07_A_a.gif,NA,[0]
NA,survey-likert,62,231814,0.0-32.0-8.0-0.13,SS1651681198761,3075.899999976158,"{""Q0"":3}",NA,NA,NA,NA,NA,NA,NA,NA,NA,NA,images/stimuli/complex_17_A_a.gif,NA,[0]
NA,survey-likert,63,234367,0.0-32.0-8.0-0.14,SS1651681198761,2547.100000023842,"{""Q0"":3}",NA,NA,NA,NA,NA,NA,NA,NA,NA,NA,images/stimuli/complex_03_A_a.gif,NA,[0]
NA,survey-likert,64,237199,0.0-32.0-8.0-0.15,SS1651681198761,2825,"{""Q0"":3}",NA,NA,NA,NA,NA,NA,NA,NA,NA,NA,images/stimuli/complex_13_A_a.gif,NA,[0]
NA,survey-likert,65,239733,0.0-32.0-8.0-0.16,SS1651681198761,2527.7999999523163,"{""Q0"":2}",NA,NA,NA,NA,NA,NA,NA,NA,NA,NA,images/stimuli/simple_12_A_a.gif,NA,[0]
NA,survey-likert,66,242565,0.0-32.0-8.0-0.17,SS1651681198761,2827,"{""Q0"":1}",NA,NA,NA,NA,NA,NA,NA,NA,NA,NA,images/stimuli/complex_06_A_a.gif,NA,[0]
NA,survey-likert,67,244649,0.0-32.0-8.0-0.18,SS1651681198761,2075.5,"{""Q0"":2}",NA,NA,NA,NA,NA,NA,NA,NA,NA,NA,images/stimuli/simple_03_A_a.gif,NA,[0]
NA,survey-likert,68,248036,0.0-32.0-8.0-0.19,SS1651681198761,3379.600000023842,"{""Q0"":0}",NA,NA,NA,NA,NA,NA,NA,NA,NA,NA,images/stimuli/complex_19_A_a.gif,NA,[0]
NA,survey-text,69,252399,0.0-32.0-9.0,SS1651681198761,4355.100000023842,"{""Q0"":""no""}",NA,feedback,NA,NA,NA,NA,NA,NA,NA,NA,NA,NA,NA
TRUE,fullscreen,70,253406,0.0-32.0-10.0,SS1651681198761,NA,NA,NA,NA,NA,NA,NA,NA,NA,NA,NA,NA,NA,NA,NA
NA,instructions,71,256166,0.0-32.0-11.0,SS1651681198761,2753.8000000715256,NA,"[{""page_index"":0,""viewing_time"":2752.8000000715256}]",instructions,NA,NA,NA,NA,NA,NA,NA,NA,NA,NA,NA
TRUE,fullscreen,0,8670,0.0-0.0,SS1651681419586,NA,NA,NA,NA,NA,NA,NA,NA,NA,NA,NA,NA,NA,NA,NA
NA,survey-text,1,72839,0.0-1.0,SS1651681419586,64125.40000009537,"{""p_id"":""61323e3a8523aa286c68daed""}",NA,NA,NA,NA,NA,NA,NA,NA,NA,NA,NA,NA,NA
NA,instructions,2,99529,0.0-64.0-0.0,SS1651681419586,26680.5,NA,"[{""page_index"":0,""viewing_time"":26678.5}]",NA,NA,NA,NA,NA,NA,NA,NA,NA,NA,NA,NA
NA,instructions,3,125720,0.0-64.0-1.0,SS1651681419586,24186.800000190735,NA,"[{""page_index"":0,""viewing_time"":15428.5},{""page_index"":1,""viewing_time"":8756.800000190735}]",instructions,NA,NA,NA,NA,NA,NA,NA,NA,NA,NA,NA
NA,stimuli-presentation,4,136978,0.0-64.0-2.0,SS1651681419586,10741.900000095367,NA,NA,NA,NA,40,500,11241.900000095367,null,null,self_paced,0,NA,NA,NA
NA,stimuli-presentation,5,140622,0.0-64.0-3.0,SS1651681419586,3122,NA,NA,NA,NA,40,500,3622,null,null,self_paced,0,NA,NA,NA
NA,instructions,6,144555,0.0-64.0-4.0,SS1651681419586,3927.699999809265,NA,"[{""page_index"":0,""viewing_time"":3926.699999809265}]",instructions,NA,NA,NA,NA,NA,NA,NA,NA,NA,NA,NA
NA,instructions,7,172852,0.0-64.0-5.0,SS1651681419586,28286.599999904633,NA,"[{""page_index"":0,""viewing_time"":17150.199999809265},{""page_index"":1,""viewing_time"":6396.700000286102},{""page_index"":2,""viewing_time"":2549.4000000953674},{""page_index"":3,""viewing_time"":2188.2999997138977}]",instructions,NA,NA,NA,NA,NA,NA,NA,NA,NA,NA,NA
NA,html-keyboard-response,8,174030,0.0-64.0-6.0-0.0,SS1651681419586,null,NA,NA,NA,NA,null,NA,NA,NA,NA,NA,NA,"<p><img src= images/blank.png width =""600"" height = ""600"" style=""position:fixed;top:50%; left:50%; transform: translate(-50%, -50%); border:5px solid black"">",NA,NA
NA,stimuli-presentation,9,177946,0.0-64.0-6.0-1.0,SS1651681419586,3399.5,NA,NA,trial,NA,40,500,3899.5,null,null,self_paced,0,NA,images/stimuli/simple_07_A_a.gif,NA
NA,html-keyboard-response,10,179040,0.0-64.0-6.0-0.1,SS1651681419586,null,NA,NA,NA,NA,null,NA,NA,NA,NA,NA,NA,"<p><img src= images/blank.png width =""600"" height = ""600"" style=""position:fixed;top:50%; left:50%; transform: translate(-50%, -50%); border:5px solid black"">",NA,NA
NA,stimuli-presentation,11,182142,0.0-64.0-6.0-1.1,SS1651681419586,2589.7999997138977,NA,NA,trial,NA,40,500,3089.7999997138977,null,null,self_paced,0,NA,images/stimuli/complex_19_A_a.gif,NA
NA,html-keyboard-response,12,182978,0.0-64.0-6.0-0.2,SS1651681419586,null,NA,NA,NA,NA,null,NA,NA,NA,NA,NA,NA,"<p><img src= images/blank.png width =""600"" height = ""600"" style=""position:fixed;top:50%; left:50%; transform: translate(-50%, -50%); border:5px solid black"">",NA,NA
NA,stimuli-presentation,13,185525,0.0-64.0-6.0-1.2,SS1651681419586,2022,NA,NA,trial,NA,40,500,2522,null,null,self_paced,0,NA,images/stimuli/simple_09_A_a.gif,NA
NA,html-keyboard-response,14,186541,0.0-64.0-6.0-0.3,SS1651681419586,null,NA,NA,NA,NA,null,NA,NA,NA,NA,NA,NA,"<p><img src= images/blank.png width =""600"" height = ""600"" style=""position:fixed;top:50%; left:50%; transform: translate(-50%, -50%); border:5px solid black"">",NA,NA
NA,stimuli-presentation,15,190282,0.0-64.0-6.0-1.3,SS1651681419586,3223.4000000953674,NA,NA,trial,NA,40,500,3723.400000095367,null,null,self_paced,0,NA,images/stimuli/complex_21_A_a.gif,NA
NA,html-keyboard-response,16,191152,0.0-64.0-6.0-0.4,SS1651681419586,null,NA,NA,NA,NA,null,NA,NA,NA,NA,NA,NA,"<p><img src= images/blank.png width =""600"" height = ""600"" style=""position:fixed;top:50%; left:50%; transform: translate(-50%, -50%); border:5px solid black"">",NA,NA
NA,stimuli-presentation,17,193124,0.0-64.0-6.0-1.4,SS1651681419586,1453.7000002861023,NA,NA,trial,NA,40,500,1953.7000002861023,null,null,self_paced,0,NA,images/stimuli/simple_04_A_a.gif,NA
NA,html-keyboard-response,18,194373,0.0-64.0-6.0-0.5,SS1651681419586,null,NA,NA,NA,NA,null,NA,NA,NA,NA,NA,NA,"<p><img src= images/blank.png width =""600"" height = ""600"" style=""position:fixed;top:50%; left:50%; transform: translate(-50%, -50%); border:5px solid black"">",NA,NA
NA,stimuli-presentation,19,198153,0.0-64.0-6.0-1.5,SS1651681419586,3267.199999809265,NA,NA,trial,NA,40,500,3767.199999809265,null,null,self_paced,0,NA,images/stimuli/complex_01_A_a.gif,NA
NA,html-keyboard-response,20,199444,0.0-64.0-6.0-0.6,SS1651681419586,null,NA,NA,NA,NA,null,NA,NA,NA,NA,NA,NA,"<p><img src= images/blank.png width =""600"" height = ""600"" style=""position:fixed;top:50%; left:50%; transform: translate(-50%, -50%); border:5px solid black"">",NA,NA
NA,stimuli-presentation,21,202892,0.0-64.0-6.0-1.6,SS1651681419586,2935.300000190735,NA,NA,trial,NA,40,500,3435.300000190735,null,null,self_paced,0,NA,images/stimuli/complex_06_A_a.gif,NA
NA,html-keyboard-response,22,204119,0.0-64.0-6.0-0.7,SS1651681419586,null,NA,NA,NA,NA,null,NA,NA,NA,NA,NA,NA,"<p><img src= images/blank.png width =""600"" height = ""600"" style=""position:fixed;top:50%; left:50%; transform: translate(-50%, -50%); border:5px solid black"">",NA,NA
NA,stimuli-presentation,23,205386,0.0-64.0-6.0-1.7,SS1651681419586,749.3000001907349,NA,NA,trial,NA,40,500,1249.3000001907349,null,null,self_paced,0,NA,images/stimuli/simple_10_A_a.gif,NA
NA,html-keyboard-response,24,206454,0.0-64.0-6.0-0.8,SS1651681419586,null,NA,NA,NA,NA,null,NA,NA,NA,NA,NA,NA,"<p><img src= images/blank.png width =""600"" height = ""600"" style=""position:fixed;top:50%; left:50%; transform: translate(-50%, -50%); border:5px solid black"">",NA,NA
NA,stimuli-presentation,25,209727,0.0-64.0-6.0-1.8,SS1651681419586,2761.0999999046326,NA,NA,trial,NA,40,500,3261.099999904633,null,null,self_paced,0,NA,images/stimuli/simple_12_A_a.gif,NA
NA,html-keyboard-response,26,210840,0.0-64.0-6.0-0.9,SS1651681419586,null,NA,NA,NA,NA,null,NA,NA,NA,NA,NA,NA,"<p><img src= images/blank.png width =""600"" height = ""600"" style=""position:fixed;top:50%; left:50%; transform: translate(-50%, -50%); border:5px solid black"">",NA,NA
NA,stimuli-presentation,27,214143,0.0-64.0-6.0-1.9,SS1651681419586,2788.7999997138977,NA,NA,trial,NA,40,500,3288.7999997138977,null,null,self_paced,0,NA,images/stimuli/complex_09_A_a.gif,NA
NA,html-keyboard-response,28,215028,0.0-64.0-6.0-0.10,SS1651681419586,null,NA,NA,NA,NA,null,NA,NA,NA,NA,NA,NA,"<p><img src= images/blank.png width =""600"" height = ""600"" style=""position:fixed;top:50%; left:50%; transform: translate(-50%, -50%); border:5px solid black"">",NA,NA
NA,stimuli-presentation,29,216849,0.0-64.0-6.0-1.10,SS1651681419586,1304,NA,NA,trial,NA,40,500,1804,null,null,self_paced,0,NA,images/stimuli/simple_15_A_a.gif,NA
NA,html-keyboard-response,30,218102,0.0-64.0-6.0-0.11,SS1651681419586,null,NA,NA,NA,NA,null,NA,NA,NA,NA,NA,NA,"<p><img src= images/blank.png width =""600"" height = ""600"" style=""position:fixed;top:50%; left:50%; transform: translate(-50%, -50%); border:5px solid black"">",NA,NA
NA,stimuli-presentation,31,221625,0.0-64.0-6.0-1.11,SS1651681419586,3005.6000003814697,NA,NA,trial,NA,40,500,3505.6000003814697,null,null,self_paced,0,NA,images/stimuli/complex_03_A_a.gif,NA
NA,html-keyboard-response,32,222591,0.0-64.0-6.0-0.12,SS1651681419586,null,NA,NA,NA,NA,null,NA,NA,NA,NA,NA,NA,"<p><img src= images/blank.png width =""600"" height = ""600"" style=""position:fixed;top:50%; left:50%; transform: translate(-50%, -50%); border:5px solid black"">",NA,NA
NA,stimuli-presentation,33,226240,0.0-64.0-6.0-1.12,SS1651681419586,3133.800000190735,NA,NA,trial,NA,40,500,3633.800000190735,null,null,self_paced,0,NA,images/stimuli/simple_19_A_a.gif,NA
NA,html-keyboard-response,34,227406,0.0-64.0-6.0-0.13,SS1651681419586,null,NA,NA,NA,NA,null,NA,NA,NA,NA,NA,NA,"<p><img src= images/blank.png width =""600"" height = ""600"" style=""position:fixed;top:50%; left:50%; transform: translate(-50%, -50%); border:5px solid black"">",NA,NA
NA,stimuli-presentation,35,230603,0.0-64.0-6.0-1.13,SS1651681419586,2677.9000000953674,NA,NA,trial,NA,40,500,3177.900000095367,null,null,self_paced,0,NA,images/stimuli/complex_17_A_a.gif,NA
NA,html-keyboard-response,36,231690,0.0-64.0-6.0-0.14,SS1651681419586,null,NA,NA,NA,NA,null,NA,NA,NA,NA,NA,NA,"<p><img src= images/blank.png width =""600"" height = ""600"" style=""position:fixed;top:50%; left:50%; transform: translate(-50%, -50%); border:5px solid black"">",NA,NA
NA,stimuli-presentation,37,233126,0.0-64.0-6.0-1.14,SS1651681419586,923.2000002861023,NA,NA,trial,NA,40,500,1423.2000002861023,null,null,self_paced,0,NA,images/stimuli/complex_10_A_a.gif,NA
NA,html-keyboard-response,38,234095,0.0-64.0-6.0-0.15,SS1651681419586,null,NA,NA,NA,NA,null,NA,NA,NA,NA,NA,NA,"<p><img src= images/blank.png width =""600"" height = ""600"" style=""position:fixed;top:50%; left:50%; transform: translate(-50%, -50%); border:5px solid black"">",NA,NA
NA,stimuli-presentation,39,237284,0.0-64.0-6.0-1.15,SS1651681419586,2665.4000000953674,NA,NA,trial,NA,40,500,3165.400000095367,null,null,self_paced,0,NA,images/stimuli/simple_17_A_a.gif,NA
NA,html-keyboard-response,40,238148,0.0-64.0-6.0-0.16,SS1651681419586,null,NA,NA,NA,NA,null,NA,NA,NA,NA,NA,NA,"<p><img src= images/blank.png width =""600"" height = ""600"" style=""position:fixed;top:50%; left:50%; transform: translate(-50%, -50%); border:5px solid black"">",NA,NA
NA,stimuli-presentation,41,241765,0.0-64.0-6.0-1.16,SS1651681419586,3097.8999996185303,NA,NA,trial,NA,40,500,3597.8999996185303,null,null,self_paced,0,NA,images/stimuli/simple_03_A_a.gif,NA
NA,html-keyboard-response,42,243059,0.0-64.0-6.0-0.17,SS1651681419586,null,NA,NA,NA,NA,null,NA,NA,NA,NA,NA,NA,"<p><img src= images/blank.png width =""600"" height = ""600"" style=""position:fixed;top:50%; left:50%; transform: translate(-50%, -50%); border:5px solid black"">",NA,NA
NA,stimuli-presentation,43,244940,0.0-64.0-6.0-1.17,SS1651681419586,1356.5,NA,NA,trial,NA,40,500,1856.5,null,null,self_paced,0,NA,images/stimuli/simple_01_A_a.gif,NA
NA,html-keyboard-response,44,245896,0.0-64.0-6.0-0.18,SS1651681419586,null,NA,NA,NA,NA,null,NA,NA,NA,NA,NA,NA,"<p><img src= images/blank.png width =""600"" height = ""600"" style=""position:fixed;top:50%; left:50%; transform: translate(-50%, -50%); border:5px solid black"">",NA,NA
NA,stimuli-presentation,45,249893,0.0-64.0-6.0-1.18,SS1651681419586,3476.2999997138977,NA,NA,trial,NA,40,500,3976.2999997138977,null,null,self_paced,0,NA,images/stimuli/complex_12_A_a.gif,NA
NA,html-keyboard-response,46,250854,0.0-64.0-6.0-0.19,SS1651681419586,null,NA,NA,NA,NA,null,NA,NA,NA,NA,NA,NA,"<p><img src= images/blank.png width =""600"" height = ""600"" style=""position:fixed;top:50%; left:50%; transform: translate(-50%, -50%); border:5px solid black"">",NA,NA
NA,stimuli-presentation,47,255716,0.0-64.0-6.0-1.19,SS1651681419586,4345.200000286102,NA,NA,trial,NA,40,500,4845.200000286102,null,null,self_paced,0,NA,images/stimuli/complex_13_A_a.gif,NA
NA,instructions,48,273172,0.0-64.0-7.0,SS1651681419586,17447.800000190735,NA,"[{""page_index"":0,""viewing_time"":17446.400000095367}]",instructions,NA,NA,NA,NA,NA,NA,NA,NA,NA,NA,NA
NA,survey-likert,49,283823,0.0-64.0-8.0-0.0,SS1651681419586,10636.299999713898,"{""Q0"":0}",NA,NA,NA,NA,NA,NA,NA,NA,NA,NA,images/stimuli/complex_10_A_a.gif,NA,[0]
NA,survey-likert,50,300685,0.0-64.0-8.0-0.1,SS1651681419586,16844.5,"{""Q0"":5}",NA,NA,NA,NA,NA,NA,NA,NA,NA,NA,images/stimuli/simple_09_A_a.gif,NA,[0]
NA,survey-likert,51,306341,0.0-64.0-8.0-0.2,SS1651681419586,5641.799999713898,"{""Q0"":5}",NA,NA,NA,NA,NA,NA,NA,NA,NA,NA,images/stimuli/simple_01_A_a.gif,NA,[0]
NA,survey-likert,52,310573,0.0-64.0-8.0-0.3,SS1651681419586,4216.299999713898,"{""Q0"":5}",NA,NA,NA,NA,NA,NA,NA,NA,NA,NA,images/stimuli/simple_10_A_a.gif,NA,[0]
NA,survey-likert,53,316179,0.0-64.0-8.0-0.4,SS1651681419586,5595,"{""Q0"":5}",NA,NA,NA,NA,NA,NA,NA,NA,NA,NA,images/stimuli/simple_12_A_a.gif,NA,[0]
NA,survey-likert,54,322132,0.0-64.0-8.0-0.5,SS1651681419586,5937.5,"{""Q0"":5}",NA,NA,NA,NA,NA,NA,NA,NA,NA,NA,images/stimuli/complex_01_A_a.gif,NA,[0]
NA,survey-likert,55,327358,0.0-64.0-8.0-0.6,SS1651681419586,5214,"{""Q0"":5}",NA,NA,NA,NA,NA,NA,NA,NA,NA,NA,images/stimuli/simple_19_A_a.gif,NA,[0]
NA,survey-likert,56,330862,0.0-64.0-8.0-0.7,SS1651681419586,3485.4000000953674,"{""Q0"":5}",NA,NA,NA,NA,NA,NA,NA,NA,NA,NA,images/stimuli/simple_03_A_a.gif,NA,[0]
NA,survey-likert,57,338986,0.0-64.0-8.0-0.8,SS1651681419586,8112.200000286102,"{""Q0"":0}",NA,NA,NA,NA,NA,NA,NA,NA,NA,NA,images/stimuli/simple_15_A_a.gif,NA,[0]
NA,survey-likert,58,344323,0.0-64.0-8.0-0.9,SS1651681419586,5324.5,"{""Q0"":5}",NA,NA,NA,NA,NA,NA,NA,NA,NA,NA,images/stimuli/simple_07_A_a.gif,NA,[0]
NA,survey-likert,59,349689,0.0-64.0-8.0-0.10,SS1651681419586,5354.299999713898,"{""Q0"":5}",NA,NA,NA,NA,NA,NA,NA,NA,NA,NA,images/stimuli/complex_12_A_a.gif,NA,[0]
NA,survey-likert,60,354924,0.0-64.0-8.0-0.11,SS1651681419586,5218.5,"{""Q0"":5}",NA,NA,NA,NA,NA,NA,NA,NA,NA,NA,images/stimuli/complex_09_A_a.gif,NA,[0]
NA,survey-likert,61,360705,0.0-64.0-8.0-0.12,SS1651681419586,5767.599999904633,"{""Q0"":5}",NA,NA,NA,NA,NA,NA,NA,NA,NA,NA,images/stimuli/complex_17_A_a.gif,NA,[0]
NA,survey-likert,62,366572,0.0-64.0-8.0-0.13,SS1651681419586,5852.5,"{""Q0"":5}",NA,NA,NA,NA,NA,NA,NA,NA,NA,NA,images/stimuli/complex_19_A_a.gif,NA,[0]
NA,survey-likert,63,378066,0.0-64.0-8.0-0.14,SS1651681419586,11476.800000190735,"{""Q0"":0}",NA,NA,NA,NA,NA,NA,NA,NA,NA,NA,images/stimuli/simple_04_A_a.gif,NA,[0]
NA,survey-likert,64,382933,0.0-64.0-8.0-0.15,SS1651681419586,4853.60000038147,"{""Q0"":5}",NA,NA,NA,NA,NA,NA,NA,NA,NA,NA,images/stimuli/complex_03_A_a.gif,NA,[0]
NA,survey-likert,65,386580,0.0-64.0-8.0-0.16,SS1651681419586,3634.9000000953674,"{""Q0"":5}",NA,NA,NA,NA,NA,NA,NA,NA,NA,NA,images/stimuli/complex_21_A_a.gif,NA,[0]
NA,survey-likert,66,392559,0.0-64.0-8.0-0.17,SS1651681419586,5966.200000286102,"{""Q0"":5}",NA,NA,NA,NA,NA,NA,NA,NA,NA,NA,images/stimuli/simple_17_A_a.gif,NA,[0]
NA,survey-likert,67,397841,0.0-64.0-8.0-0.18,SS1651681419586,5267.400000095367,"{""Q0"":5}",NA,NA,NA,NA,NA,NA,NA,NA,NA,NA,images/stimuli/complex_06_A_a.gif,NA,[0]
NA,survey-likert,68,401940,0.0-64.0-8.0-0.19,SS1651681419586,4083.199999809265,"{""Q0"":5}",NA,NA,NA,NA,NA,NA,NA,NA,NA,NA,images/stimuli/complex_13_A_a.gif,NA,[0]
NA,survey-text,69,418476,0.0-64.0-9.0,SS1651681419586,16511.200000286102,"{""Q0"":""no tutto bene""}",NA,feedback,NA,NA,NA,NA,NA,NA,NA,NA,NA,NA,NA
TRUE,fullscreen,70,419487,0.0-64.0-10.0,SS1651681419586,NA,NA,NA,NA,NA,NA,NA,NA,NA,NA,NA,NA,NA,NA,NA
NA,instructions,71,424051,0.0-64.0-11.0,SS1651681419586,4555.900000095367,NA,"[{""page_index"":0,""viewing_time"":4553.700000286102}]",instructions,NA,NA,NA,NA,NA,NA,NA,NA,NA,NA,NA
TRUE,fullscreen,0,2693,0.0-0.0,SS1651681420867,NA,NA,NA,NA,NA,NA,NA,NA,NA,NA,NA,NA,NA,NA,NA
NA,survey-text,1,10885,0.0-1.0,SS1651681420867,8185.600000143051,"{""p_id"":""61352b28c1729389a65e4fd5""}",NA,NA,NA,NA,NA,NA,NA,NA,NA,NA,NA,NA,NA
NA,instructions,2,12263,0.0-25.0-0.0,SS1651681420867,1375.3999998569489,NA,"[{""page_index"":0,""viewing_time"":1375.0999999046326}]",NA,NA,NA,NA,NA,NA,NA,NA,NA,NA,NA,NA
NA,instructions,3,24882,0.0-25.0-1.0,SS1651681420867,10602,NA,"[{""page_index"":0,""viewing_time"":7265.799999952316},{""page_index"":1,""viewing_time"":3335.899999856949}]",instructions,NA,NA,NA,NA,NA,NA,NA,NA,NA,NA,NA
NA,stimuli-presentation,4,30228,0.0-25.0-2.0,SS1651681420867,4835.5,NA,NA,NA,NA,40,500,5335.5,null,null,self_paced,0,NA,NA,NA
NA,stimuli-presentation,5,32929,0.0-25.0-3.0,SS1651681420867,2185.2999999523163,NA,NA,NA,NA,40,500,2685.2999999523163,null,null,self_paced,0,NA,NA,NA
NA,instructions,6,36423,0.0-25.0-4.0,SS1651681420867,3492.699999809265,NA,"[{""page_index"":0,""viewing_time"":3492.2999999523163}]",instructions,NA,NA,NA,NA,NA,NA,NA,NA,NA,NA,NA
NA,instructions,7,44503,0.0-25.0-5.0,SS1651681420867,8078.400000095367,NA,"[{""page_index"":0,""viewing_time"":3916.7000000476837},{""page_index"":1,""viewing_time"":1329.7000000476837},{""page_index"":2,""viewing_time"":1458.5},{""page_index"":3,""viewing_time"":1373.2000000476837}]",instructions,NA,NA,NA,NA,NA,NA,NA,NA,NA,NA,NA
NA,html-keyboard-response,8,45722,0.0-25.0-6.0-0.0,SS1651681420867,null,NA,NA,NA,NA,null,NA,NA,NA,NA,NA,NA,"<p><img src= images/blank.png width =""600"" height = ""600"" style=""position:fixed;top:50%; left:50%; transform: translate(-50%, -50%); border:5px solid black"">",NA,NA
NA,stimuli-presentation,9,47866,0.0-25.0-6.0-1.0,SS1651681420867,1636.2000000476837,NA,NA,trial,NA,40,500,2136.2000000476837,null,null,self_paced,0,NA,images/stimuli/simple_01_A_a.gif,NA
NA,html-keyboard-response,10,48861,0.0-25.0-6.0-0.1,SS1651681420867,null,NA,NA,NA,NA,null,NA,NA,NA,NA,NA,NA,"<p><img src= images/blank.png width =""600"" height = ""600"" style=""position:fixed;top:50%; left:50%; transform: translate(-50%, -50%); border:5px solid black"">",NA,NA
NA,stimuli-presentation,11,50110,0.0-25.0-6.0-1.1,SS1651681420867,742.2999999523163,NA,NA,trial,NA,40,500,1242.2999999523165,null,null,self_paced,0,NA,images/stimuli/simple_07_A_a.gif,NA
NA,html-keyboard-response,12,50997,0.0-25.0-6.0-0.2,SS1651681420867,null,NA,NA,NA,NA,null,NA,NA,NA,NA,NA,NA,"<p><img src= images/blank.png width =""600"" height = ""600"" style=""position:fixed;top:50%; left:50%; transform: translate(-50%, -50%); border:5px solid black"">",NA,NA
NA,stimuli-presentation,13,52792,0.0-25.0-6.0-1.2,SS1651681420867,1287.6000001430511,NA,NA,trial,NA,40,500,1787.6000001430511,null,null,self_paced,0,NA,images/stimuli/complex_07_A_a.gif,NA
NA,html-keyboard-response,14,53993,0.0-25.0-6.0-0.3,SS1651681420867,null,NA,NA,NA,NA,null,NA,NA,NA,NA,NA,NA,"<p><img src= images/blank.png width =""600"" height = ""600"" style=""position:fixed;top:50%; left:50%; transform: translate(-50%, -50%); border:5px solid black"">",NA,NA
NA,stimuli-presentation,15,56547,0.0-25.0-6.0-1.3,SS1651681420867,2051.0999999046326,NA,NA,trial,NA,40,500,2551.099999904633,null,null,self_paced,0,NA,images/stimuli/complex_09_A_a.gif,NA
NA,html-keyboard-response,16,57752,0.0-25.0-6.0-0.4,SS1651681420867,null,NA,NA,NA,NA,null,NA,NA,NA,NA,NA,NA,"<p><img src= images/blank.png width =""600"" height = ""600"" style=""position:fixed;top:50%; left:50%; transform: translate(-50%, -50%); border:5px solid black"">",NA,NA
NA,stimuli-presentation,17,60708,0.0-25.0-6.0-1.4,SS1651681420867,2449.5,NA,NA,trial,NA,40,500,2949.5,null,null,self_paced,0,NA,images/stimuli/simple_09_A_a.gif,NA
NA,html-keyboard-response,18,61964,0.0-25.0-6.0-0.5,SS1651681420867,null,NA,NA,NA,NA,null,NA,NA,NA,NA,NA,NA,"<p><img src= images/blank.png width =""600"" height = ""600"" style=""position:fixed;top:50%; left:50%; transform: translate(-50%, -50%); border:5px solid black"">",NA,NA
NA,stimuli-presentation,19,64260,0.0-25.0-6.0-1.5,SS1651681420867,1783.7999999523163,NA,NA,trial,NA,40,500,2283.7999999523163,null,null,self_paced,0,NA,images/stimuli/simple_17_A_a.gif,NA
NA,html-keyboard-response,20,65402,0.0-25.0-6.0-0.6,SS1651681420867,null,NA,NA,NA,NA,null,NA,NA,NA,NA,NA,NA,"<p><img src= images/blank.png width =""600"" height = ""600"" style=""position:fixed;top:50%; left:50%; transform: translate(-50%, -50%); border:5px solid black"">",NA,NA
NA,stimuli-presentation,21,73374,0.0-25.0-6.0-1.6,SS1651681420867,7460.099999904633,NA,NA,trial,NA,40,500,7960.099999904633,null,null,self_paced,0,NA,images/stimuli/simple_12_A_a.gif,NA
NA,html-keyboard-response,22,74267,0.0-25.0-6.0-0.7,SS1651681420867,null,NA,NA,NA,NA,null,NA,NA,NA,NA,NA,NA,"<p><img src= images/blank.png width =""600"" height = ""600"" style=""position:fixed;top:50%; left:50%; transform: translate(-50%, -50%); border:5px solid black"">",NA,NA
NA,stimuli-presentation,23,76407,0.0-25.0-6.0-1.7,SS1651681420867,1622.2000000476837,NA,NA,trial,NA,40,500,2122.2000000476837,null,null,self_paced,0,NA,images/stimuli/complex_12_A_a.gif,NA
NA,html-keyboard-response,24,77241,0.0-25.0-6.0-0.8,SS1651681420867,null,NA,NA,NA,NA,null,NA,NA,NA,NA,NA,NA,"<p><img src= images/blank.png width =""600"" height = ""600"" style=""position:fixed;top:50%; left:50%; transform: translate(-50%, -50%); border:5px solid black"">",NA,NA
NA,stimuli-presentation,25,78908,0.0-25.0-6.0-1.8,SS1651681420867,1157.8999998569489,NA,NA,trial,NA,40,500,1657.8999998569489,null,null,self_paced,0,NA,images/stimuli/simple_04_A_a.gif,NA
NA,html-keyboard-response,26,79920,0.0-25.0-6.0-0.9,SS1651681420867,null,NA,NA,NA,NA,null,NA,NA,NA,NA,NA,NA,"<p><img src= images/blank.png width =""600"" height = ""600"" style=""position:fixed;top:50%; left:50%; transform: translate(-50%, -50%); border:5px solid black"">",NA,NA
NA,stimuli-presentation,27,84951,0.0-25.0-6.0-1.9,SS1651681420867,4517.900000095367,NA,NA,trial,NA,40,500,5017.900000095367,null,null,self_paced,0,NA,images/stimuli/complex_17_A_a.gif,NA
NA,html-keyboard-response,28,85939,0.0-25.0-6.0-0.10,SS1651681420867,null,NA,NA,NA,NA,null,NA,NA,NA,NA,NA,NA,"<p><img src= images/blank.png width =""600"" height = ""600"" style=""position:fixed;top:50%; left:50%; transform: translate(-50%, -50%); border:5px solid black"">",NA,NA
NA,stimuli-presentation,29,88315,0.0-25.0-6.0-1.10,SS1651681420867,1857.7999999523163,NA,NA,trial,NA,40,500,2357.7999999523163,null,null,self_paced,0,NA,images/stimuli/simple_18_A_a.gif,NA
NA,html-keyboard-response,30,89562,0.0-25.0-6.0-0.11,SS1651681420867,null,NA,NA,NA,NA,null,NA,NA,NA,NA,NA,NA,"<p><img src= images/blank.png width =""600"" height = ""600"" style=""position:fixed;top:50%; left:50%; transform: translate(-50%, -50%); border:5px solid black"">",NA,NA
NA,stimuli-presentation,31,93780,0.0-25.0-6.0-1.11,SS1651681420867,3709.4000000953674,NA,NA,trial,NA,40,500,4209.400000095367,null,null,self_paced,0,NA,images/stimuli/simple_16_A_a.gif,NA
NA,html-keyboard-response,32,94827,0.0-25.0-6.0-0.12,SS1651681420867,null,NA,NA,NA,NA,null,NA,NA,NA,NA,NA,NA,"<p><img src= images/blank.png width =""600"" height = ""600"" style=""position:fixed;top:50%; left:50%; transform: translate(-50%, -50%); border:5px solid black"">",NA,NA
NA,stimuli-presentation,33,96489,0.0-25.0-6.0-1.12,SS1651681420867,1141.1000001430511,NA,NA,trial,NA,40,500,1641.1000001430511,null,null,self_paced,0,NA,images/stimuli/complex_03_A_a.gif,NA
NA,html-keyboard-response,34,97740,0.0-25.0-6.0-0.13,SS1651681420867,null,NA,NA,NA,NA,null,NA,NA,NA,NA,NA,NA,"<p><img src= images/blank.png width =""600"" height = ""600"" style=""position:fixed;top:50%; left:50%; transform: translate(-50%, -50%); border:5px solid black"">",NA,NA
NA,stimuli-presentation,35,99244,0.0-25.0-6.0-1.13,SS1651681420867,989.6000001430511,NA,NA,trial,NA,40,500,1489.6000001430511,null,null,self_paced,0,NA,images/stimuli/simple_06_A_a.gif,NA
NA,html-keyboard-response,36,100437,0.0-25.0-6.0-0.14,SS1651681420867,null,NA,NA,NA,NA,null,NA,NA,NA,NA,NA,NA,"<p><img src= images/blank.png width =""600"" height = ""600"" style=""position:fixed;top:50%; left:50%; transform: translate(-50%, -50%); border:5px solid black"">",NA,NA
NA,stimuli-presentation,37,101534,0.0-25.0-6.0-1.14,SS1651681420867,574.4000000953674,NA,NA,trial,NA,40,500,1074.4000000953674,null,null,self_paced,0,NA,images/stimuli/complex_13_A_a.gif,NA
NA,html-keyboard-response,38,102761,0.0-25.0-6.0-0.15,SS1651681420867,null,NA,NA,NA,NA,null,NA,NA,NA,NA,NA,NA,"<p><img src= images/blank.png width =""600"" height = ""600"" style=""position:fixed;top:50%; left:50%; transform: translate(-50%, -50%); border:5px solid black"">",NA,NA
NA,stimuli-presentation,39,103752,0.0-25.0-6.0-1.15,SS1651681420867,476.5,NA,NA,trial,NA,40,500,976.5,null,null,self_paced,0,NA,images/stimuli/complex_11_A_a.gif,NA
NA,html-keyboard-response,40,104586,0.0-25.0-6.0-0.16,SS1651681420867,null,NA,NA,NA,NA,null,NA,NA,NA,NA,NA,NA,"<p><img src= images/blank.png width =""600"" height = ""600"" style=""position:fixed;top:50%; left:50%; transform: translate(-50%, -50%); border:5px solid black"">",NA,NA
NA,stimuli-presentation,41,105491,0.0-25.0-6.0-1.16,SS1651681420867,384,NA,NA,trial,NA,40,500,884,null,null,self_paced,0,NA,images/stimuli/simple_03_A_a.gif,NA
NA,html-keyboard-response,42,106450,0.0-25.0-6.0-0.17,SS1651681420867,null,NA,NA,NA,NA,null,NA,NA,NA,NA,NA,NA,"<p><img src= images/blank.png width =""600"" height = ""600"" style=""position:fixed;top:50%; left:50%; transform: translate(-50%, -50%); border:5px solid black"">",NA,NA
NA,stimuli-presentation,43,107542,0.0-25.0-6.0-1.17,SS1651681420867,579.2000000476837,NA,NA,trial,NA,40,500,1079.2000000476835,null,null,self_paced,0,NA,images/stimuli/complex_19_A_a.gif,NA
NA,html-keyboard-response,44,108424,0.0-25.0-6.0-0.18,SS1651681420867,null,NA,NA,NA,NA,null,NA,NA,NA,NA,NA,NA,"<p><img src= images/blank.png width =""600"" height = ""600"" style=""position:fixed;top:50%; left:50%; transform: translate(-50%, -50%); border:5px solid black"">",NA,NA
NA,stimuli-presentation,45,109786,0.0-25.0-6.0-1.18,SS1651681420867,850.5,NA,NA,trial,NA,40,500,1350.5,null,null,self_paced,0,NA,images/stimuli/complex_10_A_a.gif,NA
NA,html-keyboard-response,46,110870,0.0-25.0-6.0-0.19,SS1651681420867,null,NA,NA,NA,NA,null,NA,NA,NA,NA,NA,NA,"<p><img src= images/blank.png width =""600"" height = ""600"" style=""position:fixed;top:50%; left:50%; transform: translate(-50%, -50%); border:5px solid black"">",NA,NA
NA,stimuli-presentation,47,111956,0.0-25.0-6.0-1.19,SS1651681420867,574.3999998569489,NA,NA,trial,NA,40,500,1074.3999998569489,null,null,self_paced,0,NA,images/stimuli/complex_06_A_a.gif,NA
NA,instructions,48,114261,0.0-25.0-7.0,SS1651681420867,2298.7999999523163,NA,"[{""page_index"":0,""viewing_time"":2298.0999999046326}]",instructions,NA,NA,NA,NA,NA,NA,NA,NA,NA,NA,NA
NA,survey-likert,49,120049,0.0-25.0-8.0-0.0,SS1651681420867,5778,"{""Q0"":5}",NA,NA,NA,NA,NA,NA,NA,NA,NA,NA,images/stimuli/complex_07_A_a.gif,NA,[0]
NA,survey-likert,50,124875,0.0-25.0-8.0-0.1,SS1651681420867,4817.799999952316,"{""Q0"":0}",NA,NA,NA,NA,NA,NA,NA,NA,NA,NA,images/stimuli/simple_17_A_a.gif,NA,[0]
NA,survey-likert,51,129970,0.0-25.0-8.0-0.2,SS1651681420867,5083.800000190735,"{""Q0"":5}",NA,NA,NA,NA,NA,NA,NA,NA,NA,NA,images/stimuli/complex_03_A_a.gif,NA,[0]
NA,survey-likert,52,134073,0.0-25.0-8.0-0.3,SS1651681420867,4090.7999999523163,"{""Q0"":5}",NA,NA,NA,NA,NA,NA,NA,NA,NA,NA,images/stimuli/simple_16_A_a.gif,NA,[0]
NA,survey-likert,53,137969,0.0-25.0-8.0-0.4,SS1651681420867,3884,"{""Q0"":5}",NA,NA,NA,NA,NA,NA,NA,NA,NA,NA,images/stimuli/simple_18_A_a.gif,NA,[0]
NA,survey-likert,54,144914,0.0-25.0-8.0-0.5,SS1651681420867,6935.5,"{""Q0"":5}",NA,NA,NA,NA,NA,NA,NA,NA,NA,NA,images/stimuli/complex_09_A_a.gif,NA,[0]
NA,survey-likert,55,153084,0.0-25.0-8.0-0.6,SS1651681420867,8159.199999809265,"{""Q0"":5}",NA,NA,NA,NA,NA,NA,NA,NA,NA,NA,images/stimuli/simple_01_A_a.gif,NA,[0]
NA,survey-likert,56,160065,0.0-25.0-8.0-0.7,SS1651681420867,6973.099999904633,"{""Q0"":1}",NA,NA,NA,NA,NA,NA,NA,NA,NA,NA,images/stimuli/complex_10_A_a.gif,NA,[0]
NA,survey-likert,57,166205,0.0-25.0-8.0-0.8,SS1651681420867,6127.099999904633,"{""Q0"":3}",NA,NA,NA,NA,NA,NA,NA,NA,NA,NA,images/stimuli/complex_11_A_a.gif,NA,[0]
NA,survey-likert,58,169618,0.0-25.0-8.0-0.9,SS1651681420867,3402.2999999523163,"{""Q0"":5}",NA,NA,NA,NA,NA,NA,NA,NA,NA,NA,images/stimuli/complex_17_A_a.gif,NA,[0]
NA,survey-likert,59,173019,0.0-25.0-8.0-0.10,SS1651681420867,3390.5,"{""Q0"":5}",NA,NA,NA,NA,NA,NA,NA,NA,NA,NA,images/stimuli/simple_09_A_a.gif,NA,[0]
NA,survey-likert,60,176061,0.0-25.0-8.0-0.11,SS1651681420867,3033,"{""Q0"":5}",NA,NA,NA,NA,NA,NA,NA,NA,NA,NA,images/stimuli/simple_07_A_a.gif,NA,[0]
NA,survey-likert,61,179341,0.0-25.0-8.0-0.12,SS1651681420867,3266.5999999046326,"{""Q0"":5}",NA,NA,NA,NA,NA,NA,NA,NA,NA,NA,images/stimuli/simple_04_A_a.gif,NA,[0]
NA,survey-likert,62,185347,0.0-25.0-8.0-0.13,SS1651681420867,5996.400000095367,"{""Q0"":5}",NA,NA,NA,NA,NA,NA,NA,NA,NA,NA,images/stimuli/simple_03_A_a.gif,NA,[0]
NA,survey-likert,63,190258,0.0-25.0-8.0-0.14,SS1651681420867,4902.400000095367,"{""Q0"":5}",NA,NA,NA,NA,NA,NA,NA,NA,NA,NA,images/stimuli/complex_06_A_a.gif,NA,[0]
NA,survey-likert,64,194958,0.0-25.0-8.0-0.15,SS1651681420867,4686.400000095367,"{""Q0"":5}",NA,NA,NA,NA,NA,NA,NA,NA,NA,NA,images/stimuli/simple_06_A_a.gif,NA,[0]
NA,survey-likert,65,208819,0.0-25.0-8.0-0.16,SS1651681420867,13849.599999904633,"{""Q0"":4}",NA,NA,NA,NA,NA,NA,NA,NA,NA,NA,images/stimuli/complex_12_A_a.gif,NA,[0]
NA,survey-likert,66,214248,0.0-25.0-8.0-0.17,SS1651681420867,5416.299999952316,"{""Q0"":5}",NA,NA,NA,NA,NA,NA,NA,NA,NA,NA,images/stimuli/complex_13_A_a.gif,NA,[0]
NA,survey-likert,67,223373,0.0-25.0-8.0-0.18,SS1651681420867,9113.600000143051,"{""Q0"":2}",NA,NA,NA,NA,NA,NA,NA,NA,NA,NA,images/stimuli/complex_19_A_a.gif,NA,[0]
NA,survey-likert,68,226290,0.0-25.0-8.0-0.19,SS1651681420867,2905.4000000953674,"{""Q0"":5}",NA,NA,NA,NA,NA,NA,NA,NA,NA,NA,images/stimuli/simple_12_A_a.gif,NA,[0]
NA,survey-text,69,232826,0.0-25.0-9.0,SS1651681420867,6521.099999904633,"{""Q0"":""not at all ""}",NA,feedback,NA,NA,NA,NA,NA,NA,NA,NA,NA,NA,NA
TRUE,fullscreen,70,233851,0.0-25.0-10.0,SS1651681420867,NA,NA,NA,NA,NA,NA,NA,NA,NA,NA,NA,NA,NA,NA,NA
NA,instructions,71,235912,0.0-25.0-11.0,SS1651681420867,2055.7999999523163,NA,"[{""page_index"":0,""viewing_time"":2055.5}]",instructions,NA,NA,NA,NA,NA,NA,NA,NA,NA,NA,NA
TRUE,fullscreen,0,6817,0.0-0.0,SS1651683628744,NA,NA,NA,NA,NA,NA,NA,NA,NA,NA,NA,NA,NA,NA,NA
NA,survey-text,1,21201,0.0-1.0,SS1651683628744,14375.200000047684,"{""p_id"":""61333a6aeba7e6f02294f861""}",NA,NA,NA,NA,NA,NA,NA,NA,NA,NA,NA,NA,NA
NA,instructions,2,31894,0.0-74.0-0.0,SS1651683628744,10689.599999904633,NA,"[{""page_index"":0,""viewing_time"":10688.799999952316}]",NA,NA,NA,NA,NA,NA,NA,NA,NA,NA,NA,NA
NA,instructions,3,58721,0.0-74.0-1.0,SS1651683628744,24819.400000095367,NA,"[{""page_index"":0,""viewing_time"":14365.200000047684},{""page_index"":1,""viewing_time"":10453.900000095367}]",instructions,NA,NA,NA,NA,NA,NA,NA,NA,NA,NA,NA
NA,stimuli-presentation,4,68528,0.0-74.0-2.0,SS1651683628744,9300.299999952316,NA,NA,NA,NA,40,500,9800.299999952316,null,null,self_paced,0,NA,NA,NA
NA,stimuli-presentation,5,78599,0.0-74.0-3.0,SS1651683628744,9556.400000095367,NA,NA,NA,NA,40,500,10056.400000095367,null,null,self_paced,0,NA,NA,NA
NA,instructions,6,83266,0.0-74.0-4.0,SS1651683628744,4665.200000047684,NA,"[{""page_index"":0,""viewing_time"":4664.899999856949}]",instructions,NA,NA,NA,NA,NA,NA,NA,NA,NA,NA,NA
NA,instructions,7,115934,0.0-74.0-5.0,SS1651683628744,32665.200000047684,NA,"[{""page_index"":0,""viewing_time"":10840.900000095367},{""page_index"":1,""viewing_time"":17585.900000095367},{""page_index"":2,""viewing_time"":2098.0999999046326},{""page_index"":3,""viewing_time"":2139.9000000953674}]",instructions,NA,NA,NA,NA,NA,NA,NA,NA,NA,NA,NA
NA,html-keyboard-response,8,117194,0.0-74.0-6.0-0.0,SS1651683628744,null,NA,NA,NA,NA,null,NA,NA,NA,NA,NA,NA,"<p><img src= images/blank.png width =""600"" height = ""600"" style=""position:fixed;top:50%; left:50%; transform: translate(-50%, -50%); border:5px solid black"">",NA,NA
NA,stimuli-presentation,9,131399,0.0-74.0-6.0-1.0,SS1651683628744,13700.299999952316,NA,NA,trial,NA,40,500,14200.299999952316,null,null,self_paced,0,NA,images/stimuli/simple_01_A_a.gif,NA
NA,html-keyboard-response,10,132661,0.0-74.0-6.0-0.1,SS1651683628744,null,NA,NA,NA,NA,null,NA,NA,NA,NA,NA,NA,"<p><img src= images/blank.png width =""600"" height = ""600"" style=""position:fixed;top:50%; left:50%; transform: translate(-50%, -50%); border:5px solid black"">",NA,NA
NA,stimuli-presentation,11,143630,0.0-74.0-6.0-1.1,SS1651683628744,10458.599999904633,NA,NA,trial,NA,40,500,10958.599999904633,null,null,self_paced,0,NA,images/stimuli/simple_12_A_a.gif,NA
NA,html-keyboard-response,12,144794,0.0-74.0-6.0-0.2,SS1651683628744,null,NA,NA,NA,NA,null,NA,NA,NA,NA,NA,NA,"<p><img src= images/blank.png width =""600"" height = ""600"" style=""position:fixed;top:50%; left:50%; transform: translate(-50%, -50%); border:5px solid black"">",NA,NA
NA,stimuli-presentation,13,156158,0.0-74.0-6.0-1.2,SS1651683628744,10860.700000047684,NA,NA,trial,NA,40,500,11360.700000047684,null,null,self_paced,0,NA,images/stimuli/simple_17_A_a.gif,NA
NA,html-keyboard-response,14,157161,0.0-74.0-6.0-0.3,SS1651683628744,null,NA,NA,NA,NA,null,NA,NA,NA,NA,NA,NA,"<p><img src= images/blank.png width =""600"" height = ""600"" style=""position:fixed;top:50%; left:50%; transform: translate(-50%, -50%); border:5px solid black"">",NA,NA
NA,stimuli-presentation,15,168285,0.0-74.0-6.0-1.3,SS1651683628744,10620.399999856949,NA,NA,trial,NA,40,500,11120.399999856949,null,null,self_paced,0,NA,images/stimuli/simple_09_A_a.gif,NA
NA,html-keyboard-response,16,169460,0.0-74.0-6.0-0.4,SS1651683628744,null,NA,NA,NA,NA,null,NA,NA,NA,NA,NA,NA,"<p><img src= images/blank.png width =""600"" height = ""600"" style=""position:fixed;top:50%; left:50%; transform: translate(-50%, -50%); border:5px solid black"">",NA,NA
NA,stimuli-presentation,17,181518,0.0-74.0-6.0-1.4,SS1651683628744,11551.299999952316,NA,NA,trial,NA,40,500,12051.299999952316,null,null,self_paced,0,NA,images/stimuli/complex_23_A_a.gif,NA
NA,html-keyboard-response,18,182639,0.0-74.0-6.0-0.5,SS1651683628744,null,NA,NA,NA,NA,null,NA,NA,NA,NA,NA,NA,"<p><img src= images/blank.png width =""600"" height = ""600"" style=""position:fixed;top:50%; left:50%; transform: translate(-50%, -50%); border:5px solid black"">",NA,NA
NA,stimuli-presentation,19,189861,0.0-74.0-6.0-1.5,SS1651683628744,6717.299999952316,NA,NA,trial,NA,40,500,7217.299999952316,null,null,self_paced,0,NA,images/stimuli/simple_02_A_a.gif,NA
NA,html-keyboard-response,20,190782,0.0-74.0-6.0-0.6,SS1651683628744,null,NA,NA,NA,NA,null,NA,NA,NA,NA,NA,NA,"<p><img src= images/blank.png width =""600"" height = ""600"" style=""position:fixed;top:50%; left:50%; transform: translate(-50%, -50%); border:5px solid black"">",NA,NA
NA,stimuli-presentation,21,200445,0.0-74.0-6.0-1.6,SS1651683628744,9159.399999856949,NA,NA,trial,NA,40,500,9659.399999856949,null,null,self_paced,0,NA,images/stimuli/complex_17_A_a.gif,NA
NA,html-keyboard-response,22,201422,0.0-74.0-6.0-0.7,SS1651683628744,null,NA,NA,NA,NA,null,NA,NA,NA,NA,NA,NA,"<p><img src= images/blank.png width =""600"" height = ""600"" style=""position:fixed;top:50%; left:50%; transform: translate(-50%, -50%); border:5px solid black"">",NA,NA
NA,stimuli-presentation,23,208702,0.0-74.0-6.0-1.7,SS1651683628744,6774.100000143051,NA,NA,trial,NA,40,500,7274.100000143051,null,null,self_paced,0,NA,images/stimuli/complex_19_A_a.gif,NA
NA,html-keyboard-response,24,209593,0.0-74.0-6.0-0.8,SS1651683628744,null,NA,NA,NA,NA,null,NA,NA,NA,NA,NA,NA,"<p><img src= images/blank.png width =""600"" height = ""600"" style=""position:fixed;top:50%; left:50%; transform: translate(-50%, -50%); border:5px solid black"">",NA,NA
NA,stimuli-presentation,25,218869,0.0-74.0-6.0-1.8,SS1651683628744,8768,NA,NA,trial,NA,40,500,9268,null,null,self_paced,0,NA,images/stimuli/complex_03_A_a.gif,NA
NA,html-keyboard-response,26,220010,0.0-74.0-6.0-0.9,SS1651683628744,null,NA,NA,NA,NA,null,NA,NA,NA,NA,NA,NA,"<p><img src= images/blank.png width =""600"" height = ""600"" style=""position:fixed;top:50%; left:50%; transform: translate(-50%, -50%); border:5px solid black"">",NA,NA
NA,stimuli-presentation,27,229478,0.0-74.0-6.0-1.9,SS1651683628744,8963.100000143051,NA,NA,trial,NA,40,500,9463.100000143051,null,null,self_paced,0,NA,images/stimuli/complex_15_A_a.gif,NA
NA,html-keyboard-response,28,230594,0.0-74.0-6.0-0.10,SS1651683628744,null,NA,NA,NA,NA,null,NA,NA,NA,NA,NA,NA,"<p><img src= images/blank.png width =""600"" height = ""600"" style=""position:fixed;top:50%; left:50%; transform: translate(-50%, -50%); border:5px solid black"">",NA,NA
NA,stimuli-presentation,29,237749,0.0-74.0-6.0-1.10,SS1651683628744,6651.5,NA,NA,trial,NA,40,500,7151.5,null,null,self_paced,0,NA,images/stimuli/simple_08_A_a.gif,NA
NA,html-keyboard-response,30,238727,0.0-74.0-6.0-0.11,SS1651683628744,null,NA,NA,NA,NA,null,NA,NA,NA,NA,NA,NA,"<p><img src= images/blank.png width =""600"" height = ""600"" style=""position:fixed;top:50%; left:50%; transform: translate(-50%, -50%); border:5px solid black"">",NA,NA
NA,stimuli-presentation,31,245109,0.0-74.0-6.0-1.11,SS1651683628744,5874.799999952316,NA,NA,trial,NA,40,500,6374.799999952316,null,null,self_paced,0,NA,images/stimuli/simple_03_A_a.gif,NA
NA,html-keyboard-response,32,245987,0.0-74.0-6.0-0.12,SS1651683628744,null,NA,NA,NA,NA,null,NA,NA,NA,NA,NA,NA,"<p><img src= images/blank.png width =""600"" height = ""600"" style=""position:fixed;top:50%; left:50%; transform: translate(-50%, -50%); border:5px solid black"">",NA,NA
NA,stimuli-presentation,33,253293,0.0-74.0-6.0-1.12,SS1651683628744,6802.699999809265,NA,NA,trial,NA,40,500,7302.699999809265,null,null,self_paced,0,NA,images/stimuli/simple_04_A_a.gif,NA
NA,html-keyboard-response,34,254541,0.0-74.0-6.0-0.13,SS1651683628744,null,NA,NA,NA,NA,null,NA,NA,NA,NA,NA,NA,"<p><img src= images/blank.png width =""600"" height = ""600"" style=""position:fixed;top:50%; left:50%; transform: translate(-50%, -50%); border:5px solid black"">",NA,NA
NA,stimuli-presentation,35,263982,0.0-74.0-6.0-1.13,SS1651683628744,8937.099999904633,NA,NA,trial,NA,40,500,9437.099999904633,null,null,self_paced,0,NA,images/stimuli/simple_06_A_a.gif,NA
NA,html-keyboard-response,36,265132,0.0-74.0-6.0-0.14,SS1651683628744,null,NA,NA,NA,NA,null,NA,NA,NA,NA,NA,NA,"<p><img src= images/blank.png width =""600"" height = ""600"" style=""position:fixed;top:50%; left:50%; transform: translate(-50%, -50%); border:5px solid black"">",NA,NA
NA,stimuli-presentation,37,272285,0.0-74.0-6.0-1.14,SS1651683628744,6649.800000190735,NA,NA,trial,NA,40,500,7149.800000190735,null,null,self_paced,0,NA,images/stimuli/complex_10_A_a.gif,NA
NA,html-keyboard-response,38,273571,0.0-74.0-6.0-0.15,SS1651683628744,null,NA,NA,NA,NA,null,NA,NA,NA,NA,NA,NA,"<p><img src= images/blank.png width =""600"" height = ""600"" style=""position:fixed;top:50%; left:50%; transform: translate(-50%, -50%); border:5px solid black"">",NA,NA
NA,stimuli-presentation,39,283061,0.0-74.0-6.0-1.15,SS1651683628744,8984.799999952316,NA,NA,trial,NA,40,500,9484.799999952316,null,null,self_paced,0,NA,images/stimuli/simple_07_A_a.gif,NA
NA,html-keyboard-response,40,283919,0.0-74.0-6.0-0.16,SS1651683628744,null,NA,NA,NA,NA,null,NA,NA,NA,NA,NA,NA,"<p><img src= images/blank.png width =""600"" height = ""600"" style=""position:fixed;top:50%; left:50%; transform: translate(-50%, -50%); border:5px solid black"">",NA,NA
NA,stimuli-presentation,41,290709,0.0-74.0-6.0-1.16,SS1651683628744,6284.800000190735,NA,NA,trial,NA,40,500,6784.800000190735,null,null,self_paced,0,NA,images/stimuli/complex_12_A_a.gif,NA
NA,html-keyboard-response,42,291663,0.0-74.0-6.0-0.17,SS1651683628744,null,NA,NA,NA,NA,null,NA,NA,NA,NA,NA,NA,"<p><img src= images/blank.png width =""600"" height = ""600"" style=""position:fixed;top:50%; left:50%; transform: translate(-50%, -50%); border:5px solid black"">",NA,NA
NA,stimuli-presentation,43,298405,0.0-74.0-6.0-1.17,SS1651683628744,6237.5,NA,NA,trial,NA,40,500,6737.5,null,null,self_paced,0,NA,images/stimuli/complex_06_A_a.gif,NA
NA,html-keyboard-response,44,299638,0.0-74.0-6.0-0.18,SS1651683628744,null,NA,NA,NA,NA,null,NA,NA,NA,NA,NA,NA,"<p><img src= images/blank.png width =""600"" height = ""600"" style=""position:fixed;top:50%; left:50%; transform: translate(-50%, -50%); border:5px solid black"">",NA,NA
NA,stimuli-presentation,45,306702,0.0-74.0-6.0-1.18,SS1651683628744,6560,NA,NA,trial,NA,40,500,7060,null,null,self_paced,0,NA,images/stimuli/complex_09_A_a.gif,NA
NA,html-keyboard-response,46,307884,0.0-74.0-6.0-0.19,SS1651683628744,null,NA,NA,NA,NA,null,NA,NA,NA,NA,NA,NA,"<p><img src= images/blank.png width =""600"" height = ""600"" style=""position:fixed;top:50%; left:50%; transform: translate(-50%, -50%); border:5px solid black"">",NA,NA
NA,stimuli-presentation,47,312549,0.0-74.0-6.0-1.19,SS1651683628744,4158.700000047684,NA,NA,trial,NA,40,500,4658.700000047684,null,null,self_paced,0,NA,images/stimuli/complex_13_A_a.gif,NA
NA,instructions,48,317133,0.0-74.0-7.0,SS1651683628744,4581.700000047684,NA,"[{""page_index"":0,""viewing_time"":4581.399999856949}]",instructions,NA,NA,NA,NA,NA,NA,NA,NA,NA,NA,NA
NA,survey-likert,49,327046,0.0-74.0-8.0-0.0,SS1651683628744,9909.300000190735,"{""Q0"":4}",NA,NA,NA,NA,NA,NA,NA,NA,NA,NA,images/stimuli/complex_17_A_a.gif,NA,[0]
NA,survey-likert,50,333397,0.0-74.0-8.0-0.1,SS1651683628744,6346.700000047684,"{""Q0"":5}",NA,NA,NA,NA,NA,NA,NA,NA,NA,NA,images/stimuli/simple_12_A_a.gif,NA,[0]
NA,survey-likert,51,339136,0.0-74.0-8.0-0.2,SS1651683628744,5734.899999856949,"{""Q0"":5}",NA,NA,NA,NA,NA,NA,NA,NA,NA,NA,images/stimuli/complex_19_A_a.gif,NA,[0]
NA,survey-likert,52,347145,0.0-74.0-8.0-0.3,SS1651683628744,8005.800000190735,"{""Q0"":2}",NA,NA,NA,NA,NA,NA,NA,NA,NA,NA,images/stimuli/simple_04_A_a.gif,NA,[0]
NA,survey-likert,53,352990,0.0-74.0-8.0-0.4,SS1651683628744,5841.200000047684,"{""Q0"":2}",NA,NA,NA,NA,NA,NA,NA,NA,NA,NA,images/stimuli/simple_17_A_a.gif,NA,[0]
NA,survey-likert,54,358774,0.0-74.0-8.0-0.5,SS1651683628744,5780.200000047684,"{""Q0"":3}",NA,NA,NA,NA,NA,NA,NA,NA,NA,NA,images/stimuli/simple_02_A_a.gif,NA,[0]
NA,survey-likert,55,365616,0.0-74.0-8.0-0.6,SS1651683628744,6838.100000143051,"{""Q0"":3}",NA,NA,NA,NA,NA,NA,NA,NA,NA,NA,images/stimuli/simple_06_A_a.gif,NA,[0]
NA,survey-likert,56,375685,0.0-74.0-8.0-0.7,SS1651683628744,10064.599999904633,"{""Q0"":3}",NA,NA,NA,NA,NA,NA,NA,NA,NA,NA,images/stimuli/simple_07_A_a.gif,NA,[0]
NA,survey-likert,57,381493,0.0-74.0-8.0-0.8,SS1651683628744,5804.5,"{""Q0"":4}",NA,NA,NA,NA,NA,NA,NA,NA,NA,NA,images/stimuli/simple_09_A_a.gif,NA,[0]
NA,survey-likert,58,388981,0.0-74.0-8.0-0.9,SS1651683628744,7483.5,"{""Q0"":1}",NA,NA,NA,NA,NA,NA,NA,NA,NA,NA,images/stimuli/simple_08_A_a.gif,NA,[0]
NA,survey-likert,59,393820,0.0-74.0-8.0-0.10,SS1651683628744,4834.599999904633,"{""Q0"":5}",NA,NA,NA,NA,NA,NA,NA,NA,NA,NA,images/stimuli/complex_12_A_a.gif,NA,[0]
NA,survey-likert,60,398658,0.0-74.0-8.0-0.11,SS1651683628744,4833.700000047684,"{""Q0"":4}",NA,NA,NA,NA,NA,NA,NA,NA,NA,NA,images/stimuli/complex_15_A_a.gif,NA,[0]
NA,survey-likert,61,404393,0.0-74.0-8.0-0.12,SS1651683628744,5730.699999809265,"{""Q0"":4}",NA,NA,NA,NA,NA,NA,NA,NA,NA,NA,images/stimuli/complex_03_A_a.gif,NA,[0]
NA,survey-likert,62,410611,0.0-74.0-8.0-0.13,SS1651683628744,6213.900000095367,"{""Q0"":2}",NA,NA,NA,NA,NA,NA,NA,NA,NA,NA,images/stimuli/complex_10_A_a.gif,NA,[0]
NA,survey-likert,63,414257,0.0-74.0-8.0-0.14,SS1651683628744,3641.699999809265,"{""Q0"":5}",NA,NA,NA,NA,NA,NA,NA,NA,NA,NA,images/stimuli/complex_13_A_a.gif,NA,[0]
NA,survey-likert,64,420200,0.0-74.0-8.0-0.15,SS1651683628744,5939.199999809265,"{""Q0"":2}",NA,NA,NA,NA,NA,NA,NA,NA,NA,NA,images/stimuli/simple_01_A_a.gif,NA,[0]
NA,survey-likert,65,424448,0.0-74.0-8.0-0.16,SS1651683628744,4243.799999952316,"{""Q0"":3}",NA,NA,NA,NA,NA,NA,NA,NA,NA,NA,images/stimuli/simple_03_A_a.gif,NA,[0]
NA,survey-likert,66,432581,0.0-74.0-8.0-0.17,SS1651683628744,8129,"{""Q0"":2}",NA,NA,NA,NA,NA,NA,NA,NA,NA,NA,images/stimuli/complex_23_A_a.gif,NA,[0]
NA,survey-likert,67,437492,0.0-74.0-8.0-0.18,SS1651683628744,4907.099999904633,"{""Q0"":4}",NA,NA,NA,NA,NA,NA,NA,NA,NA,NA,images/stimuli/complex_06_A_a.gif,NA,[0]
NA,survey-likert,68,444184,0.0-74.0-8.0-0.19,SS1651683628744,6687.600000143051,"{""Q0"":2}",NA,NA,NA,NA,NA,NA,NA,NA,NA,NA,images/stimuli/complex_09_A_a.gif,NA,[0]
NA,survey-text,69,460357,0.0-74.0-9.0,SS1651683628744,16168.400000095367,"{""Q0"":""no issue""}",NA,feedback,NA,NA,NA,NA,NA,NA,NA,NA,NA,NA,NA
TRUE,fullscreen,70,461373,0.0-74.0-10.0,SS1651683628744,NA,NA,NA,NA,NA,NA,NA,NA,NA,NA,NA,NA,NA,NA,NA
NA,instructions,71,464014,0.0-74.0-11.0,SS1651683628744,2638.300000190735,NA,"[{""page_index"":0,""viewing_time"":2637.9000000953674}]",instructions,NA,NA,NA,NA,NA,NA,NA,NA,NA,NA,NA
TRUE,fullscreen,0,2919,0.0-0.0,SS1651684049786,NA,NA,NA,NA,NA,NA,NA,NA,NA,NA,NA,NA,NA,NA,NA
NA,survey-text,1,6243,0.0-1.0,SS1651684049786,3295,"{""p_id"":""5a9adf93dbdb470001eee5e1""}",NA,NA,NA,NA,NA,NA,NA,NA,NA,NA,NA,NA,NA
NA,instructions,2,10434,0.0-46.0-0.0,SS1651684049786,4187,NA,"[{""page_index"":0,""viewing_time"":4184}]",NA,NA,NA,NA,NA,NA,NA,NA,NA,NA,NA,NA
NA,instructions,3,25676,0.0-46.0-1.0,SS1651684049786,13236,NA,"[{""page_index"":0,""viewing_time"":7884},{""page_index"":1,""viewing_time"":5352}]",instructions,NA,NA,NA,NA,NA,NA,NA,NA,NA,NA,NA
NA,stimuli-presentation,4,31914,0.0-46.0-2.0,SS1651684049786,5733,NA,NA,NA,NA,40,500,6233,null,null,self_paced,0,NA,NA,NA
NA,stimuli-presentation,5,36558,0.0-46.0-3.0,SS1651684049786,4138.000000000007,NA,NA,NA,NA,40,500,4638.000000000007,null,null,self_paced,0,NA,NA,NA
NA,instructions,6,39103,0.0-46.0-4.0,SS1651684049786,2541,NA,"[{""page_index"":0,""viewing_time"":2541}]",instructions,NA,NA,NA,NA,NA,NA,NA,NA,NA,NA,NA
NA,instructions,7,51759,0.0-46.0-5.0,SS1651684049786,12653.000000000007,NA,"[{""page_index"":0,""viewing_time"":6989},{""page_index"":1,""viewing_time"":3212},{""page_index"":2,""viewing_time"":1298},{""page_index"":3,""viewing_time"":1154.0000000000073}]",instructions,NA,NA,NA,NA,NA,NA,NA,NA,NA,NA,NA
NA,html-keyboard-response,8,52595,0.0-46.0-6.0-0.0,SS1651684049786,null,NA,NA,NA,NA,null,NA,NA,NA,NA,NA,NA,"<p><img src= images/blank.png width =""600"" height = ""600"" style=""position:fixed;top:50%; left:50%; transform: translate(-50%, -50%); border:5px solid black"">",NA,NA
NA,stimuli-presentation,9,59343,0.0-46.0-6.0-1.0,SS1651684049786,6239,NA,NA,trial,NA,40,500,6739,null,null,self_paced,0,NA,images/stimuli/simple_09_A_a.gif,NA
NA,html-keyboard-response,10,60586,0.0-46.0-6.0-0.1,SS1651684049786,null,NA,NA,NA,NA,null,NA,NA,NA,NA,NA,NA,"<p><img src= images/blank.png width =""600"" height = ""600"" style=""position:fixed;top:50%; left:50%; transform: translate(-50%, -50%); border:5px solid black"">",NA,NA
NA,stimuli-presentation,11,66786,0.0-46.0-6.0-1.1,SS1651684049786,5694.999999999985,NA,NA,trial,NA,40,500,6194.999999999985,null,null,self_paced,0,NA,images/stimuli/complex_06_A_a.gif,NA
NA,html-keyboard-response,12,67670,0.0-46.0-6.0-0.2,SS1651684049786,null,NA,NA,NA,NA,null,NA,NA,NA,NA,NA,NA,"<p><img src= images/blank.png width =""600"" height = ""600"" style=""position:fixed;top:50%; left:50%; transform: translate(-50%, -50%); border:5px solid black"">",NA,NA
NA,stimuli-presentation,13,72247,0.0-46.0-6.0-1.2,SS1651684049786,4072,NA,NA,trial,NA,40,500,4572,null,null,self_paced,0,NA,images/stimuli/simple_17_A_a.gif,NA
NA,html-keyboard-response,14,73351,0.0-46.0-6.0-0.3,SS1651684049786,null,NA,NA,NA,NA,null,NA,NA,NA,NA,NA,NA,"<p><img src= images/blank.png width =""600"" height = ""600"" style=""position:fixed;top:50%; left:50%; transform: translate(-50%, -50%); border:5px solid black"">",NA,NA
NA,stimuli-presentation,15,78832,0.0-46.0-6.0-1.3,SS1651684049786,4977,NA,NA,trial,NA,40,500,5477,null,null,self_paced,0,NA,images/stimuli/complex_10_A_a.gif,NA
NA,html-keyboard-response,16,79694,0.0-46.0-6.0-0.4,SS1651684049786,null,NA,NA,NA,NA,null,NA,NA,NA,NA,NA,NA,"<p><img src= images/blank.png width =""600"" height = ""600"" style=""position:fixed;top:50%; left:50%; transform: translate(-50%, -50%); border:5px solid black"">",NA,NA
NA,stimuli-presentation,17,85812,0.0-46.0-6.0-1.4,SS1651684049786,5613,NA,NA,trial,NA,40,500,6113,null,null,self_paced,0,NA,images/stimuli/simple_06_A_a.gif,NA
NA,html-keyboard-response,18,86788,0.0-46.0-6.0-0.5,SS1651684049786,null,NA,NA,NA,NA,null,NA,NA,NA,NA,NA,NA,"<p><img src= images/blank.png width =""600"" height = ""600"" style=""position:fixed;top:50%; left:50%; transform: translate(-50%, -50%); border:5px solid black"">",NA,NA
NA,stimuli-presentation,19,94001,0.0-46.0-6.0-1.5,SS1651684049786,6706,NA,NA,trial,NA,40,500,7206,null,null,self_paced,0,NA,images/stimuli/complex_03_A_a.gif,NA
NA,html-keyboard-response,20,95221,0.0-46.0-6.0-0.6,SS1651684049786,null,NA,NA,NA,NA,null,NA,NA,NA,NA,NA,NA,"<p><img src= images/blank.png width =""600"" height = ""600"" style=""position:fixed;top:50%; left:50%; transform: translate(-50%, -50%); border:5px solid black"">",NA,NA
NA,stimuli-presentation,21,97236,0.0-46.0-6.0-1.6,SS1651684049786,1509,NA,NA,trial,NA,40,500,2009,null,null,self_paced,0,NA,images/stimuli/simple_03_A_a.gif,NA
NA,html-keyboard-response,22,98415,0.0-46.0-6.0-0.7,SS1651684049786,null,NA,NA,NA,NA,null,NA,NA,NA,NA,NA,NA,"<p><img src= images/blank.png width =""600"" height = ""600"" style=""position:fixed;top:50%; left:50%; transform: translate(-50%, -50%); border:5px solid black"">",NA,NA
NA,stimuli-presentation,23,102441,0.0-46.0-6.0-1.7,SS1651684049786,3520,NA,NA,trial,NA,40,500,4020,null,null,self_paced,0,NA,images/stimuli/simple_01_A_a.gif,NA
NA,html-keyboard-response,24,103678,0.0-46.0-6.0-0.8,SS1651684049786,null,NA,NA,NA,NA,null,NA,NA,NA,NA,NA,NA,"<p><img src= images/blank.png width =""600"" height = ""600"" style=""position:fixed;top:50%; left:50%; transform: translate(-50%, -50%); border:5px solid black"">",NA,NA
NA,stimuli-presentation,25,108160,0.0-46.0-6.0-1.8,SS1651684049786,3977,NA,NA,trial,NA,40,500,4477,null,null,self_paced,0,NA,images/stimuli/simple_12_A_a.gif,NA
NA,html-keyboard-response,26,109352,0.0-46.0-6.0-0.9,SS1651684049786,null,NA,NA,NA,NA,null,NA,NA,NA,NA,NA,NA,"<p><img src= images/blank.png width =""600"" height = ""600"" style=""position:fixed;top:50%; left:50%; transform: translate(-50%, -50%); border:5px solid black"">",NA,NA
NA,stimuli-presentation,27,117091,0.0-46.0-6.0-1.9,SS1651684049786,7232,NA,NA,trial,NA,40,500,7732,null,null,self_paced,0,NA,images/stimuli/complex_15_A_a.gif,NA
NA,html-keyboard-response,28,118377,0.0-46.0-6.0-0.10,SS1651684049786,null,NA,NA,NA,NA,null,NA,NA,NA,NA,NA,NA,"<p><img src= images/blank.png width =""600"" height = ""600"" style=""position:fixed;top:50%; left:50%; transform: translate(-50%, -50%); border:5px solid black"">",NA,NA
NA,stimuli-presentation,29,126937,0.0-46.0-6.0-1.10,SS1651684049786,8054,NA,NA,trial,NA,40,500,8554,null,null,self_paced,0,NA,images/stimuli/complex_13_A_a.gif,NA
NA,html-keyboard-response,30,127892,0.0-46.0-6.0-0.11,SS1651684049786,null,NA,NA,NA,NA,null,NA,NA,NA,NA,NA,NA,"<p><img src= images/blank.png width =""600"" height = ""600"" style=""position:fixed;top:50%; left:50%; transform: translate(-50%, -50%); border:5px solid black"">",NA,NA
NA,stimuli-presentation,31,136487,0.0-46.0-6.0-1.11,SS1651684049786,8089,NA,NA,trial,NA,40,500,8589,null,null,self_paced,0,NA,images/stimuli/complex_22_A_a.gif,NA
NA,html-keyboard-response,32,137487,0.0-46.0-6.0-0.12,SS1651684049786,null,NA,NA,NA,NA,null,NA,NA,NA,NA,NA,NA,"<p><img src= images/blank.png width =""600"" height = ""600"" style=""position:fixed;top:50%; left:50%; transform: translate(-50%, -50%); border:5px solid black"">",NA,NA
NA,stimuli-presentation,33,144329,0.0-46.0-6.0-1.12,SS1651684049786,6337,NA,NA,trial,NA,40,500,6837,null,null,self_paced,0,NA,images/stimuli/complex_07_A_a.gif,NA
NA,html-keyboard-response,34,145574,0.0-46.0-6.0-0.13,SS1651684049786,null,NA,NA,NA,NA,null,NA,NA,NA,NA,NA,NA,"<p><img src= images/blank.png width =""600"" height = ""600"" style=""position:fixed;top:50%; left:50%; transform: translate(-50%, -50%); border:5px solid black"">",NA,NA
NA,stimuli-presentation,35,152292,0.0-46.0-6.0-1.13,SS1651684049786,6213,NA,NA,trial,NA,40,500,6713,null,null,self_paced,0,NA,images/stimuli/complex_09_A_a.gif,NA
NA,html-keyboard-response,36,153122,0.0-46.0-6.0-0.14,SS1651684049786,null,NA,NA,NA,NA,null,NA,NA,NA,NA,NA,NA,"<p><img src= images/blank.png width =""600"" height = ""600"" style=""position:fixed;top:50%; left:50%; transform: translate(-50%, -50%); border:5px solid black"">",NA,NA
NA,stimuli-presentation,37,159113,0.0-46.0-6.0-1.14,SS1651684049786,5486,NA,NA,trial,NA,40,500,5986,null,null,self_paced,0,NA,images/stimuli/complex_19_A_a.gif,NA
NA,html-keyboard-response,38,160255,0.0-46.0-6.0-0.15,SS1651684049786,null,NA,NA,NA,NA,null,NA,NA,NA,NA,NA,NA,"<p><img src= images/blank.png width =""600"" height = ""600"" style=""position:fixed;top:50%; left:50%; transform: translate(-50%, -50%); border:5px solid black"">",NA,NA
NA,stimuli-presentation,39,162244,0.0-46.0-6.0-1.15,SS1651684049786,1483,NA,NA,trial,NA,40,500,1983,null,null,self_paced,0,NA,images/stimuli/simple_19_A_a.gif,NA
NA,html-keyboard-response,40,163397,0.0-46.0-6.0-0.16,SS1651684049786,null,NA,NA,NA,NA,null,NA,NA,NA,NA,NA,NA,"<p><img src= images/blank.png width =""600"" height = ""600"" style=""position:fixed;top:50%; left:50%; transform: translate(-50%, -50%); border:5px solid black"">",NA,NA
NA,stimuli-presentation,41,166713,0.0-46.0-6.0-1.16,SS1651684049786,2811,NA,NA,trial,NA,40,500,3311,null,null,self_paced,0,NA,images/stimuli/simple_18_A_a.gif,NA
NA,html-keyboard-response,42,167996,0.0-46.0-6.0-0.17,SS1651684049786,null,NA,NA,NA,NA,null,NA,NA,NA,NA,NA,NA,"<p><img src= images/blank.png width =""600"" height = ""600"" style=""position:fixed;top:50%; left:50%; transform: translate(-50%, -50%); border:5px solid black"">",NA,NA
NA,stimuli-presentation,43,173402,0.0-46.0-6.0-1.17,SS1651684049786,4900,NA,NA,trial,NA,40,500,5400,null,null,self_paced,0,NA,images/stimuli/complex_17_A_a.gif,NA
NA,html-keyboard-response,44,174564,0.0-46.0-6.0-0.18,SS1651684049786,null,NA,NA,NA,NA,null,NA,NA,NA,NA,NA,NA,"<p><img src= images/blank.png width =""600"" height = ""600"" style=""position:fixed;top:50%; left:50%; transform: translate(-50%, -50%); border:5px solid black"">",NA,NA
NA,stimuli-presentation,45,178356,0.0-46.0-6.0-1.18,SS1651684049786,3287,NA,NA,trial,NA,40,500,3787,null,null,self_paced,0,NA,images/stimuli/simple_04_A_a.gif,NA
NA,html-keyboard-response,46,179246,0.0-46.0-6.0-0.19,SS1651684049786,null,NA,NA,NA,NA,null,NA,NA,NA,NA,NA,NA,"<p><img src= images/blank.png width =""600"" height = ""600"" style=""position:fixed;top:50%; left:50%; transform: translate(-50%, -50%); border:5px solid black"">",NA,NA
NA,stimuli-presentation,47,183852,0.0-46.0-6.0-1.19,SS1651684049786,4100.000000000029,NA,NA,trial,NA,40,500,4600.000000000029,null,null,self_paced,0,NA,images/stimuli/simple_07_A_a.gif,NA
NA,instructions,48,186993,0.0-46.0-7.0,SS1651684049786,3137,NA,"[{""page_index"":0,""viewing_time"":3137}]",instructions,NA,NA,NA,NA,NA,NA,NA,NA,NA,NA,NA
NA,survey-likert,49,192708,0.0-46.0-8.0-0.0,SS1651684049786,5710,"{""Q0"":5}",NA,NA,NA,NA,NA,NA,NA,NA,NA,NA,images/stimuli/complex_09_A_a.gif,NA,[0]
NA,survey-likert,50,196201,0.0-46.0-8.0-0.1,SS1651684049786,3487,"{""Q0"":5}",NA,NA,NA,NA,NA,NA,NA,NA,NA,NA,images/stimuli/complex_06_A_a.gif,NA,[0]
NA,survey-likert,51,198603,0.0-46.0-8.0-0.2,SS1651684049786,2397,"{""Q0"":5}",NA,NA,NA,NA,NA,NA,NA,NA,NA,NA,images/stimuli/complex_03_A_a.gif,NA,[0]
NA,survey-likert,52,201159,0.0-46.0-8.0-0.3,SS1651684049786,2550.999999999971,"{""Q0"":5}",NA,NA,NA,NA,NA,NA,NA,NA,NA,NA,images/stimuli/complex_15_A_a.gif,NA,[0]
NA,survey-likert,53,204018,0.0-46.0-8.0-0.4,SS1651684049786,2853,"{""Q0"":5}",NA,NA,NA,NA,NA,NA,NA,NA,NA,NA,images/stimuli/complex_19_A_a.gif,NA,[0]
NA,survey-likert,54,206791,0.0-46.0-8.0-0.5,SS1651684049786,2767,"{""Q0"":5}",NA,NA,NA,NA,NA,NA,NA,NA,NA,NA,images/stimuli/simple_07_A_a.gif,NA,[0]
NA,survey-likert,55,209016,0.0-46.0-8.0-0.6,SS1651684049786,2220,"{""Q0"":5}",NA,NA,NA,NA,NA,NA,NA,NA,NA,NA,images/stimuli/simple_04_A_a.gif,NA,[0]
NA,survey-likert,56,212878,0.0-46.0-8.0-0.7,SS1651684049786,3856,"{""Q0"":3}",NA,NA,NA,NA,NA,NA,NA,NA,NA,NA,images/stimuli/simple_18_A_a.gif,NA,[0]
NA,survey-likert,57,217541,0.0-46.0-8.0-0.8,SS1651684049786,4657,"{""Q0"":3}",NA,NA,NA,NA,NA,NA,NA,NA,NA,NA,images/stimuli/complex_10_A_a.gif,NA,[0]
NA,survey-likert,58,220784,0.0-46.0-8.0-0.9,SS1651684049786,3238,"{""Q0"":3}",NA,NA,NA,NA,NA,NA,NA,NA,NA,NA,images/stimuli/simple_17_A_a.gif,NA,[0]
NA,survey-likert,59,227432,0.0-46.0-8.0-0.10,SS1651684049786,6642,"{""Q0"":1}",NA,NA,NA,NA,NA,NA,NA,NA,NA,NA,images/stimuli/complex_22_A_a.gif,NA,[0]
NA,survey-likert,60,230621,0.0-46.0-8.0-0.11,SS1651684049786,3180,"{""Q0"":1}",NA,NA,NA,NA,NA,NA,NA,NA,NA,NA,images/stimuli/simple_03_A_a.gif,NA,[0]
NA,survey-likert,61,233521,0.0-46.0-8.0-0.12,SS1651684049786,2895,"{""Q0"":1}",NA,NA,NA,NA,NA,NA,NA,NA,NA,NA,images/stimuli/simple_19_A_a.gif,NA,[0]
NA,survey-likert,62,235925,0.0-46.0-8.0-0.13,SS1651684049786,2397.000000000029,"{""Q0"":5}",NA,NA,NA,NA,NA,NA,NA,NA,NA,NA,images/stimuli/simple_12_A_a.gif,NA,[0]
NA,survey-likert,63,238865,0.0-46.0-8.0-0.14,SS1651684049786,2933.999999999971,"{""Q0"":5}",NA,NA,NA,NA,NA,NA,NA,NA,NA,NA,images/stimuli/complex_17_A_a.gif,NA,[0]
NA,survey-likert,64,241603,0.0-46.0-8.0-0.15,SS1651684049786,2732,"{""Q0"":5}",NA,NA,NA,NA,NA,NA,NA,NA,NA,NA,images/stimuli/simple_09_A_a.gif,NA,[0]
NA,survey-likert,65,245049,0.0-46.0-8.0-0.16,SS1651684049786,3441.000000000029,"{""Q0"":1}",NA,NA,NA,NA,NA,NA,NA,NA,NA,NA,images/stimuli/simple_06_A_a.gif,NA,[0]
NA,survey-likert,66,247771,0.0-46.0-8.0-0.17,SS1651684049786,2716.000000000029,"{""Q0"":5}",NA,NA,NA,NA,NA,NA,NA,NA,NA,NA,images/stimuli/complex_07_A_a.gif,NA,[0]
NA,survey-likert,67,251121,0.0-46.0-8.0-0.18,SS1651684049786,3342,"{""Q0"":4}",NA,NA,NA,NA,NA,NA,NA,NA,NA,NA,images/stimuli/simple_01_A_a.gif,NA,[0]
NA,survey-likert,68,253667,0.0-46.0-8.0-0.19,SS1651684049786,2540.000000000029,"{""Q0"":5}",NA,NA,NA,NA,NA,NA,NA,NA,NA,NA,images/stimuli/complex_13_A_a.gif,NA,[0]
NA,survey-text,69,283047,0.0-46.0-9.0,SS1651684049786,29362.99999999997,"{""Q0"":""not laggy. Internal organ creatures were a little off putting.""}",NA,feedback,NA,NA,NA,NA,NA,NA,NA,NA,NA,NA,NA
TRUE,fullscreen,70,284052,0.0-46.0-10.0,SS1651684049786,NA,NA,NA,NA,NA,NA,NA,NA,NA,NA,NA,NA,NA,NA,NA
NA,instructions,71,285856,0.0-46.0-11.0,SS1651684049786,1800,NA,"[{""page_index"":0,""viewing_time"":1800}]",instructions,NA,NA,NA,NA,NA,NA,NA,NA,NA,NA,NA
TRUE,fullscreen,0,27515,0.0-0.0,SS1651684634605,NA,NA,NA,NA,NA,NA,NA,NA,NA,NA,NA,NA,NA,NA,NA
NA,survey-text,1,36398,0.0-1.0,SS1651684634605,8876.59999999404,"{""p_id"":""612687b5900550f2ada43cf2""}",NA,NA,NA,NA,NA,NA,NA,NA,NA,NA,NA,NA,NA
NA,instructions,2,69526,0.0-42.0-0.0,SS1651684634605,33124.09999999404,NA,"[{""page_index"":0,""viewing_time"":33123.40000000596}]",NA,NA,NA,NA,NA,NA,NA,NA,NA,NA,NA,NA
NA,instructions,3,110885,0.0-42.0-1.0,SS1651684634605,39345.70000001788,NA,"[{""page_index"":0,""viewing_time"":25856.70000001788},{""page_index"":1,""viewing_time"":13488.5}]",instructions,NA,NA,NA,NA,NA,NA,NA,NA,NA,NA,NA
NA,stimuli-presentation,4,122957,0.0-42.0-2.0,SS1651684634605,11563.40000000596,NA,NA,NA,NA,40,500,12063.40000000596,null,null,self_paced,0,NA,NA,NA
NA,stimuli-presentation,5,132604,0.0-42.0-3.0,SS1651684634605,9136.40000000596,NA,NA,NA,NA,40,500,9636.40000000596,null,null,self_paced,0,NA,NA,NA
NA,instructions,6,139229,0.0-42.0-4.0,SS1651684634605,6622.5,NA,"[{""page_index"":0,""viewing_time"":6622.199999988079}]",instructions,NA,NA,NA,NA,NA,NA,NA,NA,NA,NA,NA
NA,instructions,7,174629,0.0-42.0-5.0,SS1651684634605,35398.19999998808,NA,"[{""page_index"":0,""viewing_time"":16766.09999999404},{""page_index"":1,""viewing_time"":13047.90000000596},{""page_index"":2,""viewing_time"":3248.0999999940395},{""page_index"":3,""viewing_time"":2335.7999999821186}]",instructions,NA,NA,NA,NA,NA,NA,NA,NA,NA,NA,NA
NA,html-keyboard-response,8,175923,0.0-42.0-6.0-0.0,SS1651684634605,null,NA,NA,NA,NA,null,NA,NA,NA,NA,NA,NA,"<p><img src= images/blank.png width =""600"" height = ""600"" style=""position:fixed;top:50%; left:50%; transform: translate(-50%, -50%); border:5px solid black"">",NA,NA
NA,stimuli-presentation,9,181830,0.0-42.0-6.0-1.0,SS1651684634605,5401.800000011921,NA,NA,trial,NA,40,500,5901.800000011921,null,null,self_paced,0,NA,images/stimuli/simple_09_A_a.gif,NA
NA,html-keyboard-response,10,183022,0.0-42.0-6.0-0.1,SS1651684634605,null,NA,NA,NA,NA,null,NA,NA,NA,NA,NA,NA,"<p><img src= images/blank.png width =""600"" height = ""600"" style=""position:fixed;top:50%; left:50%; transform: translate(-50%, -50%); border:5px solid black"">",NA,NA
NA,stimuli-presentation,11,186597,0.0-42.0-6.0-1.1,SS1651684634605,3061.300000011921,NA,NA,trial,NA,40,500,3561.300000011921,null,null,self_paced,0,NA,images/stimuli/simple_17_A_a.gif,NA
NA,html-keyboard-response,12,187754,0.0-42.0-6.0-0.2,SS1651684634605,null,NA,NA,NA,NA,null,NA,NA,NA,NA,NA,NA,"<p><img src= images/blank.png width =""600"" height = ""600"" style=""position:fixed;top:50%; left:50%; transform: translate(-50%, -50%); border:5px solid black"">",NA,NA
NA,stimuli-presentation,13,191926,0.0-42.0-6.0-1.2,SS1651684634605,3660.699999988079,NA,NA,trial,NA,40,500,4160.699999988079,null,null,self_paced,0,NA,images/stimuli/complex_17_A_a.gif,NA
NA,html-keyboard-response,14,193215,0.0-42.0-6.0-0.3,SS1651684634605,null,NA,NA,NA,NA,null,NA,NA,NA,NA,NA,NA,"<p><img src= images/blank.png width =""600"" height = ""600"" style=""position:fixed;top:50%; left:50%; transform: translate(-50%, -50%); border:5px solid black"">",NA,NA
NA,stimuli-presentation,15,197693,0.0-42.0-6.0-1.3,SS1651684634605,3972.4000000059605,NA,NA,trial,NA,40,500,4472.4000000059605,null,null,self_paced,0,NA,images/stimuli/simple_07_A_a.gif,NA
NA,html-keyboard-response,16,198788,0.0-42.0-6.0-0.4,SS1651684634605,null,NA,NA,NA,NA,null,NA,NA,NA,NA,NA,NA,"<p><img src= images/blank.png width =""600"" height = ""600"" style=""position:fixed;top:50%; left:50%; transform: translate(-50%, -50%); border:5px solid black"">",NA,NA
NA,stimuli-presentation,17,205013,0.0-42.0-6.0-1.4,SS1651684634605,5720.9000000059605,NA,NA,trial,NA,40,500,6220.9000000059605,null,null,self_paced,0,NA,images/stimuli/complex_09_A_a.gif,NA
NA,html-keyboard-response,18,206131,0.0-42.0-6.0-0.5,SS1651684634605,null,NA,NA,NA,NA,null,NA,NA,NA,NA,NA,NA,"<p><img src= images/blank.png width =""600"" height = ""600"" style=""position:fixed;top:50%; left:50%; transform: translate(-50%, -50%); border:5px solid black"">",NA,NA
NA,stimuli-presentation,19,209973,0.0-42.0-6.0-1.5,SS1651684634605,3337.4000000059605,NA,NA,trial,NA,40,500,3837.400000005961,null,null,self_paced,0,NA,images/stimuli/simple_18_A_a.gif,NA
NA,html-keyboard-response,20,210811,0.0-42.0-6.0-0.6,SS1651684634605,null,NA,NA,NA,NA,null,NA,NA,NA,NA,NA,NA,"<p><img src= images/blank.png width =""600"" height = ""600"" style=""position:fixed;top:50%; left:50%; transform: translate(-50%, -50%); border:5px solid black"">",NA,NA
NA,stimuli-presentation,21,214445,0.0-42.0-6.0-1.6,SS1651684634605,3129.300000011921,NA,NA,trial,NA,40,500,3629.300000011921,null,null,self_paced,0,NA,images/stimuli/simple_19_A_a.gif,NA
NA,html-keyboard-response,22,215716,0.0-42.0-6.0-0.7,SS1651684634605,null,NA,NA,NA,NA,null,NA,NA,NA,NA,NA,NA,"<p><img src= images/blank.png width =""600"" height = ""600"" style=""position:fixed;top:50%; left:50%; transform: translate(-50%, -50%); border:5px solid black"">",NA,NA
NA,stimuli-presentation,23,221741,0.0-42.0-6.0-1.7,SS1651684634605,5521.5,NA,NA,trial,NA,40,500,6021.5,null,null,self_paced,0,NA,images/stimuli/simple_16_A_a.gif,NA
NA,html-keyboard-response,24,222719,0.0-42.0-6.0-0.8,SS1651684634605,null,NA,NA,NA,NA,null,NA,NA,NA,NA,NA,NA,"<p><img src= images/blank.png width =""600"" height = ""600"" style=""position:fixed;top:50%; left:50%; transform: translate(-50%, -50%); border:5px solid black"">",NA,NA
NA,stimuli-presentation,25,232965,0.0-42.0-6.0-1.8,SS1651684634605,9730.40000000596,NA,NA,trial,NA,40,500,10230.40000000596,null,null,self_paced,0,NA,images/stimuli/complex_19_A_a.gif,NA
NA,html-keyboard-response,26,233874,0.0-42.0-6.0-0.9,SS1651684634605,null,NA,NA,NA,NA,null,NA,NA,NA,NA,NA,NA,"<p><img src= images/blank.png width =""600"" height = ""600"" style=""position:fixed;top:50%; left:50%; transform: translate(-50%, -50%); border:5px solid black"">",NA,NA
NA,stimuli-presentation,27,241789,0.0-42.0-6.0-1.9,SS1651684634605,7409.300000011921,NA,NA,trial,NA,40,500,7909.300000011921,null,null,self_paced,0,NA,images/stimuli/complex_10_A_a.gif,NA
NA,html-keyboard-response,28,242773,0.0-42.0-6.0-0.10,SS1651684634605,null,NA,NA,NA,NA,null,NA,NA,NA,NA,NA,NA,"<p><img src= images/blank.png width =""600"" height = ""600"" style=""position:fixed;top:50%; left:50%; transform: translate(-50%, -50%); border:5px solid black"">",NA,NA
NA,stimuli-presentation,29,254245,0.0-42.0-6.0-1.10,SS1651684634605,10959.300000011921,NA,NA,trial,NA,40,500,11459.30000001192,null,null,self_paced,0,NA,images/stimuli/complex_15_A_a.gif,NA
NA,html-keyboard-response,30,255307,0.0-42.0-6.0-0.11,SS1651684634605,null,NA,NA,NA,NA,null,NA,NA,NA,NA,NA,NA,"<p><img src= images/blank.png width =""600"" height = ""600"" style=""position:fixed;top:50%; left:50%; transform: translate(-50%, -50%); border:5px solid black"">",NA,NA
NA,stimuli-presentation,31,266421,0.0-42.0-6.0-1.11,SS1651684634605,10606.40000000596,NA,NA,trial,NA,40,500,11106.40000000596,null,null,self_paced,0,NA,images/stimuli/simple_04_A_a.gif,NA
NA,html-keyboard-response,32,267385,0.0-42.0-6.0-0.12,SS1651684634605,null,NA,NA,NA,NA,null,NA,NA,NA,NA,NA,NA,"<p><img src= images/blank.png width =""600"" height = ""600"" style=""position:fixed;top:50%; left:50%; transform: translate(-50%, -50%); border:5px solid black"">",NA,NA
NA,stimuli-presentation,33,319046,0.0-42.0-6.0-1.12,SS1651684634605,51156.19999998808,NA,NA,trial,NA,40,500,51656.19999998808,null,null,self_paced,0,NA,images/stimuli/simple_03_A_a.gif,NA
NA,html-keyboard-response,34,320137,0.0-42.0-6.0-0.13,SS1651684634605,null,NA,NA,NA,NA,null,NA,NA,NA,NA,NA,NA,"<p><img src= images/blank.png width =""600"" height = ""600"" style=""position:fixed;top:50%; left:50%; transform: translate(-50%, -50%); border:5px solid black"">",NA,NA
NA,stimuli-presentation,35,323885,0.0-42.0-6.0-1.13,SS1651684634605,3243,NA,NA,trial,NA,40,500,3743,null,null,self_paced,0,NA,images/stimuli/complex_18_A_a.gif,NA
NA,html-keyboard-response,36,325112,0.0-42.0-6.0-0.14,SS1651684634605,null,NA,NA,NA,NA,null,NA,NA,NA,NA,NA,NA,"<p><img src= images/blank.png width =""600"" height = ""600"" style=""position:fixed;top:50%; left:50%; transform: translate(-50%, -50%); border:5px solid black"">",NA,NA
NA,stimuli-presentation,37,334797,0.0-42.0-6.0-1.14,SS1651684634605,9179.40000000596,NA,NA,trial,NA,40,500,9679.40000000596,null,null,self_paced,0,NA,images/stimuli/simple_01_A_a.gif,NA
NA,html-keyboard-response,38,335746,0.0-42.0-6.0-0.15,SS1651684634605,null,NA,NA,NA,NA,null,NA,NA,NA,NA,NA,NA,"<p><img src= images/blank.png width =""600"" height = ""600"" style=""position:fixed;top:50%; left:50%; transform: translate(-50%, -50%); border:5px solid black"">",NA,NA
NA,stimuli-presentation,39,340333,0.0-42.0-6.0-1.15,SS1651684634605,4070.4000000059605,NA,NA,trial,NA,40,500,4570.4000000059605,null,null,self_paced,0,NA,images/stimuli/complex_06_A_a.gif,NA
NA,html-keyboard-response,40,341451,0.0-42.0-6.0-0.16,SS1651684634605,null,NA,NA,NA,NA,null,NA,NA,NA,NA,NA,NA,"<p><img src= images/blank.png width =""600"" height = ""600"" style=""position:fixed;top:50%; left:50%; transform: translate(-50%, -50%); border:5px solid black"">",NA,NA
NA,stimuli-presentation,41,347589,0.0-42.0-6.0-1.16,SS1651684634605,5634.4000000059605,NA,NA,trial,NA,40,500,6134.4000000059605,null,null,self_paced,0,NA,images/stimuli/simple_12_A_a.gif,NA
NA,html-keyboard-response,42,348472,0.0-42.0-6.0-0.17,SS1651684634605,null,NA,NA,NA,NA,null,NA,NA,NA,NA,NA,NA,"<p><img src= images/blank.png width =""600"" height = ""600"" style=""position:fixed;top:50%; left:50%; transform: translate(-50%, -50%); border:5px solid black"">",NA,NA
NA,stimuli-presentation,43,352589,0.0-42.0-6.0-1.17,SS1651684634605,3604,NA,NA,trial,NA,40,500,4104,null,null,self_paced,0,NA,images/stimuli/complex_03_A_a.gif,NA
NA,html-keyboard-response,44,353483,0.0-42.0-6.0-0.18,SS1651684634605,null,NA,NA,NA,NA,null,NA,NA,NA,NA,NA,NA,"<p><img src= images/blank.png width =""600"" height = ""600"" style=""position:fixed;top:50%; left:50%; transform: translate(-50%, -50%); border:5px solid black"">",NA,NA
NA,stimuli-presentation,45,359613,0.0-42.0-6.0-1.18,SS1651684634605,5615.800000011921,NA,NA,trial,NA,40,500,6115.800000011921,null,null,self_paced,0,NA,images/stimuli/complex_13_A_a.gif,NA
NA,html-keyboard-response,46,360859,0.0-42.0-6.0-0.19,SS1651684634605,null,NA,NA,NA,NA,null,NA,NA,NA,NA,NA,NA,"<p><img src= images/blank.png width =""600"" height = ""600"" style=""position:fixed;top:50%; left:50%; transform: translate(-50%, -50%); border:5px solid black"">",NA,NA
NA,stimuli-presentation,47,369061,0.0-42.0-6.0-1.19,SS1651684634605,7690,NA,NA,trial,NA,40,500,8190,null,null,self_paced,0,NA,images/stimuli/complex_04_A_a.gif,NA
NA,instructions,48,377333,0.0-42.0-7.0,SS1651684634605,8269.800000011921,NA,"[{""page_index"":0,""viewing_time"":8269.40000000596}]",instructions,NA,NA,NA,NA,NA,NA,NA,NA,NA,NA,NA
NA,survey-likert,49,397246,0.0-42.0-8.0-0.0,SS1651684634605,19907.899999976158,"{""Q0"":5}",NA,NA,NA,NA,NA,NA,NA,NA,NA,NA,images/stimuli/complex_09_A_a.gif,NA,[0]
NA,survey-likert,50,403766,0.0-42.0-8.0-0.1,SS1651684634605,6514.699999988079,"{""Q0"":5}",NA,NA,NA,NA,NA,NA,NA,NA,NA,NA,images/stimuli/complex_15_A_a.gif,NA,[0]
NA,survey-likert,51,408094,0.0-42.0-8.0-0.2,SS1651684634605,4324.0999999940395,"{""Q0"":5}",NA,NA,NA,NA,NA,NA,NA,NA,NA,NA,images/stimuli/simple_17_A_a.gif,NA,[0]
NA,survey-likert,52,411134,0.0-42.0-8.0-0.3,SS1651684634605,3036,"{""Q0"":5}",NA,NA,NA,NA,NA,NA,NA,NA,NA,NA,images/stimuli/simple_12_A_a.gif,NA,[0]
NA,survey-likert,53,415398,0.0-42.0-8.0-0.4,SS1651684634605,4260.5,"{""Q0"":5}",NA,NA,NA,NA,NA,NA,NA,NA,NA,NA,images/stimuli/simple_16_A_a.gif,NA,[0]
NA,survey-likert,54,420478,0.0-42.0-8.0-0.5,SS1651684634605,5076.300000011921,"{""Q0"":5}",NA,NA,NA,NA,NA,NA,NA,NA,NA,NA,images/stimuli/complex_06_A_a.gif,NA,[0]
NA,survey-likert,55,425430,0.0-42.0-8.0-0.6,SS1651684634605,4948.199999988079,"{""Q0"":5}",NA,NA,NA,NA,NA,NA,NA,NA,NA,NA,images/stimuli/simple_18_A_a.gif,NA,[0]
NA,survey-likert,56,429166,0.0-42.0-8.0-0.7,SS1651684634605,3732.199999988079,"{""Q0"":5}",NA,NA,NA,NA,NA,NA,NA,NA,NA,NA,images/stimuli/complex_03_A_a.gif,NA,[0]
NA,survey-likert,57,432622,0.0-42.0-8.0-0.8,SS1651684634605,3452.300000011921,"{""Q0"":5}",NA,NA,NA,NA,NA,NA,NA,NA,NA,NA,images/stimuli/complex_10_A_a.gif,NA,[0]
NA,survey-likert,58,437238,0.0-42.0-8.0-0.9,SS1651684634605,4611.300000011921,"{""Q0"":4}",NA,NA,NA,NA,NA,NA,NA,NA,NA,NA,images/stimuli/complex_17_A_a.gif,NA,[0]
NA,survey-likert,59,440558,0.0-42.0-8.0-0.10,SS1651684634605,3316.5,"{""Q0"":5}",NA,NA,NA,NA,NA,NA,NA,NA,NA,NA,images/stimuli/simple_01_A_a.gif,NA,[0]
NA,survey-likert,60,444310,0.0-42.0-8.0-0.11,SS1651684634605,3748.300000011921,"{""Q0"":5}",NA,NA,NA,NA,NA,NA,NA,NA,NA,NA,images/stimuli/simple_03_A_a.gif,NA,[0]
NA,survey-likert,61,458309,0.0-42.0-8.0-0.12,SS1651684634605,13994.90000000596,"{""Q0"":4}",NA,NA,NA,NA,NA,NA,NA,NA,NA,NA,images/stimuli/simple_04_A_a.gif,NA,[0]
NA,survey-likert,62,461853,0.0-42.0-8.0-0.13,SS1651684634605,3539.800000011921,"{""Q0"":5}",NA,NA,NA,NA,NA,NA,NA,NA,NA,NA,images/stimuli/simple_19_A_a.gif,NA,[0]
NA,survey-likert,63,468485,0.0-42.0-8.0-0.14,SS1651684634605,6627.199999988079,"{""Q0"":1}",NA,NA,NA,NA,NA,NA,NA,NA,NA,NA,images/stimuli/complex_18_A_a.gif,NA,[0]
