"rt","responses","trial_type","trial_index","time_elapsed","internal_node_id","subject","success","view_history","stimulus_type","trial_stimulus","key_press","minimum_viewing_duration","trial_looking_time","block_deviant","block_background","exposure_type","forced_exposure_time","stimulus","block_number","block_type","stimulus_displayed","question_order","question_stimuli","block_index","stimulus_left","stimulus_right"
"2498.6999999284744","{""p_id"":""a""}","survey-text","0","2502","0.0-0.0","SS1630642817043","","","","","","","","","","","","","","","","","","","",""
"","","fullscreen","1","4158","0.0-1.0","SS1630642817043","true","","","","","","","","","","","","","","","","","","",""
"1489.5","","instructions","2","5649","0.0-2.0","SS1630642817043","","[{""page_index"":0,""viewing_time"":1488.8999999761581}]","","","","","","","","","","","","","","","","","",""
"2976.399999976158","","instructions","3","10631","0.0-3.0","SS1630642817043","","[{""page_index"":0,""viewing_time"":1617.1000000238419},{""page_index"":1,""viewing_time"":1358.8999999761581}]","instructions","","","","","","","","","","","","","","","","",""
"4784.899999976158","","stimuli-presentation","4","15922","0.0-4.0","SS1630642817043","","","","","40","500","5284.899999976158","null","null","self_paced","0","","","","","","","","",""
"971","","stimuli-presentation","5","17396","0.0-5.0","SS1630642817043","","","","","40","500","1471","null","null","self_paced","0","","","","","","","","",""
"1963.6999999284744","","instructions","6","19360","0.0-6.0","SS1630642817043","","[{""page_index"":0,""viewing_time"":1963.2999999523163}]","instructions","","","","","","","","","","","","","","","","",""
"6478.700000047684","","instructions","7","25841","0.0-7.0","SS1630642817043","","[{""page_index"":0,""viewing_time"":2502.5},{""page_index"":1,""viewing_time"":1871.6000000238419},{""page_index"":2,""viewing_time"":615.7999999523163},{""page_index"":3,""viewing_time"":927.5},{""page_index"":4,""viewing_time"":560.9000000953674}]","instructions","","","","","","","","","","","","","","","","",""
"null","","html-keyboard-response","8","26803","0.0-8.0-0.0","SS1630642817043","","","","","null","","","","","","","<p><img src= images/blank.png width =""600"" height = ""600"" style=""position:fixed;top:50%; left:50%; transform: translate(-50%, -50%); border:5px solid black"">","","","","","","","",""
"532","","stimuli-presentation","9","27841","0.0-8.0-1.0","SS1630642817043","","","trial","","40","500","1032","images/stimuli/complex_15_A_a.gif","images/stimuli/complex_07_A_a.gif","self_paced","260","","0","complex_dissimilar","images/stimuli/complex_07_A_a.gif","","","","",""
"null","","html-keyboard-response","10","29092","0.0-8.0-0.1","SS1630642817043","","","","","null","","","","","","","<p><img src= images/blank.png width =""600"" height = ""600"" style=""position:fixed;top:50%; left:50%; transform: translate(-50%, -50%); border:5px solid black"">","","","","","","","",""
"63.300000071525574","","stimuli-presentation","11","29659","0.0-8.0-1.1","SS1630642817043","","","trial","","40","500","563.3000000715256","images/stimuli/complex_15_A_a.gif","images/stimuli/complex_07_A_a.gif","self_paced","260","","0","complex_dissimilar","images/stimuli/complex_07_A_a.gif","","","","",""
"null","","html-keyboard-response","12","30613","0.0-8.0-0.2","SS1630642817043","","","","","null","","","","","","","<p><img src= images/blank.png width =""600"" height = ""600"" style=""position:fixed;top:50%; left:50%; transform: translate(-50%, -50%); border:5px solid black"">","","","","","","","",""
"773.5","","stimuli-presentation","13","31891","0.0-8.0-1.2","SS1630642817043","","","trial","","40","500","1273.5","images/stimuli/complex_15_A_a.gif","images/stimuli/complex_07_A_a.gif","self_paced","260","","0","complex_dissimilar","images/stimuli/complex_07_A_a.gif","","","","",""
"null","","html-keyboard-response","14","32788","0.0-8.0-0.3","SS1630642817043","","","","","null","","","","","","","<p><img src= images/blank.png width =""600"" height = ""600"" style=""position:fixed;top:50%; left:50%; transform: translate(-50%, -50%); border:5px solid black"">","","","","","","","",""
"254.39999997615814","","stimuli-presentation","15","33547","0.0-8.0-1.3","SS1630642817043","","","trial","","40","500","754.3999999761581","images/stimuli/complex_15_A_a.gif","images/stimuli/complex_07_A_a.gif","self_paced","260","","0","complex_dissimilar","images/stimuli/complex_07_A_a.gif","","","","",""
"null","","html-keyboard-response","16","34592","0.0-8.0-0.4","SS1630642817043","","","","","null","","","","","","","<p><img src= images/blank.png width =""600"" height = ""600"" style=""position:fixed;top:50%; left:50%; transform: translate(-50%, -50%); border:5px solid black"">","","","","","","","",""
"31.200000047683716","","stimuli-presentation","17","35131","0.0-8.0-1.4","SS1630642817043","","","trial","","40","500","531.2000000476837","images/stimuli/complex_15_A_a.gif","images/stimuli/complex_07_A_a.gif","self_paced","260","","0","complex_dissimilar","images/stimuli/complex_07_A_a.gif","","","","",""
"null","","html-keyboard-response","18","36369","0.0-8.0-0.5","SS1630642817043","","","","","null","","","","","","","<p><img src= images/blank.png width =""600"" height = ""600"" style=""position:fixed;top:50%; left:50%; transform: translate(-50%, -50%); border:5px solid black"">","","","","","","","",""
"167.70000004768372","","stimuli-presentation","19","37041","0.0-8.0-1.5","SS1630642817043","","","trial","","40","500","667.7000000476837","images/stimuli/complex_15_A_a.gif","images/stimuli/complex_07_A_a.gif","self_paced","260","","0","complex_dissimilar","images/stimuli/complex_15_A_a.gif","","","","",""
"3883.8000000715256","{""Q0"":3}","survey-likert","20","40927","0.0-9.0","SS1630642817043","","","curiousity","","","","","","","","","","","","","[0]","images/stimuli/complex_07_A_a.gif","0","",""
"null","","html-keyboard-response","21","42000","0.0-10.0-0.0","SS1630642817043","","","","","null","","","","","","","<p><img src= images/blank.png width =""600"" height = ""600"" style=""position:fixed;top:50%; left:50%; transform: translate(-50%, -50%); border:5px solid black"">","","","","","","","",""
"137.30000007152557","","stimuli-presentation","22","42646","0.0-10.0-1.0","SS1630642817043","","","trial","","40","500","637.3000000715256","images/stimuli/simple_02_A_a.gif","images/stimuli/simple_06_A_a.gif","self_paced","180","","1","simple_dissimilar","images/stimuli/simple_06_A_a.gif","","","","",""
"null","","html-keyboard-response","23","43910","0.0-10.0-0.1","SS1630642817043","","","","","null","","","","","","","<p><img src= images/blank.png width =""600"" height = ""600"" style=""position:fixed;top:50%; left:50%; transform: translate(-50%, -50%); border:5px solid black"">","","","","","","","",""
"150.20000004768372","","stimuli-presentation","24","44568","0.0-10.0-1.1","SS1630642817043","","","trial","","40","500","650.2000000476837","images/stimuli/simple_02_A_a.gif","images/stimuli/simple_06_A_a.gif","self_paced","180","","1","simple_dissimilar","images/stimuli/simple_06_A_a.gif","","","","",""
"null","","html-keyboard-response","25","45692","0.0-10.0-0.2","SS1630642817043","","","","","null","","","","","","","<p><img src= images/blank.png width =""600"" height = ""600"" style=""position:fixed;top:50%; left:50%; transform: translate(-50%, -50%); border:5px solid black"">","","","","","","","",""
"41694","","stimuli-presentation","26","87891","0.0-10.0-1.2","SS1630642817043","","","trial","","40","500","42194","images/stimuli/simple_02_A_a.gif","images/stimuli/simple_06_A_a.gif","self_paced","180","","1","simple_dissimilar","images/stimuli/simple_06_A_a.gif","","","","",""
"null","","html-keyboard-response","27","88993","0.0-10.0-0.3","SS1630642817043","","","","","null","","","","","","","<p><img src= images/blank.png width =""600"" height = ""600"" style=""position:fixed;top:50%; left:50%; transform: translate(-50%, -50%); border:5px solid black"">","","","","","","","",""
"287.5","","stimuli-presentation","28","89787","0.0-10.0-1.3","SS1630642817043","","","trial","","40","500","787.5","images/stimuli/simple_02_A_a.gif","images/stimuli/simple_06_A_a.gif","self_paced","180","","1","simple_dissimilar","images/stimuli/simple_06_A_a.gif","","","","",""
"null","","html-keyboard-response","29","90873","0.0-10.0-0.4","SS1630642817043","","","","","null","","","","","","","<p><img src= images/blank.png width =""600"" height = ""600"" style=""position:fixed;top:50%; left:50%; transform: translate(-50%, -50%); border:5px solid black"">","","","","","","","",""
"319.7999999523163","","stimuli-presentation","30","91700","0.0-10.0-1.4","SS1630642817043","","","trial","","40","500","819.7999999523163","images/stimuli/simple_02_A_a.gif","images/stimuli/simple_06_A_a.gif","self_paced","180","","1","simple_dissimilar","images/stimuli/simple_06_A_a.gif","","","","",""
"null","","html-keyboard-response","31","92744","0.0-10.0-0.5","SS1630642817043","","","","","null","","","","","","","<p><img src= images/blank.png width =""600"" height = ""600"" style=""position:fixed;top:50%; left:50%; transform: translate(-50%, -50%); border:5px solid black"">","","","","","","","",""
"1215.5","","stimuli-presentation","32","94467","0.0-10.0-1.5","SS1630642817043","","","trial","","40","500","1715.5","images/stimuli/simple_02_A_a.gif","images/stimuli/simple_06_A_a.gif","self_paced","180","","1","simple_dissimilar","images/stimuli/simple_06_A_a.gif","","","","",""
"3412.5","{""Q0"":1}","survey-likert","33","97882","0.0-11.0","SS1630642817043","","","curiousity","","","","","","","","","","","","","[0]","images/stimuli/simple_06_A_a.gif","1","",""
"null","","html-keyboard-response","34","98782","0.0-12.0-0.0","SS1630642817043","","","","","null","","","","","","","<p><img src= images/blank.png width =""600"" height = ""600"" style=""position:fixed;top:50%; left:50%; transform: translate(-50%, -50%); border:5px solid black"">","","","","","","","",""
"2.5","","stimuli-presentation","35","99289","0.0-12.0-1.0","SS1630642817043","","","trial","","40","500","502.5","images/stimuli/complex_14_A_a.gif","images/stimuli/complex_12_A_a.gif","self_paced","230","","2","complex_dissimilar","images/stimuli/complex_12_A_a.gif","","","","",""
"null","","html-keyboard-response","36","100135","0.0-12.0-0.1","SS1630642817043","","","","","null","","","","","","","<p><img src= images/blank.png width =""600"" height = ""600"" style=""position:fixed;top:50%; left:50%; transform: translate(-50%, -50%); border:5px solid black"">","","","","","","","",""
"153.39999997615814","","stimuli-presentation","37","100797","0.0-12.0-1.1","SS1630642817043","","","trial","","40","500","653.3999999761581","images/stimuli/complex_14_A_a.gif","images/stimuli/complex_12_A_a.gif","self_paced","230","","2","complex_dissimilar","images/stimuli/complex_12_A_a.gif","","","","",""
"null","","html-keyboard-response","38","102088","0.0-12.0-0.2","SS1630642817043","","","","","null","","","","","","","<p><img src= images/blank.png width =""600"" height = ""600"" style=""position:fixed;top:50%; left:50%; transform: translate(-50%, -50%); border:5px solid black"">","","","","","","","",""
"525.1000000238419","","stimuli-presentation","39","103121","0.0-12.0-1.2","SS1630642817043","","","trial","","40","500","1025.1000000238419","images/stimuli/complex_14_A_a.gif","images/stimuli/complex_12_A_a.gif","self_paced","230","","2","complex_dissimilar","images/stimuli/complex_12_A_a.gif","","","","",""
"null","","html-keyboard-response","40","103941","0.0-12.0-0.3","SS1630642817043","","","","","null","","","","","","","<p><img src= images/blank.png width =""600"" height = ""600"" style=""position:fixed;top:50%; left:50%; transform: translate(-50%, -50%); border:5px solid black"">","","","","","","","",""
"255.5","","stimuli-presentation","41","104701","0.0-12.0-1.3","SS1630642817043","","","trial","","40","500","755.5","images/stimuli/complex_14_A_a.gif","images/stimuli/complex_12_A_a.gif","self_paced","230","","2","complex_dissimilar","images/stimuli/complex_12_A_a.gif","","","","",""
"null","","html-keyboard-response","42","105904","0.0-12.0-0.4","SS1630642817043","","","","","null","","","","","","","<p><img src= images/blank.png width =""600"" height = ""600"" style=""position:fixed;top:50%; left:50%; transform: translate(-50%, -50%); border:5px solid black"">","","","","","","","",""
"96.69999992847443","","stimuli-presentation","43","106506","0.0-12.0-1.4","SS1630642817043","","","trial","","40","500","596.6999999284744","images/stimuli/complex_14_A_a.gif","images/stimuli/complex_12_A_a.gif","self_paced","230","","2","complex_dissimilar","images/stimuli/complex_12_A_a.gif","","","","",""
"null","","html-keyboard-response","44","107811","0.0-12.0-0.5","SS1630642817043","","","","","null","","","","","","","<p><img src= images/blank.png width =""600"" height = ""600"" style=""position:fixed;top:50%; left:50%; transform: translate(-50%, -50%); border:5px solid black"">","","","","","","","",""
"394","","stimuli-presentation","45","108712","0.0-12.0-1.5","SS1630642817043","","","trial","","40","500","894","images/stimuli/complex_14_A_a.gif","images/stimuli/complex_12_A_a.gif","self_paced","230","","2","complex_dissimilar","images/stimuli/complex_12_A_a.gif","","","","",""
"2639.7999999523163","{""Q0"":4}","survey-likert","46","111354","0.0-13.0","SS1630642817043","","","curiousity","","","","","","","","","","","","","[0]","images/stimuli/complex_10_A_a.gif","2","",""
"null","","html-keyboard-response","47","112190","0.0-14.0-0.0","SS1630642817043","","","","","null","","","","","","","<p><img src= images/blank.png width =""600"" height = ""600"" style=""position:fixed;top:50%; left:50%; transform: translate(-50%, -50%); border:5px solid black"">","","","","","","","",""
"126.29999995231628","","stimuli-presentation","48","112821","0.0-14.0-1.0","SS1630642817043","","","trial","","40","500","626.2999999523163","images/stimuli/simple_01_A_a.gif","images/stimuli/simple_04_A_a.gif","self_paced","310","","3","simple_dissimilar","images/stimuli/simple_04_A_a.gif","","","","",""
"null","","html-keyboard-response","49","113638","0.0-14.0-0.1","SS1630642817043","","","","","null","","","","","","","<p><img src= images/blank.png width =""600"" height = ""600"" style=""position:fixed;top:50%; left:50%; transform: translate(-50%, -50%); border:5px solid black"">","","","","","","","",""
"243.19999992847443","","stimuli-presentation","50","114386","0.0-14.0-1.1","SS1630642817043","","","trial","","40","500","743.1999999284744","images/stimuli/simple_01_A_a.gif","images/stimuli/simple_04_A_a.gif","self_paced","310","","3","simple_dissimilar","images/stimuli/simple_04_A_a.gif","","","","",""
"null","","html-keyboard-response","51","115673","0.0-14.0-0.2","SS1630642817043","","","","","null","","","","","","","<p><img src= images/blank.png width =""600"" height = ""600"" style=""position:fixed;top:50%; left:50%; transform: translate(-50%, -50%); border:5px solid black"">","","","","","","","",""
"172.20000004768372","","stimuli-presentation","52","116350","0.0-14.0-1.2","SS1630642817043","","","trial","","40","500","672.2000000476837","images/stimuli/simple_01_A_a.gif","images/stimuli/simple_04_A_a.gif","self_paced","310","","3","simple_dissimilar","images/stimuli/simple_04_A_a.gif","","","","",""
"null","","html-keyboard-response","53","117315","0.0-14.0-0.3","SS1630642817043","","","","","null","","","","","","","<p><img src= images/blank.png width =""600"" height = ""600"" style=""position:fixed;top:50%; left:50%; transform: translate(-50%, -50%); border:5px solid black"">","","","","","","","",""
"114.19999992847443","","stimuli-presentation","54","117937","0.0-14.0-1.3","SS1630642817043","","","trial","","40","500","614.1999999284744","images/stimuli/simple_01_A_a.gif","images/stimuli/simple_04_A_a.gif","self_paced","310","","3","simple_dissimilar","images/stimuli/simple_04_A_a.gif","","","","",""
"null","","html-keyboard-response","55","119230","0.0-14.0-0.4","SS1630642817043","","","","","null","","","","","","","<p><img src= images/blank.png width =""600"" height = ""600"" style=""position:fixed;top:50%; left:50%; transform: translate(-50%, -50%); border:5px solid black"">","","","","","","","",""
"658.6000000238419","","stimuli-presentation","56","120394","0.0-14.0-1.4","SS1630642817043","","","trial","","40","500","1158.6000000238419","images/stimuli/simple_01_A_a.gif","images/stimuli/simple_04_A_a.gif","self_paced","310","","3","simple_dissimilar","images/stimuli/simple_04_A_a.gif","","","","",""
"null","","html-keyboard-response","57","121293","0.0-14.0-0.5","SS1630642817043","","","","","null","","","","","","","<p><img src= images/blank.png width =""600"" height = ""600"" style=""position:fixed;top:50%; left:50%; transform: translate(-50%, -50%); border:5px solid black"">","","","","","","","",""
"246.39999997615814","","stimuli-presentation","58","122045","0.0-14.0-1.5","SS1630642817043","","","trial","","40","500","746.3999999761581","images/stimuli/simple_01_A_a.gif","images/stimuli/simple_04_A_a.gif","self_paced","310","","3","simple_dissimilar","images/stimuli/simple_01_A_a.gif","","","","",""
"3178.399999976158","{""Q0"":4}","survey-likert","59","125226","0.0-15.0","SS1630642817043","","","curiousity","","","","","","","","","","","","","[0]","images/stimuli/simple_04_A_a.gif","3","",""
"null","","html-keyboard-response","60","126478","0.0-16.0-0.0","SS1630642817043","","","","","null","","","","","","","<p><img src= images/blank.png width =""600"" height = ""600"" style=""position:fixed;top:50%; left:50%; transform: translate(-50%, -50%); border:5px solid black"">","","","","","","","",""
"1517.7999999523163","","stimuli-presentation","61","128501","0.0-16.0-1.0","SS1630642817043","","","trial","","40","500","2017.7999999523163","images/stimuli/simple_10_A_a.gif","images/stimuli/simple_14_A_a.gif","self_paced","550","","4","simple_dissimilar","images/stimuli/simple_14_A_a.gif","","","","",""
"null","","html-keyboard-response","62","129555","0.0-16.0-0.1","SS1630642817043","","","","","null","","","","","","","<p><img src= images/blank.png width =""600"" height = ""600"" style=""position:fixed;top:50%; left:50%; transform: translate(-50%, -50%); border:5px solid black"">","","","","","","","",""
"487","","stimuli-presentation","63","130549","0.0-16.0-1.1","SS1630642817043","","","trial","","40","500","987","images/stimuli/simple_10_A_a.gif","images/stimuli/simple_14_A_a.gif","self_paced","550","","4","simple_dissimilar","images/stimuli/simple_10_A_a.gif","","","","",""
"null","","html-keyboard-response","64","131766","0.0-16.0-0.2","SS1630642817043","","","","","null","","","","","","","<p><img src= images/blank.png width =""600"" height = ""600"" style=""position:fixed;top:50%; left:50%; transform: translate(-50%, -50%); border:5px solid black"">","","","","","","","",""
"74.39999997615814","","stimuli-presentation","65","132346","0.0-16.0-1.2","SS1630642817043","","","trial","","40","500","574.3999999761581","images/stimuli/simple_10_A_a.gif","images/stimuli/simple_14_A_a.gif","self_paced","550","","4","simple_dissimilar","images/stimuli/simple_14_A_a.gif","","","","",""
"null","","html-keyboard-response","66","133407","0.0-16.0-0.3","SS1630642817043","","","","","null","","","","","","","<p><img src= images/blank.png width =""600"" height = ""600"" style=""position:fixed;top:50%; left:50%; transform: translate(-50%, -50%); border:5px solid black"">","","","","","","","",""
"903.3999999761581","","stimuli-presentation","67","134820","0.0-16.0-1.3","SS1630642817043","","","trial","","40","500","1403.3999999761581","images/stimuli/simple_10_A_a.gif","images/stimuli/simple_14_A_a.gif","self_paced","550","","4","simple_dissimilar","images/stimuli/simple_14_A_a.gif","","","","",""
"null","","html-keyboard-response","68","136026","0.0-16.0-0.4","SS1630642817043","","","","","null","","","","","","","<p><img src= images/blank.png width =""600"" height = ""600"" style=""position:fixed;top:50%; left:50%; transform: translate(-50%, -50%); border:5px solid black"">","","","","","","","",""
"188.39999997615814","","stimuli-presentation","69","136721","0.0-16.0-1.4","SS1630642817043","","","trial","","40","500","688.3999999761581","images/stimuli/simple_10_A_a.gif","images/stimuli/simple_14_A_a.gif","self_paced","550","","4","simple_dissimilar","images/stimuli/simple_14_A_a.gif","","","","",""
"null","","html-keyboard-response","70","137877","0.0-16.0-0.5","SS1630642817043","","","","","null","","","","","","","<p><img src= images/blank.png width =""600"" height = ""600"" style=""position:fixed;top:50%; left:50%; transform: translate(-50%, -50%); border:5px solid black"">","","","","","","","",""
"123.80000007152557","","stimuli-presentation","71","138507","0.0-16.0-1.5","SS1630642817043","","","trial","","40","500","623.8000000715256","images/stimuli/simple_10_A_a.gif","images/stimuli/simple_14_A_a.gif","self_paced","550","","4","simple_dissimilar","images/stimuli/simple_14_A_a.gif","","","","",""
"3317.399999976158","{""Q0"":1}","survey-likert","72","141828","0.0-17.0","SS1630642817043","","","curiousity","","","","","","","","","","","","","[0]","images/stimuli/simple_20_A_a.gif","4","",""
"null","","html-keyboard-response","73","143118","0.0-18.0-0.0","SS1630642817043","","","","","null","","","","","","","<p><img src= images/blank.png width =""600"" height = ""600"" style=""position:fixed;top:50%; left:50%; transform: translate(-50%, -50%); border:5px solid black"">","","","","","","","",""
"879.2000000476837","","stimuli-presentation","74","144504","0.0-18.0-1.0","SS1630642817043","","","trial","","40","500","1379.2000000476837","images/stimuli/complex_05_A_a.gif","images/stimuli/complex_03_A_a.gif","self_paced","870","","5","complex_dissimilar","images/stimuli/complex_03_A_a.gif","","","","",""
"null","","html-keyboard-response","75","145776","0.0-18.0-0.1","SS1630642817043","","","","","null","","","","","","","<p><img src= images/blank.png width =""600"" height = ""600"" style=""position:fixed;top:50%; left:50%; transform: translate(-50%, -50%); border:5px solid black"">","","","","","","","",""
"434.10000002384186","","stimuli-presentation","76","146715","0.0-18.0-1.1","SS1630642817043","","","trial","","40","500","934.1000000238419","images/stimuli/complex_05_A_a.gif","images/stimuli/complex_03_A_a.gif","self_paced","870","","5","complex_dissimilar","images/stimuli/complex_05_A_a.gif","","","","",""
"null","","html-keyboard-response","77","147776","0.0-18.0-0.2","SS1630642817043","","","","","null","","","","","","","<p><img src= images/blank.png width =""600"" height = ""600"" style=""position:fixed;top:50%; left:50%; transform: translate(-50%, -50%); border:5px solid black"">","","","","","","","",""
"211","","stimuli-presentation","78","148492","0.0-18.0-1.2","SS1630642817043","","","trial","","40","500","711","images/stimuli/complex_05_A_a.gif","images/stimuli/complex_03_A_a.gif","self_paced","870","","5","complex_dissimilar","images/stimuli/complex_03_A_a.gif","","","","",""
"null","","html-keyboard-response","79","149708","0.0-18.0-0.3","SS1630642817043","","","","","null","","","","","","","<p><img src= images/blank.png width =""600"" height = ""600"" style=""position:fixed;top:50%; left:50%; transform: translate(-50%, -50%); border:5px solid black"">","","","","","","","",""
"335.10000002384186","","stimuli-presentation","80","150553","0.0-18.0-1.3","SS1630642817043","","","trial","","40","500","835.1000000238419","images/stimuli/complex_05_A_a.gif","images/stimuli/complex_03_A_a.gif","self_paced","870","","5","complex_dissimilar","images/stimuli/complex_03_A_a.gif","","","","",""
"null","","html-keyboard-response","81","151754","0.0-18.0-0.4","SS1630642817043","","","","","null","","","","","","","<p><img src= images/blank.png width =""600"" height = ""600"" style=""position:fixed;top:50%; left:50%; transform: translate(-50%, -50%); border:5px solid black"">","","","","","","","",""
"54.39999997615814","","stimuli-presentation","82","152316","0.0-18.0-1.4","SS1630642817043","","","trial","","40","500","554.3999999761581","images/stimuli/complex_05_A_a.gif","images/stimuli/complex_03_A_a.gif","self_paced","870","","5","complex_dissimilar","images/stimuli/complex_03_A_a.gif","","","","",""
"null","","html-keyboard-response","83","153493","0.0-18.0-0.5","SS1630642817043","","","","","null","","","","","","","<p><img src= images/blank.png width =""600"" height = ""600"" style=""position:fixed;top:50%; left:50%; transform: translate(-50%, -50%); border:5px solid black"">","","","","","","","",""
"311","","stimuli-presentation","84","154309","0.0-18.0-1.5","SS1630642817043","","","trial","","40","500","811","images/stimuli/complex_05_A_a.gif","images/stimuli/complex_03_A_a.gif","self_paced","870","","5","complex_dissimilar","images/stimuli/complex_03_A_a.gif","","","","",""
"3250.7999999523163","{""Q0"":4}","survey-likert","85","157563","0.0-19.0","SS1630642817043","","","curiousity","","","","","","","","","","","","","[0]","images/stimuli/complex_03_A_a.gif","5","",""
"null","","html-keyboard-response","86","158826","0.0-20.0-0.0","SS1630642817043","","","","","null","","","","","","","<p><img src= images/blank.png width =""600"" height = ""600"" style=""position:fixed;top:50%; left:50%; transform: translate(-50%, -50%); border:5px solid black"">","","","","","","","",""
"459","","stimuli-presentation","87","159788","0.0-20.0-1.0","SS1630642817043","","","trial","","40","500","959","images/stimuli/complex_04_A_a.gif","images/stimuli/complex_17_A_a.gif","self_paced","210","","6","complex_dissimilar","images/stimuli/complex_17_A_a.gif","","","","",""
"null","","html-keyboard-response","88","160834","0.0-20.0-0.1","SS1630642817043","","","","","null","","","","","","","<p><img src= images/blank.png width =""600"" height = ""600"" style=""position:fixed;top:50%; left:50%; transform: translate(-50%, -50%); border:5px solid black"">","","","","","","","",""
"177.59999990463257","","stimuli-presentation","89","161521","0.0-20.0-1.1","SS1630642817043","","","trial","","40","500","677.5999999046326","images/stimuli/complex_04_A_a.gif","images/stimuli/complex_17_A_a.gif","self_paced","210","","6","complex_dissimilar","images/stimuli/complex_17_A_a.gif","","","","",""
"null","","html-keyboard-response","90","162750","0.0-20.0-0.2","SS1630642817043","","","","","null","","","","","","","<p><img src= images/blank.png width =""600"" height = ""600"" style=""position:fixed;top:50%; left:50%; transform: translate(-50%, -50%); border:5px solid black"">","","","","","","","",""
"455.1999999284744","","stimuli-presentation","91","163710","0.0-20.0-1.2","SS1630642817043","","","trial","","40","500","955.1999999284744","images/stimuli/complex_04_A_a.gif","images/stimuli/complex_17_A_a.gif","self_paced","210","","6","complex_dissimilar","images/stimuli/complex_17_A_a.gif","","","","",""
"null","","html-keyboard-response","92","164699","0.0-20.0-0.3","SS1630642817043","","","","","null","","","","","","","<p><img src= images/blank.png width =""600"" height = ""600"" style=""position:fixed;top:50%; left:50%; transform: translate(-50%, -50%); border:5px solid black"">","","","","","","","",""
"418.7000000476837","","stimuli-presentation","93","165624","0.0-20.0-1.3","SS1630642817043","","","trial","","40","500","918.7000000476837","images/stimuli/complex_04_A_a.gif","images/stimuli/complex_17_A_a.gif","self_paced","210","","6","complex_dissimilar","images/stimuli/complex_04_A_a.gif","","","","",""
"null","","html-keyboard-response","94","166771","0.0-20.0-0.4","SS1630642817043","","","","","null","","","","","","","<p><img src= images/blank.png width =""600"" height = ""600"" style=""position:fixed;top:50%; left:50%; transform: translate(-50%, -50%); border:5px solid black"">","","","","","","","",""
"1148.3999999761581","","stimuli-presentation","95","168427","0.0-20.0-1.4","SS1630642817043","","","trial","","40","500","1648.3999999761581","images/stimuli/complex_04_A_a.gif","images/stimuli/complex_17_A_a.gif","self_paced","210","","6","complex_dissimilar","images/stimuli/complex_17_A_a.gif","","","","",""
"null","","html-keyboard-response","96","169237","0.0-20.0-0.5","SS1630642817043","","","","","null","","","","","","","<p><img src= images/blank.png width =""600"" height = ""600"" style=""position:fixed;top:50%; left:50%; transform: translate(-50%, -50%); border:5px solid black"">","","","","","","","",""
"165.89999997615814","","stimuli-presentation","97","169910","0.0-20.0-1.5","SS1630642817043","","","trial","","40","500","665.8999999761581","images/stimuli/complex_04_A_a.gif","images/stimuli/complex_17_A_a.gif","self_paced","210","","6","complex_dissimilar","images/stimuli/complex_17_A_a.gif","","","","",""
"2331.100000023842","{""Q0"":1}","survey-likert","98","172243","0.0-21.0","SS1630642817043","","","curiousity","","","","","","","","","","","","","[0]","images/stimuli/complex_17_A_a.gif","6","",""
"null","","html-keyboard-response","99","173494","0.0-22.0-0.0","SS1630642817043","","","","","null","","","","","","","<p><img src= images/blank.png width =""600"" height = ""600"" style=""position:fixed;top:50%; left:50%; transform: translate(-50%, -50%); border:5px solid black"">","","","","","","","",""
"148.20000004768372","","stimuli-presentation","100","174148","0.0-22.0-1.0","SS1630642817043","","","trial","","40","500","648.2000000476837","images/stimuli/simple_11_A_a.gif","images/stimuli/simple_12_A_a.gif","self_paced","490","","7","simple_dissimilar","images/stimuli/simple_12_A_a.gif","","","","",""
"null","","html-keyboard-response","101","175365","0.0-22.0-0.1","SS1630642817043","","","","","null","","","","","","","<p><img src= images/blank.png width =""600"" height = ""600"" style=""position:fixed;top:50%; left:50%; transform: translate(-50%, -50%); border:5px solid black"">","","","","","","","",""
"156.10000002384186","","stimuli-presentation","102","176027","0.0-22.0-1.1","SS1630642817043","","","trial","","40","500","656.1000000238419","images/stimuli/simple_11_A_a.gif","images/stimuli/simple_12_A_a.gif","self_paced","490","","7","simple_dissimilar","images/stimuli/simple_12_A_a.gif","","","","",""
"null","","html-keyboard-response","103","177285","0.0-22.0-0.2","SS1630642817043","","","","","null","","","","","","","<p><img src= images/blank.png width =""600"" height = ""600"" style=""position:fixed;top:50%; left:50%; transform: translate(-50%, -50%); border:5px solid black"">","","","","","","","",""
"307.40000009536743","","stimuli-presentation","104","178097","0.0-22.0-1.2","SS1630642817043","","","trial","","40","500","807.4000000953674","images/stimuli/simple_11_A_a.gif","images/stimuli/simple_12_A_a.gif","self_paced","490","","7","simple_dissimilar","images/stimuli/simple_12_A_a.gif","","","","",""
"null","","html-keyboard-response","105","179044","0.0-22.0-0.3","SS1630642817043","","","","","null","","","","","","","<p><img src= images/blank.png width =""600"" height = ""600"" style=""position:fixed;top:50%; left:50%; transform: translate(-50%, -50%); border:5px solid black"">","","","","","","","",""
"922.2999999523163","","stimuli-presentation","106","180473","0.0-22.0-1.3","SS1630642817043","","","trial","","40","500","1422.2999999523163","images/stimuli/simple_11_A_a.gif","images/stimuli/simple_12_A_a.gif","self_paced","490","","7","simple_dissimilar","images/stimuli/simple_11_A_a.gif","","","","",""
"null","","html-keyboard-response","107","181366","0.0-22.0-0.4","SS1630642817043","","","","","null","","","","","","","<p><img src= images/blank.png width =""600"" height = ""600"" style=""position:fixed;top:50%; left:50%; transform: translate(-50%, -50%); border:5px solid black"">","","","","","","","",""
"62.700000047683716","","stimuli-presentation","108","181938","0.0-22.0-1.4","SS1630642817043","","","trial","","40","500","562.7000000476837","images/stimuli/simple_11_A_a.gif","images/stimuli/simple_12_A_a.gif","self_paced","490","","7","simple_dissimilar","images/stimuli/simple_12_A_a.gif","","","","",""
"null","","html-keyboard-response","109","183034","0.0-22.0-0.5","SS1630642817043","","","","","null","","","","","","","<p><img src= images/blank.png width =""600"" height = ""600"" style=""position:fixed;top:50%; left:50%; transform: translate(-50%, -50%); border:5px solid black"">","","","","","","","",""
"137.39999997615814","","stimuli-presentation","110","183677","0.0-22.0-1.5","SS1630642817043","","","trial","","40","500","637.3999999761581","images/stimuli/simple_11_A_a.gif","images/stimuli/simple_12_A_a.gif","self_paced","490","","7","simple_dissimilar","images/stimuli/simple_12_A_a.gif","","","","",""
"2562.899999976158","{""Q0"":4}","survey-likert","111","186243","0.0-23.0","SS1630642817043","","","curiousity","","","","","","","","","","","","","[0]","images/stimuli/simple_12_A_a.gif","7","",""
"2212.5999999046326","","instructions","112","188460","0.0-24.0","SS1630642817043","","[{""page_index"":0,""viewing_time"":2211.899999976158}]","instructions","","","","","","","","","","","","","","","","",""
"1664.3999999761581","{""Q0"":2}","survey-likert","113","190131","0.0-25.0","SS1630642817043","","","similarity_question","","","","","","","","","","","","","[0]","","","images/stimuli/complex_07_A_a.gif","images/stimuli/complex_15_A_a.gif"
"1682.7000000476837","{""Q0"":3}","survey-likert","114","191819","0.0-26.0","SS1630642817043","","","similarity_question","","","","","","","","","","","","","[0]","","","images/stimuli/complex_03_A_a.gif","images/stimuli/complex_05_A_a.gif"
"1576.7999999523163","{""Q0"":4}","survey-likert","115","193405","0.0-27.0","SS1630642817043","","","similarity_question","","","","","","","","","","","","","[0]","","","images/stimuli/simple_01_A_a.gif","images/stimuli/simple_04_A_a.gif"
"1632.8999999761581","{""Q0"":5}","survey-likert","116","195044","0.0-28.0","SS1630642817043","","","similarity_question","","","","","","","","","","","","","[0]","","","images/stimuli/simple_06_A_a.gif","images/stimuli/simple_02_A_a.gif"
"1422.5999999046326","{""Q0"":1}","survey-likert","117","196474","0.0-29.0","SS1630642817043","","","similarity_question","","","","","","","","","","","","","[0]","","","images/stimuli/simple_10_A_a.gif","images/stimuli/simple_14_A_a.gif"
"1300.5999999046326","{""Q0"":5}","survey-likert","118","197781","0.0-30.0","SS1630642817043","","","similarity_question","","","","","","","","","","","","","[0]","","","images/stimuli/complex_14_A_a.gif","images/stimuli/complex_12_A_a.gif"
"1172.6999999284744","{""Q0"":3}","survey-likert","119","198961","0.0-31.0","SS1630642817043","","","similarity_question","","","","","","","","","","","","","[0]","","","images/stimuli/complex_17_A_a.gif","images/stimuli/complex_04_A_a.gif"
"1495.3999999761581","{""Q0"":4}","survey-likert","120","200461","0.0-32.0","SS1630642817043","","","similarity_question","","","","","","","","","","","","","[0]","","","images/stimuli/simple_12_A_a.gif","images/stimuli/simple_11_A_a.gif"
"1535.5","","instructions","121","202003","0.0-33.0","SS1630642817043","","[{""page_index"":0,""viewing_time"":1535.2000000476837}]","instructions","","","","","","","","","","","","","","","","",""
"1570.9000000953674","{""Q0"":2}","survey-likert","122","203579","0.0-34.0","SS1630642817043","","","","","","","","","","","","images/stimuli/simple_06_A_a.gif","","","","[0]","","","",""
"1788.1000000238419","{""Q0"":5}","survey-likert","123","205373","0.0-35.0","SS1630642817043","","","","","","","","","","","","images/stimuli/complex_03_A_a.gif","","","","[0]","","","",""
"1200.5999999046326","{""Q0"":3}","survey-likert","124","206579","0.0-36.0","SS1630642817043","","","","","","","","","","","","images/stimuli/simple_11_A_a.gif","","","","[0]","","","",""
"1546.2000000476837","{""Q0"":4}","survey-likert","125","208132","0.0-37.0","SS1630642817043","","","","","","","","","","","","images/stimuli/complex_17_A_a.gif","","","","[0]","","","",""
"1659","{""Q0"":6}","survey-likert","126","209797","0.0-38.0","SS1630642817043","","","","","","","","","","","","images/stimuli/complex_15_A_a.gif","","","","[0]","","","",""
"1149.8999999761581","{""Q0"":2}","survey-likert","127","210954","0.0-39.0","SS1630642817043","","","","","","","","","","","","images/stimuli/simple_10_A_a.gif","","","","[0]","","","",""
"1223.0999999046326","{""Q0"":1}","survey-likert","128","212180","0.0-40.0","SS1630642817043","","","","","","","","","","","","images/stimuli/simple_01_A_a.gif","","","","[0]","","","",""
"1465","{""Q0"":0}","survey-likert","129","213652","0.0-41.0","SS1630642817043","","","","","","","","","","","","images/stimuli/complex_14_A_a.gif","","","","[0]","","","",""
"","","fullscreen","130","214661","0.0-42.0","SS1630642817043","true","","","","","","","","","","","","","","","","","","",""
"1114","","instructions","131","215780","0.0-43.0","SS1630642817043","","[{""page_index"":0,""viewing_time"":1113.3999999761581}]","instructions","","","","","","","","","","","","","","","","",""
"2918.899999976158","{""age"":""23""}","demog-age","132","218706","0.0-44.0","SS1630642817043","","","","","","","","","","","","","","","","","","","",""
"1402.6000000238419","{""ethnicity"":[""Hispanic or Latino""]}","demog-ethnic-US","133","220115","0.0-45.0","SS1630642817043","","","","","","","","","","","","","","","","[0]","","","",""
"2499.600000023842","{""gender"":""Non-binary"",""education"":""High school diploma""}","demog-gender-and-education","134","222621","0.0-46.0","SS1630642817043","","","","","","","","","","","","","","","","[0,1]","","","",""
"1511.3000000715256","{""Q0"":""3""}","survey-text","135","224140","0.0-47.0","SS1630642817043","","","feedback","","","","","","","","","","","","","","","","",""
"755.2000000476837","","instructions","136","224900","0.0-48.0","SS1630642817043","","[{""page_index"":0,""viewing_time"":754.5}]","instructions","","","","","","","","","","","","","","","","",""
