"rt","responses","trial_type","trial_index","time_elapsed","internal_node_id","subject","success","view_history","stimulus_type","trial_stimulus","key_press","minimum_viewing_duration","trial_looking_time","block_deviant","block_background","exposure_type","forced_exposure_time","stimulus","block_number","block_type","stimulus_displayed","question_order","math_correct_answer","stimulus_left","stimulus_right"
"3959.3000000715256","{""p_id"":""5""}","survey-text","0","3964","0.0-0.0","SS1630643244267","","","","","","","","","","","","","","","","","","",""
"","","fullscreen","1","5643","0.0-1.0","SS1630643244267","true","","","","","","","","","","","","","","","","","",""
"1924.2999999523163","","instructions","2","7570","0.0-2.0","SS1630643244267","","[{""page_index"":0,""viewing_time"":1923.7999999523163}]","","","","","","","","","","","","","","","","",""
"1490.1000000238419","","instructions","3","11066","0.0-3.0","SS1630643244267","","[{""page_index"":0,""viewing_time"":833.5},{""page_index"":1,""viewing_time"":656.1999999284744}]","instructions","","","","","","","","","","","","","","","",""
"1018.1000000238419","","stimuli-presentation","4","12588","0.0-4.0","SS1630643244267","","","","","40","500","1518.1000000238419","null","null","self_paced","0","","","","","","","",""
"300.60000002384186","","stimuli-presentation","5","13390","0.0-5.0","SS1630643244267","","","","","40","500","800.6000000238419","null","null","self_paced","0","","","","","","","",""
"1481.0999999046326","","instructions","6","14873","0.0-6.0","SS1630643244267","","[{""page_index"":0,""viewing_time"":1480.7999999523163}]","instructions","","","","","","","","","","","","","","","",""
"2719.9000000953674","","instructions","7","17595","0.0-7.0","SS1630643244267","","[{""page_index"":0,""viewing_time"":439.40000009536743},{""page_index"":1,""viewing_time"":592.5999999046326},{""page_index"":2,""viewing_time"":559.6000000238419},{""page_index"":3,""viewing_time"":656.2000000476837},{""page_index"":4,""viewing_time"":471.60000002384186}]","instructions","","","","","","","","","","","","","","","",""
"null","","html-keyboard-response","8","18757","0.0-8.0-0.0","SS1630643244267","","","","","null","","","","","","","<p><img src= images/blank.png width =""600"" height = ""600"" style=""position:fixed;top:50%; left:50%; transform: translate(-50%, -50%); border:5px solid black"">","","","","","","",""
"247.39999997615814","","stimuli-presentation","9","19511","0.0-8.0-1.0","SS1630643244267","","","trial","","40","500","747.3999999761581","images/stimuli/complex_19_A_a.gif","images/stimuli/complex_02_A_a.gif","self_paced","250","","0","complex_dissimilar","images/stimuli/complex_02_A_a.gif","","","",""
"null","","html-keyboard-response","10","20763","0.0-8.0-0.1","SS1630643244267","","","","","null","","","","","","","<p><img src= images/blank.png width =""600"" height = ""600"" style=""position:fixed;top:50%; left:50%; transform: translate(-50%, -50%); border:5px solid black"">","","","","","","",""
"410.10000002384186","","stimuli-presentation","11","21677","0.0-8.0-1.1","SS1630643244267","","","trial","","40","500","910.1000000238419","images/stimuli/complex_19_A_a.gif","images/stimuli/complex_02_A_a.gif","self_paced","250","","0","complex_dissimilar","images/stimuli/complex_02_A_a.gif","","","",""
"null","","html-keyboard-response","12","22616","0.0-8.0-0.2","SS1630643244267","","","","","null","","","","","","","<p><img src= images/blank.png width =""600"" height = ""600"" style=""position:fixed;top:50%; left:50%; transform: translate(-50%, -50%); border:5px solid black"">","","","","","","",""
"205.29999995231628","","stimuli-presentation","13","23325","0.0-8.0-1.2","SS1630643244267","","","trial","","40","500","705.2999999523163","images/stimuli/complex_19_A_a.gif","images/stimuli/complex_02_A_a.gif","self_paced","250","","0","complex_dissimilar","images/stimuli/complex_02_A_a.gif","","","",""
"null","","html-keyboard-response","14","24400","0.0-8.0-0.3","SS1630643244267","","","","","null","","","","","","","<p><img src= images/blank.png width =""600"" height = ""600"" style=""position:fixed;top:50%; left:50%; transform: translate(-50%, -50%); border:5px solid black"">","","","","","","",""
"53.40000009536743","","stimuli-presentation","15","24957","0.0-8.0-1.3","SS1630643244267","","","trial","","40","500","553.4000000953674","images/stimuli/complex_19_A_a.gif","images/stimuli/complex_02_A_a.gif","self_paced","250","","0","complex_dissimilar","images/stimuli/complex_02_A_a.gif","","","",""
"null","","html-keyboard-response","16","26233","0.0-8.0-0.4","SS1630643244267","","","","","null","","","","","","","<p><img src= images/blank.png width =""600"" height = ""600"" style=""position:fixed;top:50%; left:50%; transform: translate(-50%, -50%); border:5px solid black"">","","","","","","",""
"80.89999997615814","","stimuli-presentation","17","26820","0.0-8.0-1.4","SS1630643244267","","","trial","","40","500","580.8999999761581","images/stimuli/complex_19_A_a.gif","images/stimuli/complex_02_A_a.gif","self_paced","250","","0","complex_dissimilar","images/stimuli/complex_02_A_a.gif","","","",""
"null","","html-keyboard-response","18","27707","0.0-8.0-0.5","SS1630643244267","","","","","null","","","","","","","<p><img src= images/blank.png width =""600"" height = ""600"" style=""position:fixed;top:50%; left:50%; transform: translate(-50%, -50%); border:5px solid black"">","","","","","","",""
"51.799999952316284","","stimuli-presentation","19","28263","0.0-8.0-1.5","SS1630643244267","","","trial","","40","500","551.7999999523163","images/stimuli/complex_19_A_a.gif","images/stimuli/complex_02_A_a.gif","self_paced","250","","0","complex_dissimilar","images/stimuli/complex_02_A_a.gif","","","",""
"5250","{""Q0"":""16""}","survey-multi-choice","20","33515","0.0-9.0","SS1630643244267","","","math_question","","","","","","","","","","","","","[0]","16","",""
"null","","html-keyboard-response","21","34779","0.0-10.0-0.0","SS1630643244267","","","","","null","","","","","","","<p><img src= images/blank.png width =""600"" height = ""600"" style=""position:fixed;top:50%; left:50%; transform: translate(-50%, -50%); border:5px solid black"">","","","","","","",""
"160.30000007152557","","stimuli-presentation","22","35445","0.0-10.0-1.0","SS1630643244267","","","trial","","40","500","660.3000000715256","images/stimuli/simple_03_A_a.gif","images/stimuli/simple_10_A_a.gif","self_paced","540","","1","simple_dissimilar","images/stimuli/simple_10_A_a.gif","","","",""
"null","","html-keyboard-response","23","36693","0.0-10.0-0.1","SS1630643244267","","","","","null","","","","","","","<p><img src= images/blank.png width =""600"" height = ""600"" style=""position:fixed;top:50%; left:50%; transform: translate(-50%, -50%); border:5px solid black"">","","","","","","",""
"1446","","stimuli-presentation","24","38644","0.0-10.0-1.1","SS1630643244267","","","trial","","40","500","1946","images/stimuli/simple_03_A_a.gif","images/stimuli/simple_10_A_a.gif","self_paced","540","","1","simple_dissimilar","images/stimuli/simple_03_A_a.gif","","","",""
"null","","html-keyboard-response","25","39684","0.0-10.0-0.2","SS1630643244267","","","","","null","","","","","","","<p><img src= images/blank.png width =""600"" height = ""600"" style=""position:fixed;top:50%; left:50%; transform: translate(-50%, -50%); border:5px solid black"">","","","","","","",""
"151.80000007152557","","stimuli-presentation","26","40341","0.0-10.0-1.2","SS1630643244267","","","trial","","40","500","651.8000000715256","images/stimuli/simple_03_A_a.gif","images/stimuli/simple_10_A_a.gif","self_paced","540","","1","simple_dissimilar","images/stimuli/simple_10_A_a.gif","","","",""
"null","","html-keyboard-response","27","41339","0.0-10.0-0.3","SS1630643244267","","","","","null","","","","","","","<p><img src= images/blank.png width =""600"" height = ""600"" style=""position:fixed;top:50%; left:50%; transform: translate(-50%, -50%); border:5px solid black"">","","","","","","",""
"83.29999995231628","","stimuli-presentation","28","41931","0.0-10.0-1.3","SS1630643244267","","","trial","","40","500","583.2999999523163","images/stimuli/simple_03_A_a.gif","images/stimuli/simple_10_A_a.gif","self_paced","540","","1","simple_dissimilar","images/stimuli/simple_10_A_a.gif","","","",""
"null","","html-keyboard-response","29","43057","0.0-10.0-0.4","SS1630643244267","","","","","null","","","","","","","<p><img src= images/blank.png width =""600"" height = ""600"" style=""position:fixed;top:50%; left:50%; transform: translate(-50%, -50%); border:5px solid black"">","","","","","","",""
"2204.399999976158","","stimuli-presentation","30","45766","0.0-10.0-1.4","SS1630643244267","","","trial","","40","500","2704.399999976158","images/stimuli/simple_03_A_a.gif","images/stimuli/simple_10_A_a.gif","self_paced","540","","1","simple_dissimilar","images/stimuli/simple_10_A_a.gif","","","",""
"null","","html-keyboard-response","31","46616","0.0-10.0-0.5","SS1630643244267","","","","","null","","","","","","","<p><img src= images/blank.png width =""600"" height = ""600"" style=""position:fixed;top:50%; left:50%; transform: translate(-50%, -50%); border:5px solid black"">","","","","","","",""
"898.1999999284744","","stimuli-presentation","32","48019","0.0-10.0-1.5","SS1630643244267","","","trial","","40","500","1398.1999999284744","images/stimuli/simple_03_A_a.gif","images/stimuli/simple_10_A_a.gif","self_paced","540","","1","simple_dissimilar","images/stimuli/simple_10_A_a.gif","","","",""
"2334.3000000715256","{""Q0"":""12""}","survey-multi-choice","33","50356","0.0-11.0","SS1630643244267","","","math_question","","","","","","","","","","","","","[0]","12","",""
"null","","html-keyboard-response","34","51355","0.0-12.0-0.0","SS1630643244267","","","","","null","","","","","","","<p><img src= images/blank.png width =""600"" height = ""600"" style=""position:fixed;top:50%; left:50%; transform: translate(-50%, -50%); border:5px solid black"">","","","","","","",""
"65.20000004768372","","stimuli-presentation","35","51925","0.0-12.0-1.0","SS1630643244267","","","trial","","40","500","565.2000000476837","images/stimuli/complex_04_A_a.gif","images/stimuli/complex_09_A_a.gif","self_paced","290","","2","complex_dissimilar","images/stimuli/complex_09_A_a.gif","","","",""
"null","","html-keyboard-response","36","53141","0.0-12.0-0.1","SS1630643244267","","","","","null","","","","","","","<p><img src= images/blank.png width =""600"" height = ""600"" style=""position:fixed;top:50%; left:50%; transform: translate(-50%, -50%); border:5px solid black"">","","","","","","",""
"8.099999904632568","","stimuli-presentation","37","53657","0.0-12.0-1.1","SS1630643244267","","","trial","","40","500","508.09999990463257","images/stimuli/complex_04_A_a.gif","images/stimuli/complex_09_A_a.gif","self_paced","290","","2","complex_dissimilar","images/stimuli/complex_09_A_a.gif","","","",""
"null","","html-keyboard-response","38","54576","0.0-12.0-0.2","SS1630643244267","","","","","null","","","","","","","<p><img src= images/blank.png width =""600"" height = ""600"" style=""position:fixed;top:50%; left:50%; transform: translate(-50%, -50%); border:5px solid black"">","","","","","","",""
"292.2999999523163","","stimuli-presentation","39","55370","0.0-12.0-1.2","SS1630643244267","","","trial","","40","500","792.2999999523163","images/stimuli/complex_04_A_a.gif","images/stimuli/complex_09_A_a.gif","self_paced","290","","2","complex_dissimilar","images/stimuli/complex_09_A_a.gif","","","",""
"null","","html-keyboard-response","40","56478","0.0-12.0-0.3","SS1630643244267","","","","","null","","","","","","","<p><img src= images/blank.png width =""600"" height = ""600"" style=""position:fixed;top:50%; left:50%; transform: translate(-50%, -50%); border:5px solid black"">","","","","","","",""
"141.39999997615814","","stimuli-presentation","41","57124","0.0-12.0-1.3","SS1630643244267","","","trial","","40","500","641.3999999761581","images/stimuli/complex_04_A_a.gif","images/stimuli/complex_09_A_a.gif","self_paced","290","","2","complex_dissimilar","images/stimuli/complex_09_A_a.gif","","","",""
"null","","html-keyboard-response","42","58332","0.0-12.0-0.4","SS1630643244267","","","","","null","","","","","","","<p><img src= images/blank.png width =""600"" height = ""600"" style=""position:fixed;top:50%; left:50%; transform: translate(-50%, -50%); border:5px solid black"">","","","","","","",""
"191.29999995231628","","stimuli-presentation","43","59028","0.0-12.0-1.4","SS1630643244267","","","trial","","40","500","691.2999999523163","images/stimuli/complex_04_A_a.gif","images/stimuli/complex_09_A_a.gif","self_paced","290","","2","complex_dissimilar","images/stimuli/complex_09_A_a.gif","","","",""
"null","","html-keyboard-response","44","60186","0.0-12.0-0.5","SS1630643244267","","","","","null","","","","","","","<p><img src= images/blank.png width =""600"" height = ""600"" style=""position:fixed;top:50%; left:50%; transform: translate(-50%, -50%); border:5px solid black"">","","","","","","",""
"360.10000002384186","","stimuli-presentation","45","61051","0.0-12.0-1.5","SS1630643244267","","","trial","","40","500","860.1000000238419","images/stimuli/complex_04_A_a.gif","images/stimuli/complex_09_A_a.gif","self_paced","290","","2","complex_dissimilar","images/stimuli/complex_04_A_a.gif","","","",""
"2118.100000023842","{""Q0"":""6""}","survey-multi-choice","46","63171","0.0-13.0","SS1630643244267","","","math_question","","","","","","","","","","","","","[0]","6","",""
"null","","html-keyboard-response","47","64295","0.0-14.0-0.0","SS1630643244267","","","","","null","","","","","","","<p><img src= images/blank.png width =""600"" height = ""600"" style=""position:fixed;top:50%; left:50%; transform: translate(-50%, -50%); border:5px solid black"">","","","","","","",""
"142.30000007152557","","stimuli-presentation","48","64942","0.0-14.0-1.0","SS1630643244267","","","trial","","40","500","642.3000000715256","images/stimuli/simple_09_A_a.gif","images/stimuli/simple_06_A_a.gif","self_paced","770","","3","simple_dissimilar","images/stimuli/simple_06_A_a.gif","","","",""
"null","","html-keyboard-response","49","65762","0.0-14.0-0.1","SS1630643244267","","","","","null","","","","","","","<p><img src= images/blank.png width =""600"" height = ""600"" style=""position:fixed;top:50%; left:50%; transform: translate(-50%, -50%); border:5px solid black"">","","","","","","",""
"247.19999992847443","","stimuli-presentation","50","66515","0.0-14.0-1.1","SS1630643244267","","","trial","","40","500","747.1999999284744","images/stimuli/simple_09_A_a.gif","images/stimuli/simple_06_A_a.gif","self_paced","770","","3","simple_dissimilar","images/stimuli/simple_06_A_a.gif","","","",""
"null","","html-keyboard-response","51","67534","0.0-14.0-0.2","SS1630643244267","","","","","null","","","","","","","<p><img src= images/blank.png width =""600"" height = ""600"" style=""position:fixed;top:50%; left:50%; transform: translate(-50%, -50%); border:5px solid black"">","","","","","","",""
"432.3000000715256","","stimuli-presentation","52","68471","0.0-14.0-1.2","SS1630643244267","","","trial","","40","500","932.3000000715256","images/stimuli/simple_09_A_a.gif","images/stimuli/simple_06_A_a.gif","self_paced","770","","3","simple_dissimilar","images/stimuli/simple_06_A_a.gif","","","",""
"null","","html-keyboard-response","53","69724","0.0-14.0-0.3","SS1630643244267","","","","","null","","","","","","","<p><img src= images/blank.png width =""600"" height = ""600"" style=""position:fixed;top:50%; left:50%; transform: translate(-50%, -50%); border:5px solid black"">","","","","","","",""
"147.10000002384186","","stimuli-presentation","54","70379","0.0-14.0-1.3","SS1630643244267","","","trial","","40","500","647.1000000238419","images/stimuli/simple_09_A_a.gif","images/stimuli/simple_06_A_a.gif","self_paced","770","","3","simple_dissimilar","images/stimuli/simple_06_A_a.gif","","","",""
"null","","html-keyboard-response","55","71589","0.0-14.0-0.4","SS1630643244267","","","","","null","","","","","","","<p><img src= images/blank.png width =""600"" height = ""600"" style=""position:fixed;top:50%; left:50%; transform: translate(-50%, -50%); border:5px solid black"">","","","","","","",""
"341","","stimuli-presentation","56","72436","0.0-14.0-1.4","SS1630643244267","","","trial","","40","500","841","images/stimuli/simple_09_A_a.gif","images/stimuli/simple_06_A_a.gif","self_paced","770","","3","simple_dissimilar","images/stimuli/simple_06_A_a.gif","","","",""
"null","","html-keyboard-response","57","73543","0.0-14.0-0.5","SS1630643244267","","","","","null","","","","","","","<p><img src= images/blank.png width =""600"" height = ""600"" style=""position:fixed;top:50%; left:50%; transform: translate(-50%, -50%); border:5px solid black"">","","","","","","",""
"139.70000004768372","","stimuli-presentation","58","74192","0.0-14.0-1.5","SS1630643244267","","","trial","","40","500","639.7000000476837","images/stimuli/simple_09_A_a.gif","images/stimuli/simple_06_A_a.gif","self_paced","770","","3","simple_dissimilar","images/stimuli/simple_06_A_a.gif","","","",""
"30385.5","{""Q0"":""10""}","survey-multi-choice","59","104580","0.0-15.0","SS1630643244267","","","math_question","","","","","","","","","","","","","[0]","10","",""
"null","","html-keyboard-response","60","105666","0.0-16.0-0.0","SS1630643244267","","","","","null","","","","","","","<p><img src= images/blank.png width =""600"" height = ""600"" style=""position:fixed;top:50%; left:50%; transform: translate(-50%, -50%); border:5px solid black"">","","","","","","",""
"1031.8000000715256","","stimuli-presentation","61","107204","0.0-16.0-1.0","SS1630643244267","","","trial","","40","500","1531.8000000715256","images/stimuli/complex_14_A_a.gif","images/stimuli/complex_06_A_a.gif","self_paced","390","","4","complex_dissimilar","images/stimuli/complex_06_A_a.gif","","","",""
"null","","html-keyboard-response","62","108167","0.0-16.0-0.1","SS1630643244267","","","","","null","","","","","","","<p><img src= images/blank.png width =""600"" height = ""600"" style=""position:fixed;top:50%; left:50%; transform: translate(-50%, -50%); border:5px solid black"">","","","","","","",""
"319.7999999523163","","stimuli-presentation","63","108995","0.0-16.0-1.1","SS1630643244267","","","trial","","40","500","819.7999999523163","images/stimuli/complex_14_A_a.gif","images/stimuli/complex_06_A_a.gif","self_paced","390","","4","complex_dissimilar","images/stimuli/complex_06_A_a.gif","","","",""
"null","","html-keyboard-response","64","110199","0.0-16.0-0.2","SS1630643244267","","","","","null","","","","","","","<p><img src= images/blank.png width =""600"" height = ""600"" style=""position:fixed;top:50%; left:50%; transform: translate(-50%, -50%); border:5px solid black"">","","","","","","",""
"179.89999997615814","","stimuli-presentation","65","110886","0.0-16.0-1.2","SS1630643244267","","","trial","","40","500","679.8999999761581","images/stimuli/complex_14_A_a.gif","images/stimuli/complex_06_A_a.gif","self_paced","390","","4","complex_dissimilar","images/stimuli/complex_06_A_a.gif","","","",""
"null","","html-keyboard-response","66","111922","0.0-16.0-0.3","SS1630643244267","","","","","null","","","","","","","<p><img src= images/blank.png width =""600"" height = ""600"" style=""position:fixed;top:50%; left:50%; transform: translate(-50%, -50%); border:5px solid black"">","","","","","","",""
"1103.5999999046326","","stimuli-presentation","67","113533","0.0-16.0-1.3","SS1630643244267","","","trial","","40","500","1603.5999999046326","images/stimuli/complex_14_A_a.gif","images/stimuli/complex_06_A_a.gif","self_paced","390","","4","complex_dissimilar","images/stimuli/complex_14_A_a.gif","","","",""
"null","","html-keyboard-response","68","114642","0.0-16.0-0.4","SS1630643244267","","","","","null","","","","","","","<p><img src= images/blank.png width =""600"" height = ""600"" style=""position:fixed;top:50%; left:50%; transform: translate(-50%, -50%); border:5px solid black"">","","","","","","",""
"367.39999997615814","","stimuli-presentation","69","115517","0.0-16.0-1.4","SS1630643244267","","","trial","","40","500","867.3999999761581","images/stimuli/complex_14_A_a.gif","images/stimuli/complex_06_A_a.gif","self_paced","390","","4","complex_dissimilar","images/stimuli/complex_06_A_a.gif","","","",""
"null","","html-keyboard-response","70","116483","0.0-16.0-0.5","SS1630643244267","","","","","null","","","","","","","<p><img src= images/blank.png width =""600"" height = ""600"" style=""position:fixed;top:50%; left:50%; transform: translate(-50%, -50%); border:5px solid black"">","","","","","","",""
"13.799999952316284","","stimuli-presentation","71","117004","0.0-16.0-1.5","SS1630643244267","","","trial","","40","500","513.7999999523163","images/stimuli/complex_14_A_a.gif","images/stimuli/complex_06_A_a.gif","self_paced","390","","4","complex_dissimilar","images/stimuli/complex_06_A_a.gif","","","",""
"4068.5","{""Q0"":""9""}","survey-multi-choice","72","121076","0.0-17.0","SS1630643244267","","","math_question","","","","","","","","","","","","","[0]","9","",""
"null","","html-keyboard-response","73","121986","0.0-18.0-0.0","SS1630643244267","","","","","null","","","","","","","<p><img src= images/blank.png width =""600"" height = ""600"" style=""position:fixed;top:50%; left:50%; transform: translate(-50%, -50%); border:5px solid black"">","","","","","","",""
"3170.5","","stimuli-presentation","74","125663","0.0-18.0-1.0","SS1630643244267","","","trial","","40","500","3670.5","images/stimuli/simple_04_A_a.gif","images/stimuli/simple_14_A_a.gif","self_paced","520","","5","simple_dissimilar","images/stimuli/simple_14_A_a.gif","","","",""
"null","","html-keyboard-response","75","126714","0.0-18.0-0.1","SS1630643244267","","","","","null","","","","","","","<p><img src= images/blank.png width =""600"" height = ""600"" style=""position:fixed;top:50%; left:50%; transform: translate(-50%, -50%); border:5px solid black"">","","","","","","",""
"743.5","","stimuli-presentation","76","127965","0.0-18.0-1.1","SS1630643244267","","","trial","","40","500","1243.5","images/stimuli/simple_04_A_a.gif","images/stimuli/simple_14_A_a.gif","self_paced","520","","5","simple_dissimilar","images/stimuli/simple_14_A_a.gif","","","",""
"null","","html-keyboard-response","77","128800","0.0-18.0-0.2","SS1630643244267","","","","","null","","","","","","","<p><img src= images/blank.png width =""600"" height = ""600"" style=""position:fixed;top:50%; left:50%; transform: translate(-50%, -50%); border:5px solid black"">","","","","","","",""
"185.19999992847443","","stimuli-presentation","78","129491","0.0-18.0-1.2","SS1630643244267","","","trial","","40","500","685.1999999284744","images/stimuli/simple_04_A_a.gif","images/stimuli/simple_14_A_a.gif","self_paced","520","","5","simple_dissimilar","images/stimuli/simple_14_A_a.gif","","","",""
"null","","html-keyboard-response","79","130739","0.0-18.0-0.3","SS1630643244267","","","","","null","","","","","","","<p><img src= images/blank.png width =""600"" height = ""600"" style=""position:fixed;top:50%; left:50%; transform: translate(-50%, -50%); border:5px solid black"">","","","","","","",""
"64.10000002384186","","stimuli-presentation","80","131308","0.0-18.0-1.3","SS1630643244267","","","trial","","40","500","564.1000000238419","images/stimuli/simple_04_A_a.gif","images/stimuli/simple_14_A_a.gif","self_paced","520","","5","simple_dissimilar","images/stimuli/simple_04_A_a.gif","","","",""
"null","","html-keyboard-response","81","132272","0.0-18.0-0.4","SS1630643244267","","","","","null","","","","","","","<p><img src= images/blank.png width =""600"" height = ""600"" style=""position:fixed;top:50%; left:50%; transform: translate(-50%, -50%); border:5px solid black"">","","","","","","",""
"4639.099999904633","","stimuli-presentation","82","137415","0.0-18.0-1.4","SS1630643244267","","","trial","","40","500","5139.099999904633","images/stimuli/simple_04_A_a.gif","images/stimuli/simple_14_A_a.gif","self_paced","520","","5","simple_dissimilar","images/stimuli/simple_14_A_a.gif","","","",""
"null","","html-keyboard-response","83","138625","0.0-18.0-0.5","SS1630643244267","","","","","null","","","","","","","<p><img src= images/blank.png width =""600"" height = ""600"" style=""position:fixed;top:50%; left:50%; transform: translate(-50%, -50%); border:5px solid black"">","","","","","","",""
"101","","stimuli-presentation","84","139234","0.0-18.0-1.5","SS1630643244267","","","trial","","40","500","601","images/stimuli/simple_04_A_a.gif","images/stimuli/simple_14_A_a.gif","self_paced","520","","5","simple_dissimilar","images/stimuli/simple_14_A_a.gif","","","",""
"2693.6999999284744","{""Q0"":""12""}","survey-multi-choice","85","141931","0.0-19.0","SS1630643244267","","","math_question","","","","","","","","","","","","","[0]","12","",""
"null","","html-keyboard-response","86","143120","0.0-20.0-0.0","SS1630643244267","","","","","null","","","","","","","<p><img src= images/blank.png width =""600"" height = ""600"" style=""position:fixed;top:50%; left:50%; transform: translate(-50%, -50%); border:5px solid black"">","","","","","","",""
"550.5","","stimuli-presentation","87","144177","0.0-20.0-1.0","SS1630643244267","","","trial","","40","500","1050.5","images/stimuli/simple_01_A_a.gif","images/stimuli/simple_08_A_a.gif","self_paced","500","","6","simple_dissimilar","images/stimuli/simple_08_A_a.gif","","","",""
"null","","html-keyboard-response","88","145305","0.0-20.0-0.1","SS1630643244267","","","","","null","","","","","","","<p><img src= images/blank.png width =""600"" height = ""600"" style=""position:fixed;top:50%; left:50%; transform: translate(-50%, -50%); border:5px solid black"">","","","","","","",""
"231.30000007152557","","stimuli-presentation","89","146046","0.0-20.0-1.1","SS1630643244267","","","trial","","40","500","731.3000000715256","images/stimuli/simple_01_A_a.gif","images/stimuli/simple_08_A_a.gif","self_paced","500","","6","simple_dissimilar","images/stimuli/simple_08_A_a.gif","","","",""
"null","","html-keyboard-response","90","147187","0.0-20.0-0.2","SS1630643244267","","","","","null","","","","","","","<p><img src= images/blank.png width =""600"" height = ""600"" style=""position:fixed;top:50%; left:50%; transform: translate(-50%, -50%); border:5px solid black"">","","","","","","",""
"141.40000009536743","","stimuli-presentation","91","147834","0.0-20.0-1.2","SS1630643244267","","","trial","","40","500","641.4000000953674","images/stimuli/simple_01_A_a.gif","images/stimuli/simple_08_A_a.gif","self_paced","500","","6","simple_dissimilar","images/stimuli/simple_08_A_a.gif","","","",""
"null","","html-keyboard-response","92","149006","0.0-20.0-0.3","SS1630643244267","","","","","null","","","","","","","<p><img src= images/blank.png width =""600"" height = ""600"" style=""position:fixed;top:50%; left:50%; transform: translate(-50%, -50%); border:5px solid black"">","","","","","","",""
"78.29999995231628","","stimuli-presentation","93","149591","0.0-20.0-1.3","SS1630643244267","","","trial","","40","500","578.2999999523163","images/stimuli/simple_01_A_a.gif","images/stimuli/simple_08_A_a.gif","self_paced","500","","6","simple_dissimilar","images/stimuli/simple_08_A_a.gif","","","",""
"null","","html-keyboard-response","94","150600","0.0-20.0-0.4","SS1630643244267","","","","","null","","","","","","","<p><img src= images/blank.png width =""600"" height = ""600"" style=""position:fixed;top:50%; left:50%; transform: translate(-50%, -50%); border:5px solid black"">","","","","","","",""
"152.69999992847443","","stimuli-presentation","95","151262","0.0-20.0-1.4","SS1630643244267","","","trial","","40","500","652.6999999284744","images/stimuli/simple_01_A_a.gif","images/stimuli/simple_08_A_a.gif","self_paced","500","","6","simple_dissimilar","images/stimuli/simple_08_A_a.gif","","","",""
"null","","html-keyboard-response","96","152248","0.0-20.0-0.5","SS1630643244267","","","","","null","","","","","","","<p><img src= images/blank.png width =""600"" height = ""600"" style=""position:fixed;top:50%; left:50%; transform: translate(-50%, -50%); border:5px solid black"">","","","","","","",""
"249.90000009536743","","stimuli-presentation","97","153005","0.0-20.0-1.5","SS1630643244267","","","trial","","40","500","749.9000000953674","images/stimuli/simple_01_A_a.gif","images/stimuli/simple_08_A_a.gif","self_paced","500","","6","simple_dissimilar","images/stimuli/simple_01_A_a.gif","","","",""
"2401.600000023842","{""Q0"":""11""}","survey-multi-choice","98","155409","0.0-21.0","SS1630643244267","","","math_question","","","","","","","","","","","","","[0]","11","",""
"null","","html-keyboard-response","99","156558","0.0-22.0-0.0","SS1630643244267","","","","","null","","","","","","","<p><img src= images/blank.png width =""600"" height = ""600"" style=""position:fixed;top:50%; left:50%; transform: translate(-50%, -50%); border:5px solid black"">","","","","","","",""
"1311.2000000476837","","stimuli-presentation","100","158378","0.0-22.0-1.0","SS1630643244267","","","trial","","40","500","1811.2000000476837","images/stimuli/complex_08_A_a.gif","images/stimuli/complex_18_A_a.gif","self_paced","500","","7","complex_dissimilar","images/stimuli/complex_18_A_a.gif","","","",""
"null","","html-keyboard-response","101","159433","0.0-22.0-0.1","SS1630643244267","","","","","null","","","","","","","<p><img src= images/blank.png width =""600"" height = ""600"" style=""position:fixed;top:50%; left:50%; transform: translate(-50%, -50%); border:5px solid black"">","","","","","","",""
"399.7000000476837","","stimuli-presentation","102","160341","0.0-22.0-1.1","SS1630643244267","","","trial","","40","500","899.7000000476837","images/stimuli/complex_08_A_a.gif","images/stimuli/complex_18_A_a.gif","self_paced","500","","7","complex_dissimilar","images/stimuli/complex_08_A_a.gif","","","",""
"null","","html-keyboard-response","103","161605","0.0-22.0-0.2","SS1630643244267","","","","","null","","","","","","","<p><img src= images/blank.png width =""600"" height = ""600"" style=""position:fixed;top:50%; left:50%; transform: translate(-50%, -50%); border:5px solid black"">","","","","","","",""
"3582.600000023842","","stimuli-presentation","104","165693","0.0-22.0-1.2","SS1630643244267","","","trial","","40","500","4082.600000023842","images/stimuli/complex_08_A_a.gif","images/stimuli/complex_18_A_a.gif","self_paced","500","","7","complex_dissimilar","images/stimuli/complex_18_A_a.gif","","","",""
"null","","html-keyboard-response","105","166814","0.0-22.0-0.3","SS1630643244267","","","","","null","","","","","","","<p><img src= images/blank.png width =""600"" height = ""600"" style=""position:fixed;top:50%; left:50%; transform: translate(-50%, -50%); border:5px solid black"">","","","","","","",""
"127.69999992847443","","stimuli-presentation","106","167450","0.0-22.0-1.3","SS1630643244267","","","trial","","40","500","627.6999999284744","images/stimuli/complex_08_A_a.gif","images/stimuli/complex_18_A_a.gif","self_paced","500","","7","complex_dissimilar","images/stimuli/complex_18_A_a.gif","","","",""
"null","","html-keyboard-response","107","168505","0.0-22.0-0.4","SS1630643244267","","","","","null","","","","","","","<p><img src= images/blank.png width =""600"" height = ""600"" style=""position:fixed;top:50%; left:50%; transform: translate(-50%, -50%); border:5px solid black"">","","","","","","",""
"199.10000002384186","","stimuli-presentation","108","169212","0.0-22.0-1.4","SS1630643244267","","","trial","","40","500","699.1000000238419","images/stimuli/complex_08_A_a.gif","images/stimuli/complex_18_A_a.gif","self_paced","500","","7","complex_dissimilar","images/stimuli/complex_18_A_a.gif","","","",""
"null","","html-keyboard-response","109","170490","0.0-22.0-0.5","SS1630643244267","","","","","null","","","","","","","<p><img src= images/blank.png width =""600"" height = ""600"" style=""position:fixed;top:50%; left:50%; transform: translate(-50%, -50%); border:5px solid black"">","","","","","","",""
"356.7000000476837","","stimuli-presentation","110","171353","0.0-22.0-1.5","SS1630643244267","","","trial","","40","500","856.7000000476837","images/stimuli/complex_08_A_a.gif","images/stimuli/complex_18_A_a.gif","self_paced","500","","7","complex_dissimilar","images/stimuli/complex_18_A_a.gif","","","",""
"5519.899999976158","{""Q0"":""8""}","survey-multi-choice","111","176876","0.0-23.0","SS1630643244267","","","math_question","","","","","","","","","","","","","[0]","13","",""
"72348.09999990463","","instructions","112","249229","0.0-24.0","SS1630643244267","","[{""page_index"":0,""viewing_time"":72347.39999997616}]","instructions","","","","","","","","","","","","","","","",""
"2753.5","{""Q0"":4}","survey-likert","113","251991","0.0-25.0","SS1630643244267","","","similarity_question","","","","","","","","","","","","","[0]","","images/stimuli/complex_18_A_a.gif","images/stimuli/complex_08_A_a.gif"
"1158.5","{""Q0"":2}","survey-likert","114","253156","0.0-26.0","SS1630643244267","","","similarity_question","","","","","","","","","","","","","[0]","","images/stimuli/simple_14_A_a.gif","images/stimuli/simple_04_A_a.gif"
"1025.6000000238419","{""Q0"":3}","survey-likert","115","254189","0.0-27.0","SS1630643244267","","","similarity_question","","","","","","","","","","","","","[0]","","images/stimuli/simple_06_A_a.gif","images/stimuli/simple_09_A_a.gif"
"1193.2000000476837","{""Q0"":1}","survey-likert","116","255388","0.0-28.0","SS1630643244267","","","similarity_question","","","","","","","","","","","","","[0]","","images/stimuli/complex_14_A_a.gif","images/stimuli/complex_06_A_a.gif"
"1098.2999999523163","{""Q0"":4}","survey-likert","117","256494","0.0-29.0","SS1630643244267","","","similarity_question","","","","","","","","","","","","","[0]","","images/stimuli/complex_19_A_a.gif","images/stimuli/complex_02_A_a.gif"
"1496.6000000238419","{""Q0"":5}","survey-likert","118","257997","0.0-30.0","SS1630643244267","","","similarity_question","","","","","","","","","","","","","[0]","","images/stimuli/simple_03_A_a.gif","images/stimuli/simple_10_A_a.gif"
"1358.8999999761581","{""Q0"":2}","survey-likert","119","259362","0.0-31.0","SS1630643244267","","","similarity_question","","","","","","","","","","","","","[0]","","images/stimuli/simple_08_A_a.gif","images/stimuli/simple_01_A_a.gif"
"928","{""Q0"":3}","survey-likert","120","260295","0.0-32.0","SS1630643244267","","","similarity_question","","","","","","","","","","","","","[0]","","images/stimuli/complex_09_A_a.gif","images/stimuli/complex_04_A_a.gif"
"809.5","","instructions","121","261109","0.0-33.0","SS1630643244267","","[{""page_index"":0,""viewing_time"":808.6000000238419}]","instructions","","","","","","","","","","","","","","","",""
"1739.1000000238419","{""Q0"":3}","survey-likert","122","262854","0.0-34.0","SS1630643244267","","","","","","","","","","","","images/stimuli/simple_10_A_a.gif","","","","[0]","","",""
"1312","{""Q0"":5}","survey-likert","123","264174","0.0-35.0","SS1630643244267","","","","","","","","","","","","images/stimuli/simple_09_A_a.gif","","","","[0]","","",""
"1265.3000000715256","{""Q0"":2}","survey-likert","124","265444","0.0-36.0","SS1630643244267","","","","","","","","","","","","images/stimuli/simple_08_A_a.gif","","","","[0]","","",""
"1164.1000000238419","{""Q0"":1}","survey-likert","125","266614","0.0-37.0","SS1630643244267","","","","","","","","","","","","images/stimuli/simple_04_A_a.gif","","","","[0]","","",""
"1326.8000000715256","{""Q0"":2}","survey-likert","126","267948","0.0-38.0","SS1630643244267","","","","","","","","","","","","images/stimuli/complex_09_A_a.gif","","","","[0]","","",""
"2131.100000023842","{""Q0"":4}","survey-likert","127","270085","0.0-39.0","SS1630643244267","","","","","","","","","","","","images/stimuli/complex_06_A_a.gif","","","","[0]","","",""
"2640.3000000715256","{""Q0"":5}","survey-likert","128","272731","0.0-40.0","SS1630643244267","","","","","","","","","","","","images/stimuli/complex_02_A_a.gif","","","","[0]","","",""
"1861.7000000476837","{""Q0"":4}","survey-likert","129","274597","0.0-41.0","SS1630643244267","","","","","","","","","","","","images/stimuli/complex_08_A_a.gif","","","","[0]","","",""
"","","fullscreen","130","275606","0.0-42.0","SS1630643244267","true","","","","","","","","","","","","","","","","","",""
"1258.1999999284744","","instructions","131","276868","0.0-43.0","SS1630643244267","","[{""page_index"":0,""viewing_time"":1257.6999999284744}]","instructions","","","","","","","","","","","","","","","",""
"1849.8999999761581","{""age"":""4""}","demog-age","132","278727","0.0-44.0","SS1630643244267","","","","","","","","","","","","","","","","","","",""
"1260.5","{""ethnicity"":[""Hispanic or Latino""]}","demog-ethnic-US","133","279998","0.0-45.0","SS1630643244267","","","","","","","","","","","","","","","","[0]","","",""
"3312.5","{""gender"":""Non-binary"",""education"":""High school diploma""}","demog-gender-and-education","134","283317","0.0-46.0","SS1630643244267","","","","","","","","","","","","","","","","[0,1]","","",""
"2112.2000000476837","{""Q0"":"" ""}","survey-text","135","285436","0.0-47.0","SS1630643244267","","","feedback","","","","","","","","","","","","","","","",""
"900.7000000476837","","instructions","136","286341","0.0-48.0","SS1630643244267","","[{""page_index"":0,""viewing_time"":900}]","instructions","","","","","","","","","","","","","","","",""
