"view_history","rt","trial_type","trial_index","time_elapsed","internal_node_id","subject","stimulus_type","trial_stimulus","key_press","minimum_viewing_duration","trial_looking_time","block_deviant","block_background","exposure_type","stimulus","block_number","block_type","stimulus_displayed","responses","question_order","math_correct_answer","stimulus_left","stimulus_right"
"[{""page_index"":0,""viewing_time"":1077}]","1077","instructions","0","1079","0.0-0.0","SS1619125642562","","","","","","","","","","","","","","","","",""
"[{""page_index"":0,""viewing_time"":31017},{""page_index"":1,""viewing_time"":42006}]","73023","instructions","1","76108","0.0-1.0","SS1619125642562","instructions","","","","","","","","","","","","","","","",""
"","22256","sequential-stimulus-presentation-old","2","98877","0.0-2.0","SS1619125642562","","","40","500","22756","null","null","self_paced","","","","","","","","",""
"","11815","sequential-stimulus-presentation-old","3","111206","0.0-3.0","SS1619125642562","","","40","500","12315","null","null","self_paced","","","","","","","","",""
"[{""page_index"":0,""viewing_time"":21972}]","21972","instructions","4","133179","0.0-4.0","SS1619125642562","instructions","","","","","","","","","","","","","","","",""
"","3493","sequential-stimulus-presentation-old","5","146678","0.0-5.0","SS1619125642562","","","40","500","3993","null","null","forced_long","","","","","","","","",""
"","15050","sequential-stimulus-presentation-old","6","161846","0.0-6.0","SS1619125642562","","","40","500","15550","null","null","forced_long","","","","","","","","",""
"[{""page_index"":0,""viewing_time"":2310}]","2310","instructions","7","164156","0.0-7.0","SS1619125642562","instructions","","","","","","","","","","","","","","","",""
"[{""page_index"":0,""viewing_time"":12301},{""page_index"":1,""viewing_time"":18234},{""page_index"":2,""viewing_time"":31737},{""page_index"":3,""viewing_time"":1387},{""page_index"":4,""viewing_time"":1635}]","65294","instructions","8","229451","0.0-8.0","SS1619125642562","instructions","","","","","","","","","","","","","","","",""
"","null","html-keyboard-response","9","230626","0.0-9.0-0.0","SS1619125642562","","","null","","","","","","<p><img src= images/blank.png width =""600"" height = ""600"" style=""position:fixed;top:50%; left:50%; transform: translate(-50%, -50%); border:5px solid black"">","","","","","","","",""
"","644","sequential-stimulus-presentation-old","10","241286","0.0-9.0-1.0","SS1619125642562","trial","","40","500","1144","images/stimuli/spore_stims/complex_20_A_a.gif","images/stimuli/spore_stims/complex_01_A_b.gif","forced_long","","0","complex_dissimilar","images/stimuli/spore_stims/complex_01_A_b.gif","","","","",""
"","null","html-keyboard-response","11","242195","0.0-9.0-0.1","SS1619125642562","","","null","","","","","","<p><img src= images/blank.png width =""600"" height = ""600"" style=""position:fixed;top:50%; left:50%; transform: translate(-50%, -50%); border:5px solid black"">","","","","","","","",""
"","2412","sequential-stimulus-presentation-old","12","245117","0.0-9.0-1.1","SS1619125642562","trial","","40","500","2912","images/stimuli/spore_stims/complex_20_A_a.gif","images/stimuli/spore_stims/complex_01_A_b.gif","forced_long","","0","complex_dissimilar","images/stimuli/spore_stims/complex_20_A_a.gif","","","","",""
"","null","html-keyboard-response","13","245946","0.0-9.0-0.2","SS1619125642562","","","null","","","","","","<p><img src= images/blank.png width =""600"" height = ""600"" style=""position:fixed;top:50%; left:50%; transform: translate(-50%, -50%); border:5px solid black"">","","","","","","","",""
"","82","sequential-stimulus-presentation-old","14","246542","0.0-9.0-1.2","SS1619125642562","trial","","40","500","582","images/stimuli/spore_stims/complex_20_A_a.gif","images/stimuli/spore_stims/complex_01_A_b.gif","forced_long","","0","complex_dissimilar","images/stimuli/spore_stims/complex_01_A_b.gif","","","","",""
"","null","html-keyboard-response","15","247525","0.0-9.0-0.3","SS1619125642562","","","null","","","","","","<p><img src= images/blank.png width =""600"" height = ""600"" style=""position:fixed;top:50%; left:50%; transform: translate(-50%, -50%); border:5px solid black"">","","","","","","","",""
"","9063","sequential-stimulus-presentation-old","16","257109","0.0-9.0-1.3","SS1619125642562","trial","","40","500","9563","images/stimuli/spore_stims/complex_20_A_a.gif","images/stimuli/spore_stims/complex_01_A_b.gif","forced_long","","0","complex_dissimilar","images/stimuli/spore_stims/complex_01_A_b.gif","","","","",""
"","null","html-keyboard-response","17","258265","0.0-9.0-0.4","SS1619125642562","","","null","","","","","","<p><img src= images/blank.png width =""600"" height = ""600"" style=""position:fixed;top:50%; left:50%; transform: translate(-50%, -50%); border:5px solid black"">","","","","","","","",""
"","173","sequential-stimulus-presentation-old","18","258949","0.0-9.0-1.4","SS1619125642562","trial","","40","500","673","images/stimuli/spore_stims/complex_20_A_a.gif","images/stimuli/spore_stims/complex_01_A_b.gif","forced_long","","0","complex_dissimilar","images/stimuli/spore_stims/complex_01_A_b.gif","","","","",""
"","2788","survey-multi-choice","19","261738","0.0-10.0","SS1619125642562","math_question","","","","","","","","","","","","{""Q0"":""11""}","[0]","11","",""
"","null","html-keyboard-response","20","262956","0.0-11.0-0.0","SS1619125642562","","","null","","","","","","<p><img src= images/blank.png width =""600"" height = ""600"" style=""position:fixed;top:50%; left:50%; transform: translate(-50%, -50%); border:5px solid black"">","","","","","","","",""
"","1146","sequential-stimulus-presentation-old","21","264622","0.0-11.0-1.0","SS1619125642562","trial","","40","500","1646","images/stimuli/spore_stims/complex_17_A_b.gif","images/stimuli/spore_stims/complex_11_A_a.gif","self_paced","","1","complex_dissimilar","images/stimuli/spore_stims/complex_11_A_a.gif","","","","",""
"","null","html-keyboard-response","22","265655","0.0-11.0-0.1","SS1619125642562","","","null","","","","","","<p><img src= images/blank.png width =""600"" height = ""600"" style=""position:fixed;top:50%; left:50%; transform: translate(-50%, -50%); border:5px solid black"">","","","","","","","",""
"","213","sequential-stimulus-presentation-old","23","266389","0.0-11.0-1.1","SS1619125642562","trial","","40","500","713","images/stimuli/spore_stims/complex_17_A_b.gif","images/stimuli/spore_stims/complex_11_A_a.gif","self_paced","","1","complex_dissimilar","images/stimuli/spore_stims/complex_11_A_a.gif","","","","",""
"","null","html-keyboard-response","24","267275","0.0-11.0-0.2","SS1619125642562","","","null","","","","","","<p><img src= images/blank.png width =""600"" height = ""600"" style=""position:fixed;top:50%; left:50%; transform: translate(-50%, -50%); border:5px solid black"">","","","","","","","",""
"","342","sequential-stimulus-presentation-old","25","268128","0.0-11.0-1.2","SS1619125642562","trial","","40","500","842","images/stimuli/spore_stims/complex_17_A_b.gif","images/stimuli/spore_stims/complex_11_A_a.gif","self_paced","","1","complex_dissimilar","images/stimuli/spore_stims/complex_11_A_a.gif","","","","",""
"","null","html-keyboard-response","26","268945","0.0-11.0-0.3","SS1619125642562","","","null","","","","","","<p><img src= images/blank.png width =""600"" height = ""600"" style=""position:fixed;top:50%; left:50%; transform: translate(-50%, -50%); border:5px solid black"">","","","","","","","",""
"","37","sequential-stimulus-presentation-old","27","269503","0.0-11.0-1.3","SS1619125642562","trial","","40","500","537","images/stimuli/spore_stims/complex_17_A_b.gif","images/stimuli/spore_stims/complex_11_A_a.gif","self_paced","","1","complex_dissimilar","images/stimuli/spore_stims/complex_17_A_b.gif","","","","",""
"","null","html-keyboard-response","28","270386","0.0-11.0-0.4","SS1619125642562","","","null","","","","","","<p><img src= images/blank.png width =""600"" height = ""600"" style=""position:fixed;top:50%; left:50%; transform: translate(-50%, -50%); border:5px solid black"">","","","","","","","",""
"","2597","sequential-stimulus-presentation-old","29","273502","0.0-11.0-1.4","SS1619125642562","trial","","40","500","3097","images/stimuli/spore_stims/complex_17_A_b.gif","images/stimuli/spore_stims/complex_11_A_a.gif","self_paced","","1","complex_dissimilar","images/stimuli/spore_stims/complex_11_A_a.gif","","","","",""
"","null","html-keyboard-response","30","274606","0.0-11.0-0.5","SS1619125642562","","","null","","","","","","<p><img src= images/blank.png width =""600"" height = ""600"" style=""position:fixed;top:50%; left:50%; transform: translate(-50%, -50%); border:5px solid black"">","","","","","","","",""
"","4448","sequential-stimulus-presentation-old","31","279573","0.0-11.0-1.5","SS1619125642562","trial","","40","500","4948","images/stimuli/spore_stims/complex_17_A_b.gif","images/stimuli/spore_stims/complex_11_A_a.gif","self_paced","","1","complex_dissimilar","images/stimuli/spore_stims/complex_17_A_b.gif","","","","",""
"","1700","survey-multi-choice","32","281277","0.0-12.0","SS1619125642562","math_question","","","","","","","","","","","","{""Q0"":""9""}","[0]","9","",""
"","null","html-keyboard-response","33","282255","0.0-13.0-0.0","SS1619125642562","","","null","","","","","","<p><img src= images/blank.png width =""600"" height = ""600"" style=""position:fixed;top:50%; left:50%; transform: translate(-50%, -50%); border:5px solid black"">","","","","","","","",""
"","1644","sequential-stimulus-presentation-old","34","284406","0.0-13.0-1.0","SS1619125642562","trial","","40","500","2144","images/stimuli/spore_stims/complex_04_A_a.gif","images/stimuli/spore_stims/complex_06_A_b.gif","self_paced","","2","complex_dissimilar","images/stimuli/spore_stims/complex_06_A_b.gif","","","","",""
"","null","html-keyboard-response","35","285641","0.0-13.0-0.1","SS1619125642562","","","null","","","","","","<p><img src= images/blank.png width =""600"" height = ""600"" style=""position:fixed;top:50%; left:50%; transform: translate(-50%, -50%); border:5px solid black"">","","","","","","","",""
"","22330","sequential-stimulus-presentation-old","36","308485","0.0-13.0-1.1","SS1619125642562","trial","","40","500","22830","images/stimuli/spore_stims/complex_04_A_a.gif","images/stimuli/spore_stims/complex_06_A_b.gif","self_paced","","2","complex_dissimilar","images/stimuli/spore_stims/complex_06_A_b.gif","","","","",""
"","null","html-keyboard-response","37","309355","0.0-13.0-0.2","SS1619125642562","","","null","","","","","","<p><img src= images/blank.png width =""600"" height = ""600"" style=""position:fixed;top:50%; left:50%; transform: translate(-50%, -50%); border:5px solid black"">","","","","","","","",""
"","14236","sequential-stimulus-presentation-old","38","324101","0.0-13.0-1.2","SS1619125642562","trial","","40","500","14736","images/stimuli/spore_stims/complex_04_A_a.gif","images/stimuli/spore_stims/complex_06_A_b.gif","self_paced","","2","complex_dissimilar","images/stimuli/spore_stims/complex_06_A_b.gif","","","","",""
"","null","html-keyboard-response","39","325155","0.0-13.0-0.3","SS1619125642562","","","null","","","","","","<p><img src= images/blank.png width =""600"" height = ""600"" style=""position:fixed;top:50%; left:50%; transform: translate(-50%, -50%); border:5px solid black"">","","","","","","","",""
"","8906","sequential-stimulus-presentation-old","40","334565","0.0-13.0-1.3","SS1619125642562","trial","","40","500","9406","images/stimuli/spore_stims/complex_04_A_a.gif","images/stimuli/spore_stims/complex_06_A_b.gif","self_paced","","2","complex_dissimilar","images/stimuli/spore_stims/complex_06_A_b.gif","","","","",""
"","null","html-keyboard-response","41","335596","0.0-13.0-0.4","SS1619125642562","","","null","","","","","","<p><img src= images/blank.png width =""600"" height = ""600"" style=""position:fixed;top:50%; left:50%; transform: translate(-50%, -50%); border:5px solid black"">","","","","","","","",""
"","1034","sequential-stimulus-presentation-old","42","337150","0.0-13.0-1.4","SS1619125642562","trial","","40","500","1534","images/stimuli/spore_stims/complex_04_A_a.gif","images/stimuli/spore_stims/complex_06_A_b.gif","self_paced","","2","complex_dissimilar","images/stimuli/spore_stims/complex_06_A_b.gif","","","","",""
"","null","html-keyboard-response","43","338335","0.0-13.0-0.5","SS1619125642562","","","null","","","","","","<p><img src= images/blank.png width =""600"" height = ""600"" style=""position:fixed;top:50%; left:50%; transform: translate(-50%, -50%); border:5px solid black"">","","","","","","","",""
"","2790","sequential-stimulus-presentation-old","44","341646","0.0-13.0-1.5","SS1619125642562","trial","","40","500","3290","images/stimuli/spore_stims/complex_04_A_a.gif","images/stimuli/spore_stims/complex_06_A_b.gif","self_paced","","2","complex_dissimilar","images/stimuli/spore_stims/complex_04_A_a.gif","","","","",""
"","1902","survey-multi-choice","45","343550","0.0-14.0","SS1619125642562","math_question","","","","","","","","","","","","{""Q0"":""9""}","[0]","9","",""
"","null","html-keyboard-response","46","344853","0.0-15.0-0.0","SS1619125642562","","","null","","","","","","<p><img src= images/blank.png width =""600"" height = ""600"" style=""position:fixed;top:50%; left:50%; transform: translate(-50%, -50%); border:5px solid black"">","","","","","","","",""
"","612","sequential-stimulus-presentation-old","47","355478","0.0-15.0-1.0","SS1619125642562","trial","","40","500","1112","images/stimuli/spore_stims/simple_12_A_a.gif","images/stimuli/spore_stims/simple_20_A_b.gif","forced_long","","3","simple_dissimilar","images/stimuli/spore_stims/simple_20_A_b.gif","","","","",""
"","null","html-keyboard-response","48","356612","0.0-15.0-0.1","SS1619125642562","","","null","","","","","","<p><img src= images/blank.png width =""600"" height = ""600"" style=""position:fixed;top:50%; left:50%; transform: translate(-50%, -50%); border:5px solid black"">","","","","","","","",""
"","977","sequential-stimulus-presentation-old","49","358101","0.0-15.0-1.1","SS1619125642562","trial","","40","500","1477","images/stimuli/spore_stims/simple_12_A_a.gif","images/stimuli/spore_stims/simple_20_A_b.gif","forced_long","","3","simple_dissimilar","images/stimuli/spore_stims/simple_20_A_b.gif","","","","",""
"","null","html-keyboard-response","50","359045","0.0-15.0-0.2","SS1619125642562","","","null","","","","","","<p><img src= images/blank.png width =""600"" height = ""600"" style=""position:fixed;top:50%; left:50%; transform: translate(-50%, -50%); border:5px solid black"">","","","","","","","",""
"","2336","sequential-stimulus-presentation-old","51","361902","0.0-15.0-1.2","SS1619125642562","trial","","40","500","2836","images/stimuli/spore_stims/simple_12_A_a.gif","images/stimuli/spore_stims/simple_20_A_b.gif","forced_long","","3","simple_dissimilar","images/stimuli/spore_stims/simple_20_A_b.gif","","","","",""
"","null","html-keyboard-response","52","363065","0.0-15.0-0.3","SS1619125642562","","","null","","","","","","<p><img src= images/blank.png width =""600"" height = ""600"" style=""position:fixed;top:50%; left:50%; transform: translate(-50%, -50%); border:5px solid black"">","","","","","","","",""
"","8884","sequential-stimulus-presentation-old","53","372470","0.0-15.0-1.3","SS1619125642562","trial","","40","500","9384","images/stimuli/spore_stims/simple_12_A_a.gif","images/stimuli/spore_stims/simple_20_A_b.gif","forced_long","","3","simple_dissimilar","images/stimuli/spore_stims/simple_12_A_a.gif","","","","",""
"","null","html-keyboard-response","54","373655","0.0-15.0-0.4","SS1619125642562","","","null","","","","","","<p><img src= images/blank.png width =""600"" height = ""600"" style=""position:fixed;top:50%; left:50%; transform: translate(-50%, -50%); border:5px solid black"">","","","","","","","",""
"","6185","sequential-stimulus-presentation-old","55","380349","0.0-15.0-1.4","SS1619125642562","trial","","40","500","6685","images/stimuli/spore_stims/simple_12_A_a.gif","images/stimuli/spore_stims/simple_20_A_b.gif","forced_long","","3","simple_dissimilar","images/stimuli/spore_stims/simple_20_A_b.gif","","","","",""
"","null","html-keyboard-response","56","381565","0.0-15.0-0.5","SS1619125642562","","","null","","","","","","<p><img src= images/blank.png width =""600"" height = ""600"" style=""position:fixed;top:50%; left:50%; transform: translate(-50%, -50%); border:5px solid black"">","","","","","","","",""
"","5616","sequential-stimulus-presentation-old","57","387702","0.0-15.0-1.5","SS1619125642562","trial","","40","500","6116","images/stimuli/spore_stims/simple_12_A_a.gif","images/stimuli/spore_stims/simple_20_A_b.gif","forced_long","","3","simple_dissimilar","images/stimuli/spore_stims/simple_12_A_a.gif","","","","",""
"","1805","survey-multi-choice","58","389507","0.0-16.0","SS1619125642562","math_question","","","","","","","","","","","","{""Q0"":""7""}","[0]","7","",""
"","null","html-keyboard-response","59","390785","0.0-17.0-0.0","SS1619125642562","","","null","","","","","","<p><img src= images/blank.png width =""600"" height = ""600"" style=""position:fixed;top:50%; left:50%; transform: translate(-50%, -50%); border:5px solid black"">","","","","","","","",""
"","4477","sequential-stimulus-presentation-old","60","395782","0.0-17.0-1.0","SS1619125642562","trial","","40","500","4977","images/stimuli/spore_stims/simple_11_A_b.gif","images/stimuli/spore_stims/simple_18_A_a.gif","self_paced","","4","simple_dissimilar","images/stimuli/spore_stims/simple_18_A_a.gif","","","","",""
"","null","html-keyboard-response","61","396996","0.0-17.0-0.1","SS1619125642562","","","null","","","","","","<p><img src= images/blank.png width =""600"" height = ""600"" style=""position:fixed;top:50%; left:50%; transform: translate(-50%, -50%); border:5px solid black"">","","","","","","","",""
"","378","sequential-stimulus-presentation-old","62","397894","0.0-17.0-1.1","SS1619125642562","trial","","40","500","878","images/stimuli/spore_stims/simple_11_A_b.gif","images/stimuli/spore_stims/simple_18_A_a.gif","self_paced","","4","simple_dissimilar","images/stimuli/spore_stims/simple_18_A_a.gif","","","","",""
"","null","html-keyboard-response","63","399119","0.0-17.0-0.2","SS1619125642562","","","null","","","","","","<p><img src= images/blank.png width =""600"" height = ""600"" style=""position:fixed;top:50%; left:50%; transform: translate(-50%, -50%); border:5px solid black"">","","","","","","","",""
"","5104","sequential-stimulus-presentation-old","64","404743","0.0-17.0-1.2","SS1619125642562","trial","","40","500","5604","images/stimuli/spore_stims/simple_11_A_b.gif","images/stimuli/spore_stims/simple_18_A_a.gif","self_paced","","4","simple_dissimilar","images/stimuli/spore_stims/simple_18_A_a.gif","","","","",""
"","null","html-keyboard-response","65","405652","0.0-17.0-0.3","SS1619125642562","","","null","","","","","","<p><img src= images/blank.png width =""600"" height = ""600"" style=""position:fixed;top:50%; left:50%; transform: translate(-50%, -50%); border:5px solid black"">","","","","","","","",""
"","2457","sequential-stimulus-presentation-old","66","408622","0.0-17.0-1.3","SS1619125642562","trial","","40","500","2957","images/stimuli/spore_stims/simple_11_A_b.gif","images/stimuli/spore_stims/simple_18_A_a.gif","self_paced","","4","simple_dissimilar","images/stimuli/spore_stims/simple_18_A_a.gif","","","","",""
"","1703","survey-multi-choice","67","410329","0.0-18.0","SS1619125642562","math_question","","","","","","","","","","","","{""Q0"":""13""}","[0]","13","",""
"","null","html-keyboard-response","68","411166","0.0-19.0-0.0","SS1619125642562","","","null","","","","","","<p><img src= images/blank.png width =""600"" height = ""600"" style=""position:fixed;top:50%; left:50%; transform: translate(-50%, -50%); border:5px solid black"">","","","","","","","",""
"","13486","sequential-stimulus-presentation-old","69","434661","0.0-19.0-1.0","SS1619125642562","trial","","40","500","13986","images/stimuli/spore_stims/complex_20_A_b.gif","images/stimuli/spore_stims/complex_13_A_a.gif","forced_long","","5","complex_dissimilar","images/stimuli/spore_stims/complex_13_A_a.gif","","","","",""
"","null","html-keyboard-response","70","435735","0.0-19.0-0.1","SS1619125642562","","","null","","","","","","<p><img src= images/blank.png width =""600"" height = ""600"" style=""position:fixed;top:50%; left:50%; transform: translate(-50%, -50%); border:5px solid black"">","","","","","","","",""
"","25597","sequential-stimulus-presentation-old","71","461854","0.0-19.0-1.1","SS1619125642562","trial","","40","500","26097","images/stimuli/spore_stims/complex_20_A_b.gif","images/stimuli/spore_stims/complex_13_A_a.gif","forced_long","","5","complex_dissimilar","images/stimuli/spore_stims/complex_13_A_a.gif","","","","",""
"","null","html-keyboard-response","72","463106","0.0-19.0-0.2","SS1619125642562","","","null","","","","","","<p><img src= images/blank.png width =""600"" height = ""600"" style=""position:fixed;top:50%; left:50%; transform: translate(-50%, -50%); border:5px solid black"">","","","","","","","",""
"","3461","sequential-stimulus-presentation-old","73","467086","0.0-19.0-1.2","SS1619125642562","trial","","40","500","3961","images/stimuli/spore_stims/complex_20_A_b.gif","images/stimuli/spore_stims/complex_13_A_a.gif","forced_long","","5","complex_dissimilar","images/stimuli/spore_stims/complex_13_A_a.gif","","","","",""
"","null","html-keyboard-response","74","468386","0.0-19.0-0.3","SS1619125642562","","","null","","","","","","<p><img src= images/blank.png width =""600"" height = ""600"" style=""position:fixed;top:50%; left:50%; transform: translate(-50%, -50%); border:5px solid black"">","","","","","","","",""
"","11532","sequential-stimulus-presentation-old","75","480437","0.0-19.0-1.3","SS1619125642562","trial","","40","500","12032","images/stimuli/spore_stims/complex_20_A_b.gif","images/stimuli/spore_stims/complex_13_A_a.gif","forced_long","","5","complex_dissimilar","images/stimuli/spore_stims/complex_20_A_b.gif","","","","",""
"","null","html-keyboard-response","76","481677","0.0-19.0-0.4","SS1619125642562","","","null","","","","","","<p><img src= images/blank.png width =""600"" height = ""600"" style=""position:fixed;top:50%; left:50%; transform: translate(-50%, -50%); border:5px solid black"">","","","","","","","",""
"","11107","sequential-stimulus-presentation-old","77","493302","0.0-19.0-1.4","SS1619125642562","trial","","40","500","11607","images/stimuli/spore_stims/complex_20_A_b.gif","images/stimuli/spore_stims/complex_13_A_a.gif","forced_long","","5","complex_dissimilar","images/stimuli/spore_stims/complex_13_A_a.gif","","","","",""
"","2377","survey-multi-choice","78","495686","0.0-20.0","SS1619125642562","math_question","","","","","","","","","","","","{""Q0"":""11""}","[0]","11","",""
"","null","html-keyboard-response","79","496856","0.0-21.0-0.0","SS1619125642562","","","null","","","","","","<p><img src= images/blank.png width =""600"" height = ""600"" style=""position:fixed;top:50%; left:50%; transform: translate(-50%, -50%); border:5px solid black"">","","","","","","","",""
"","901","sequential-stimulus-presentation-old","80","497878","0.0-21.0-1.0","SS1619125642562","trial","","40","500","1401","images/stimuli/spore_stims/complex_12_A_a.gif","images/stimuli/spore_stims/complex_16_A_b.gif","forced_short","","6","complex_dissimilar","images/stimuli/spore_stims/complex_16_A_b.gif","","","","",""
"","null","html-keyboard-response","81","498785","0.0-21.0-0.1","SS1619125642562","","","null","","","","","","<p><img src= images/blank.png width =""600"" height = ""600"" style=""position:fixed;top:50%; left:50%; transform: translate(-50%, -50%); border:5px solid black"">","","","","","","","",""
"","6125","sequential-stimulus-presentation-old","82","505430","0.0-21.0-1.1","SS1619125642562","trial","","40","500","6625","images/stimuli/spore_stims/complex_12_A_a.gif","images/stimuli/spore_stims/complex_16_A_b.gif","forced_short","","6","complex_dissimilar","images/stimuli/spore_stims/complex_12_A_a.gif","","","","",""
"","null","html-keyboard-response","83","506526","0.0-21.0-0.2","SS1619125642562","","","null","","","","","","<p><img src= images/blank.png width =""600"" height = ""600"" style=""position:fixed;top:50%; left:50%; transform: translate(-50%, -50%); border:5px solid black"">","","","","","","","",""
"","5985","sequential-stimulus-presentation-old","84","513031","0.0-21.0-1.2","SS1619125642562","trial","","40","500","6485","images/stimuli/spore_stims/complex_12_A_a.gif","images/stimuli/spore_stims/complex_16_A_b.gif","forced_short","","6","complex_dissimilar","images/stimuli/spore_stims/complex_16_A_b.gif","","","","",""
"","null","html-keyboard-response","85","513876","0.0-21.0-0.3","SS1619125642562","","","null","","","","","","<p><img src= images/blank.png width =""600"" height = ""600"" style=""position:fixed;top:50%; left:50%; transform: translate(-50%, -50%); border:5px solid black"">","","","","","","","",""
"","5644","sequential-stimulus-presentation-old","86","520029","0.0-21.0-1.3","SS1619125642562","trial","","40","500","6144","images/stimuli/spore_stims/complex_12_A_a.gif","images/stimuli/spore_stims/complex_16_A_b.gif","forced_short","","6","complex_dissimilar","images/stimuli/spore_stims/complex_16_A_b.gif","","","","",""
"","null","html-keyboard-response","87","521086","0.0-21.0-0.4","SS1619125642562","","","null","","","","","","<p><img src= images/blank.png width =""600"" height = ""600"" style=""position:fixed;top:50%; left:50%; transform: translate(-50%, -50%); border:5px solid black"">","","","","","","","",""
"","15609","sequential-stimulus-presentation-old","88","537215","0.0-21.0-1.4","SS1619125642562","trial","","40","500","16109","images/stimuli/spore_stims/complex_12_A_a.gif","images/stimuli/spore_stims/complex_16_A_b.gif","forced_short","","6","complex_dissimilar","images/stimuli/spore_stims/complex_16_A_b.gif","","","","",""
"","null","html-keyboard-response","89","538088","0.0-21.0-0.5","SS1619125642562","","","null","","","","","","<p><img src= images/blank.png width =""600"" height = ""600"" style=""position:fixed;top:50%; left:50%; transform: translate(-50%, -50%); border:5px solid black"">","","","","","","","",""
"","4262","sequential-stimulus-presentation-old","90","542861","0.0-21.0-1.5","SS1619125642562","trial","","40","500","4762","images/stimuli/spore_stims/complex_12_A_a.gif","images/stimuli/spore_stims/complex_16_A_b.gif","forced_short","","6","complex_dissimilar","images/stimuli/spore_stims/complex_16_A_b.gif","","","","",""
"","2185","survey-multi-choice","91","545049","0.0-22.0","SS1619125642562","math_question","","","","","","","","","","","","{""Q0"":""6""}","[0]","6","",""
"","null","html-keyboard-response","92","546237","0.0-23.0-0.0","SS1619125642562","","","null","","","","","","<p><img src= images/blank.png width =""600"" height = ""600"" style=""position:fixed;top:50%; left:50%; transform: translate(-50%, -50%); border:5px solid black"">","","","","","","","",""
"","5957","sequential-stimulus-presentation-old","93","552311","0.0-23.0-1.0","SS1619125642562","trial","","40","500","6457","images/stimuli/spore_stims/simple_02_A_a.gif","images/stimuli/spore_stims/simple_14_A_b.gif","forced_short","","7","simple_dissimilar","images/stimuli/spore_stims/simple_14_A_b.gif","","","","",""
"","null","html-keyboard-response","94","553611","0.0-23.0-0.1","SS1619125642562","","","null","","","","","","<p><img src= images/blank.png width =""600"" height = ""600"" style=""position:fixed;top:50%; left:50%; transform: translate(-50%, -50%); border:5px solid black"">","","","","","","","",""
"","5087","sequential-stimulus-presentation-old","95","559222","0.0-23.0-1.1","SS1619125642562","trial","","40","500","5587","images/stimuli/spore_stims/simple_02_A_a.gif","images/stimuli/spore_stims/simple_14_A_b.gif","forced_short","","7","simple_dissimilar","images/stimuli/spore_stims/simple_02_A_a.gif","","","","",""
"","null","html-keyboard-response","96","560441","0.0-23.0-0.2","SS1619125642562","","","null","","","","","","<p><img src= images/blank.png width =""600"" height = ""600"" style=""position:fixed;top:50%; left:50%; transform: translate(-50%, -50%); border:5px solid black"">","","","","","","","",""
"","14291","sequential-stimulus-presentation-old","97","575247","0.0-23.0-1.2","SS1619125642562","trial","","40","500","14791","images/stimuli/spore_stims/simple_02_A_a.gif","images/stimuli/spore_stims/simple_14_A_b.gif","forced_short","","7","simple_dissimilar","images/stimuli/spore_stims/simple_14_A_b.gif","","","","",""
"","null","html-keyboard-response","98","576428","0.0-23.0-0.3","SS1619125642562","","","null","","","","","","<p><img src= images/blank.png width =""600"" height = ""600"" style=""position:fixed;top:50%; left:50%; transform: translate(-50%, -50%); border:5px solid black"">","","","","","","","",""
"","92","sequential-stimulus-presentation-old","99","577037","0.0-23.0-1.3","SS1619125642562","trial","","40","500","592","images/stimuli/spore_stims/simple_02_A_a.gif","images/stimuli/spore_stims/simple_14_A_b.gif","forced_short","","7","simple_dissimilar","images/stimuli/spore_stims/simple_14_A_b.gif","","","","",""
"","null","html-keyboard-response","100","578286","0.0-23.0-0.4","SS1619125642562","","","null","","","","","","<p><img src= images/blank.png width =""600"" height = ""600"" style=""position:fixed;top:50%; left:50%; transform: translate(-50%, -50%); border:5px solid black"">","","","","","","","",""
"","712","sequential-stimulus-presentation-old","101","579517","0.0-23.0-1.4","SS1619125642562","trial","","40","500","1212","images/stimuli/spore_stims/simple_02_A_a.gif","images/stimuli/spore_stims/simple_14_A_b.gif","forced_short","","7","simple_dissimilar","images/stimuli/spore_stims/simple_02_A_a.gif","","","","",""
"","1970","survey-multi-choice","102","581492","0.0-24.0","SS1619125642562","math_question","","","","","","","","","","","","{""Q0"":""10""}","[0]","10","",""
"","null","html-keyboard-response","103","582655","0.0-25.0-0.0","SS1619125642562","","","null","","","","","","<p><img src= images/blank.png width =""600"" height = ""600"" style=""position:fixed;top:50%; left:50%; transform: translate(-50%, -50%); border:5px solid black"">","","","","","","","",""
"","8849","sequential-stimulus-presentation-old","104","591615","0.0-25.0-1.0","SS1619125642562","trial","","40","500","9349","images/stimuli/spore_stims/complex_19_A_a.gif","images/stimuli/spore_stims/complex_14_A_b.gif","forced_short","","8","complex_dissimilar","images/stimuli/spore_stims/complex_14_A_b.gif","","","","",""
"","null","html-keyboard-response","105","592769","0.0-25.0-0.1","SS1619125642562","","","null","","","","","","<p><img src= images/blank.png width =""600"" height = ""600"" style=""position:fixed;top:50%; left:50%; transform: translate(-50%, -50%); border:5px solid black"">","","","","","","","",""
"","562","sequential-stimulus-presentation-old","106","593837","0.0-25.0-1.1","SS1619125642562","trial","","40","500","1062","images/stimuli/spore_stims/complex_19_A_a.gif","images/stimuli/spore_stims/complex_14_A_b.gif","forced_short","","8","complex_dissimilar","images/stimuli/spore_stims/complex_19_A_a.gif","","","","",""
"","null","html-keyboard-response","107","595125","0.0-25.0-0.2","SS1619125642562","","","null","","","","","","<p><img src= images/blank.png width =""600"" height = ""600"" style=""position:fixed;top:50%; left:50%; transform: translate(-50%, -50%); border:5px solid black"">","","","","","","","",""
"","185","sequential-stimulus-presentation-old","108","595831","0.0-25.0-1.2","SS1619125642562","trial","","40","500","685","images/stimuli/spore_stims/complex_19_A_a.gif","images/stimuli/spore_stims/complex_14_A_b.gif","forced_short","","8","complex_dissimilar","images/stimuli/spore_stims/complex_14_A_b.gif","","","","",""
"","null","html-keyboard-response","109","597016","0.0-25.0-0.3","SS1619125642562","","","null","","","","","","<p><img src= images/blank.png width =""600"" height = ""600"" style=""position:fixed;top:50%; left:50%; transform: translate(-50%, -50%); border:5px solid black"">","","","","","","","",""
"","349","sequential-stimulus-presentation-old","110","597885","0.0-25.0-1.3","SS1619125642562","trial","","40","500","849","images/stimuli/spore_stims/complex_19_A_a.gif","images/stimuli/spore_stims/complex_14_A_b.gif","forced_short","","8","complex_dissimilar","images/stimuli/spore_stims/complex_19_A_a.gif","","","","",""
"","1388","survey-multi-choice","111","599278","0.0-26.0","SS1619125642562","math_question","","","","","","","","","","","","{""Q0"":""8""}","[0]","8","",""
"","null","html-keyboard-response","112","600335","0.0-27.0-0.0","SS1619125642562","","","null","","","","","","<p><img src= images/blank.png width =""600"" height = ""600"" style=""position:fixed;top:50%; left:50%; transform: translate(-50%, -50%); border:5px solid black"">","","","","","","","",""
"","167","sequential-stimulus-presentation-old","113","610518","0.0-27.0-1.0","SS1619125642562","trial","","40","500","667","images/stimuli/spore_stims/simple_01_A_a.gif","images/stimuli/spore_stims/simple_18_A_b.gif","forced_long","","9","simple_dissimilar","images/stimuli/spore_stims/simple_18_A_b.gif","","","","",""
"","null","html-keyboard-response","114","611585","0.0-27.0-0.1","SS1619125642562","","","null","","","","","","<p><img src= images/blank.png width =""600"" height = ""600"" style=""position:fixed;top:50%; left:50%; transform: translate(-50%, -50%); border:5px solid black"">","","","","","","","",""
"","508","sequential-stimulus-presentation-old","115","612613","0.0-27.0-1.1","SS1619125642562","trial","","40","500","1008","images/stimuli/spore_stims/simple_01_A_a.gif","images/stimuli/spore_stims/simple_18_A_b.gif","forced_long","","9","simple_dissimilar","images/stimuli/spore_stims/simple_18_A_b.gif","","","","",""
"","null","html-keyboard-response","116","613545","0.0-27.0-0.2","SS1619125642562","","","null","","","","","","<p><img src= images/blank.png width =""600"" height = ""600"" style=""position:fixed;top:50%; left:50%; transform: translate(-50%, -50%); border:5px solid black"">","","","","","","","",""
"","14972","sequential-stimulus-presentation-old","117","629037","0.0-27.0-1.2","SS1619125642562","trial","","40","500","15472","images/stimuli/spore_stims/simple_01_A_a.gif","images/stimuli/spore_stims/simple_18_A_b.gif","forced_long","","9","simple_dissimilar","images/stimuli/spore_stims/simple_18_A_b.gif","","","","",""
"","null","html-keyboard-response","118","630236","0.0-27.0-0.3","SS1619125642562","","","null","","","","","","<p><img src= images/blank.png width =""600"" height = ""600"" style=""position:fixed;top:50%; left:50%; transform: translate(-50%, -50%); border:5px solid black"">","","","","","","","",""
"","50","sequential-stimulus-presentation-old","119","630805","0.0-27.0-1.3","SS1619125642562","trial","","40","500","550","images/stimuli/spore_stims/simple_01_A_a.gif","images/stimuli/spore_stims/simple_18_A_b.gif","forced_long","","9","simple_dissimilar","images/stimuli/spore_stims/simple_01_A_a.gif","","","","",""
"","null","html-keyboard-response","120","631636","0.0-27.0-0.4","SS1619125642562","","","null","","","","","","<p><img src= images/blank.png width =""600"" height = ""600"" style=""position:fixed;top:50%; left:50%; transform: translate(-50%, -50%); border:5px solid black"">","","","","","","","",""
"","291","sequential-stimulus-presentation-old","121","632445","0.0-27.0-1.4","SS1619125642562","trial","","40","500","791","images/stimuli/spore_stims/simple_01_A_a.gif","images/stimuli/spore_stims/simple_18_A_b.gif","forced_long","","9","simple_dissimilar","images/stimuli/spore_stims/simple_18_A_b.gif","","","","",""
"","null","html-keyboard-response","122","633356","0.0-27.0-0.5","SS1619125642562","","","null","","","","","","<p><img src= images/blank.png width =""600"" height = ""600"" style=""position:fixed;top:50%; left:50%; transform: translate(-50%, -50%); border:5px solid black"">","","","","","","","",""
"","507","sequential-stimulus-presentation-old","123","634382","0.0-27.0-1.5","SS1619125642562","trial","","40","500","1007","images/stimuli/spore_stims/simple_01_A_a.gif","images/stimuli/spore_stims/simple_18_A_b.gif","forced_long","","9","simple_dissimilar","images/stimuli/spore_stims/simple_18_A_b.gif","","","","",""
"","1979","survey-multi-choice","124","636363","0.0-28.0","SS1619125642562","math_question","","","","","","","","","","","","{""Q0"":""8""}","[0]","8","",""
"","null","html-keyboard-response","125","637415","0.0-29.0-0.0","SS1619125642562","","","null","","","","","","<p><img src= images/blank.png width =""600"" height = ""600"" style=""position:fixed;top:50%; left:50%; transform: translate(-50%, -50%); border:5px solid black"">","","","","","","","",""
"","1510","sequential-stimulus-presentation-old","126","639445","0.0-29.0-1.0","SS1619125642562","trial","","40","500","2010","images/stimuli/spore_stims/simple_07_A_b.gif","images/stimuli/spore_stims/simple_14_A_a.gif","self_paced","","10","simple_dissimilar","images/stimuli/spore_stims/simple_14_A_a.gif","","","","",""
"","null","html-keyboard-response","127","640716","0.0-29.0-0.1","SS1619125642562","","","null","","","","","","<p><img src= images/blank.png width =""600"" height = ""600"" style=""position:fixed;top:50%; left:50%; transform: translate(-50%, -50%); border:5px solid black"">","","","","","","","",""
"","2228","sequential-stimulus-presentation-old","128","643454","0.0-29.0-1.1","SS1619125642562","trial","","40","500","2728","images/stimuli/spore_stims/simple_07_A_b.gif","images/stimuli/spore_stims/simple_14_A_a.gif","self_paced","","10","simple_dissimilar","images/stimuli/spore_stims/simple_14_A_a.gif","","","","",""
"","null","html-keyboard-response","129","644426","0.0-29.0-0.2","SS1619125642562","","","null","","","","","","<p><img src= images/blank.png width =""600"" height = ""600"" style=""position:fixed;top:50%; left:50%; transform: translate(-50%, -50%); border:5px solid black"">","","","","","","","",""
"","420","sequential-stimulus-presentation-old","130","645365","0.0-29.0-1.2","SS1619125642562","trial","","40","500","920","images/stimuli/spore_stims/simple_07_A_b.gif","images/stimuli/spore_stims/simple_14_A_a.gif","self_paced","","10","simple_dissimilar","images/stimuli/spore_stims/simple_14_A_a.gif","","","","",""
"","null","html-keyboard-response","131","646436","0.0-29.0-0.3","SS1619125642562","","","null","","","","","","<p><img src= images/blank.png width =""600"" height = ""600"" style=""position:fixed;top:50%; left:50%; transform: translate(-50%, -50%); border:5px solid black"">","","","","","","","",""
"","491","sequential-stimulus-presentation-old","132","647447","0.0-29.0-1.3","SS1619125642562","trial","","40","500","991","images/stimuli/spore_stims/simple_07_A_b.gif","images/stimuli/spore_stims/simple_14_A_a.gif","self_paced","","10","simple_dissimilar","images/stimuli/spore_stims/simple_14_A_a.gif","","","","",""
"","2044","survey-multi-choice","133","649500","0.0-30.0","SS1619125642562","math_question","","","","","","","","","","","","{""Q0"":""4""}","[0]","4","",""
"","null","html-keyboard-response","134","650365","0.0-31.0-0.0","SS1619125642562","","","null","","","","","","<p><img src= images/blank.png width =""600"" height = ""600"" style=""position:fixed;top:50%; left:50%; transform: translate(-50%, -50%); border:5px solid black"">","","","","","","","",""
"","191","sequential-stimulus-presentation-old","135","650677","0.0-31.0-1.0","SS1619125642562","trial","","40","500","691","images/stimuli/spore_stims/simple_15_A_a.gif","images/stimuli/spore_stims/simple_02_A_b.gif","forced_short","","11","simple_dissimilar","images/stimuli/spore_stims/simple_02_A_b.gif","","","","",""
"","null","html-keyboard-response","136","651905","0.0-31.0-0.1","SS1619125642562","","","null","","","","","","<p><img src= images/blank.png width =""600"" height = ""600"" style=""position:fixed;top:50%; left:50%; transform: translate(-50%, -50%); border:5px solid black"">","","","","","","","",""
"","116","sequential-stimulus-presentation-old","137","652541","0.0-31.0-1.1","SS1619125642562","trial","","40","500","616","images/stimuli/spore_stims/simple_15_A_a.gif","images/stimuli/spore_stims/simple_02_A_b.gif","forced_short","","11","simple_dissimilar","images/stimuli/spore_stims/simple_02_A_b.gif","","","","",""
"","null","html-keyboard-response","138","653465","0.0-31.0-0.2","SS1619125642562","","","null","","","","","","<p><img src= images/blank.png width =""600"" height = ""600"" style=""position:fixed;top:50%; left:50%; transform: translate(-50%, -50%); border:5px solid black"">","","","","","","","",""
"","164","sequential-stimulus-presentation-old","139","654150","0.0-31.0-1.2","SS1619125642562","trial","","40","500","664","images/stimuli/spore_stims/simple_15_A_a.gif","images/stimuli/spore_stims/simple_02_A_b.gif","forced_short","","11","simple_dissimilar","images/stimuli/spore_stims/simple_02_A_b.gif","","","","",""
"","null","html-keyboard-response","140","655025","0.0-31.0-0.3","SS1619125642562","","","null","","","","","","<p><img src= images/blank.png width =""600"" height = ""600"" style=""position:fixed;top:50%; left:50%; transform: translate(-50%, -50%); border:5px solid black"">","","","","","","","",""
"","637","sequential-stimulus-presentation-old","141","656182","0.0-31.0-1.3","SS1619125642562","trial","","40","500","1137","images/stimuli/spore_stims/simple_15_A_a.gif","images/stimuli/spore_stims/simple_02_A_b.gif","forced_short","","11","simple_dissimilar","images/stimuli/spore_stims/simple_02_A_b.gif","","","","",""
"","null","html-keyboard-response","142","657125","0.0-31.0-0.4","SS1619125642562","","","null","","","","","","<p><img src= images/blank.png width =""600"" height = ""600"" style=""position:fixed;top:50%; left:50%; transform: translate(-50%, -50%); border:5px solid black"">","","","","","","","",""
"","382","sequential-stimulus-presentation-old","143","658023","0.0-31.0-1.4","SS1619125642562","trial","","40","500","882","images/stimuli/spore_stims/simple_15_A_a.gif","images/stimuli/spore_stims/simple_02_A_b.gif","forced_short","","11","simple_dissimilar","images/stimuli/spore_stims/simple_15_A_a.gif","","","","",""
"[{""page_index"":0,""viewing_time"":11839}]","11839","instructions","144","669871","0.0-32.0","SS1619125642562","instructions","","","","","","","","","","","","","","","",""
"","33291","survey-likert","145","703167","0.0-33.0","SS1619125642562","similarity_question","","","","","","","","","","","","{""Q0"":2}","[0]","","images/stimuli/spore_stims/complex_01_A_b.gif","images/stimuli/spore_stims/complex_20_A_a.gif"
"","5172","survey-likert","146","708344","0.0-34.0","SS1619125642562","similarity_question","","","","","","","","","","","","{""Q0"":4}","[0]","","images/stimuli/spore_stims/complex_19_A_a.gif","images/stimuli/spore_stims/complex_14_A_b.gif"
"","2378","survey-likert","147","710725","0.0-35.0","SS1619125642562","similarity_question","","","","","","","","","","","","{""Q0"":6}","[0]","","images/stimuli/spore_stims/simple_02_A_b.gif","images/stimuli/spore_stims/simple_15_A_a.gif"
"","4258","survey-likert","148","714987","0.0-36.0","SS1619125642562","similarity_question","","","","","","","","","","","","{""Q0"":3}","[0]","","images/stimuli/spore_stims/complex_06_A_b.gif","images/stimuli/spore_stims/complex_04_A_a.gif"
"","9229","survey-likert","149","724221","0.0-37.0","SS1619125642562","similarity_question","","","","","","","","","","","","{""Q0"":2}","[0]","","images/stimuli/spore_stims/simple_14_A_a.gif","images/stimuli/spore_stims/simple_07_A_b.gif"
"","4504","survey-likert","150","728731","0.0-38.0","SS1619125642562","similarity_question","","","","","","","","","","","","{""Q0"":4}","[0]","","images/stimuli/spore_stims/simple_20_A_b.gif","images/stimuli/spore_stims/simple_12_A_a.gif"
"","4195","survey-likert","151","732931","0.0-39.0","SS1619125642562","similarity_question","","","","","","","","","","","","{""Q0"":4}","[0]","","images/stimuli/spore_stims/simple_11_A_b.gif","images/stimuli/spore_stims/simple_18_A_a.gif"
"","5217","survey-likert","152","738153","0.0-40.0","SS1619125642562","similarity_question","","","","","","","","","","","","{""Q0"":4}","[0]","","images/stimuli/spore_stims/complex_20_A_b.gif","images/stimuli/spore_stims/complex_13_A_a.gif"
"","5647","survey-likert","153","743805","0.0-41.0","SS1619125642562","similarity_question","","","","","","","","","","","","{""Q0"":0}","[0]","","images/stimuli/spore_stims/complex_12_A_a.gif","images/stimuli/spore_stims/complex_16_A_b.gif"
"","3376","survey-likert","154","747184","0.0-42.0","SS1619125642562","similarity_question","","","","","","","","","","","","{""Q0"":4}","[0]","","images/stimuli/spore_stims/simple_02_A_a.gif","images/stimuli/spore_stims/simple_14_A_b.gif"
"","6732","survey-likert","155","753920","0.0-43.0","SS1619125642562","similarity_question","","","","","","","","","","","","{""Q0"":4}","[0]","","images/stimuli/spore_stims/complex_11_A_a.gif","images/stimuli/spore_stims/complex_17_A_b.gif"
"","3456","survey-likert","156","757379","0.0-44.0","SS1619125642562","similarity_question","","","","","","","","","","","","{""Q0"":4}","[0]","","images/stimuli/spore_stims/simple_01_A_a.gif","images/stimuli/spore_stims/simple_18_A_b.gif"
"[{""page_index"":0,""viewing_time"":9404}]","9404","instructions","157","766786","0.0-45.0","SS1619125642562","instructions","","","","","","","","","","","","","","","",""
"","10707","survey-likert","158","777497","0.0-46.0","SS1619125642562","","","","","","","","","images/stimuli/spore_stims/complex_20_A_a.gif","","","","{""Q0"":5}","[0]","","",""
"","3017","survey-likert","159","780518","0.0-47.0","SS1619125642562","","","","","","","","","images/stimuli/spore_stims/simple_14_A_a.gif","","","","{""Q0"":0}","[0]","","",""
"","2353","survey-likert","160","782876","0.0-48.0","SS1619125642562","","","","","","","","","images/stimuli/spore_stims/complex_20_A_b.gif","","","","{""Q0"":5}","[0]","","",""
"","1945","survey-likert","161","784826","0.0-49.0","SS1619125642562","","","","","","","","","images/stimuli/spore_stims/simple_11_A_b.gif","","","","{""Q0"":0}","[0]","","",""
"","2185","survey-likert","162","787016","0.0-50.0","SS1619125642562","","","","","","","","","images/stimuli/spore_stims/simple_02_A_b.gif","","","","{""Q0"":0}","[0]","","",""
"","2944","survey-likert","163","789965","0.0-51.0","SS1619125642562","","","","","","","","","images/stimuli/spore_stims/complex_17_A_b.gif","","","","{""Q0"":5}","[0]","","",""
"","2238","survey-likert","164","792208","0.0-52.0","SS1619125642562","","","","","","","","","images/stimuli/spore_stims/complex_16_A_b.gif","","","","{""Q0"":6}","[0]","","",""
"","1566","survey-likert","165","793779","0.0-53.0","SS1619125642562","","","","","","","","","images/stimuli/spore_stims/simple_18_A_b.gif","","","","{""Q0"":0}","[0]","","",""
"","2245","survey-likert","166","796028","0.0-54.0","SS1619125642562","","","","","","","","","images/stimuli/spore_stims/complex_19_A_a.gif","","","","{""Q0"":5}","[0]","","",""
"","2402","survey-likert","167","798435","0.0-55.0","SS1619125642562","","","","","","","","","images/stimuli/spore_stims/complex_04_A_a.gif","","","","{""Q0"":5}","[0]","","",""
"","3626","survey-likert","168","802067","0.0-56.0","SS1619125642562","","","","","","","","","images/stimuli/spore_stims/simple_20_A_b.gif","","","","{""Q0"":1}","[0]","","",""
"","1750","survey-likert","169","803822","0.0-57.0","SS1619125642562","","","","","","","","","images/stimuli/spore_stims/simple_14_A_b.gif","","","","{""Q0"":0}","[0]","","",""
"[{""page_index"":0,""viewing_time"":2278}]","2278","instructions","170","806103","0.0-58.0","SS1619125642562","instructions","","","","","","","","","","","","","","","",""
"","2179","demog-age","171","808288","0.0-59.0","SS1619125642562","","","","","","","","","","","","","{""age"":""19""}","","","",""
"","4203","demog-ethnic-US","172","812497","0.0-60.0","SS1619125642562","","","","","","","","","","","","","{""ethnicity"":[""White""]}","[0]","","",""
"","7078","demog-gender-and-education","173","819582","0.0-61.0","SS1619125642562","","","","","","","","","","","","","{""gender"":""Male"",""education"":""High school diploma""}","[0,1]","","",""
"","11487","survey-text","174","831075","0.0-62.0","SS1619125642562","feedback","","","","","","","","","","","","{""Q0"":""No""}","","","",""
"[{""page_index"":0,""viewing_time"":1762}]","1762","instructions","175","832840","0.0-63.0","SS1619125642562","instructions","","","","","","","","","","","","","","","",""
