"view_history","rt","trial_type","trial_index","time_elapsed","internal_node_id","subject","stimulus_type","trial_stimulus","key_press","minimum_viewing_duration","trial_looking_time","block_deviant","block_background","exposure_type","stimulus","block_number","block_type","stimulus_displayed","responses","question_order","math_correct_answer","stimulus_left","stimulus_right"
"[{""page_index"":0,""viewing_time"":4889.04999999977}]","4889.569999999367","instructions","0","4891","0.0-0.0","SS1619205742558","","","","","","","","","","","","","","","","",""
"[{""page_index"":0,""viewing_time"":24719.78500000023},{""page_index"":1,""viewing_time"":9968.324999999822}]","34688.52000000061","instructions","1","42475","0.0-1.0","SS1619205742558","instructions","","","","","","","","","","","","","","","",""
"","7245.79999999969","sequential-stimulus-presentation-old","2","50229","0.0-2.0","SS1619205742558","","","40","500","7745.79999999969","null","null","self_paced","","","","","","","","",""
"","9063.32999999995","sequential-stimulus-presentation-old","3","59804","0.0-3.0","SS1619205742558","","","40","500","9563.32999999995","null","null","self_paced","","","","","","","","",""
"[{""page_index"":0,""viewing_time"":71324.60999999967}]","71324.95500000005","instructions","4","131130","0.0-4.0","SS1619205742558","instructions","","","","","","","","","","","","","","","",""
"","454.5500000003958","sequential-stimulus-presentation-old","5","141588","0.0-5.0","SS1619205742558","","","40","500","954.5500000003958","null","null","forced_long","","","","","","","","",""
"","2927.0349999997125","sequential-stimulus-presentation-old","6","144619","0.0-6.0","SS1619205742558","","","40","500","3427.0349999997125","null","null","forced_long","","","","","","","","",""
"[{""page_index"":0,""viewing_time"":2493.8350000002247}]","2494.15000000046","instructions","7","147114","0.0-7.0","SS1619205742558","instructions","","","","","","","","","","","","","","","",""
"[{""page_index"":0,""viewing_time"":16974.054999999673},{""page_index"":1,""viewing_time"":19807.875000000437},{""page_index"":2,""viewing_time"":6496.140000000189},{""page_index"":3,""viewing_time"":17175.97999999998},{""page_index"":4,""viewing_time"":880.0750000000116}]","61334.530000000086","instructions","8","208451","0.0-8.0","SS1619205742558","instructions","","","","","","","","","","","","","","","",""
"","null","html-keyboard-response","9","209464","0.0-9.0-0.0","SS1619205742558","","","null","","","","","","<p><img src= images/blank.png width =""600"" height = ""600"" style=""position:fixed;top:50%; left:50%; transform: translate(-50%, -50%); border:5px solid black"">","","","","","","","",""
"","7707.449999999895","sequential-stimulus-presentation-old","10","217684","0.0-9.0-1.0","SS1619205742558","trial","","40","500","8207.449999999895","images/stimuli/spore_stims/simple_01_A_b.gif","images/stimuli/spore_stims/simple_15_A_a.gif","self_paced","","0","simple_dissimilar","images/stimuli/spore_stims/simple_15_A_a.gif","","","","",""
"","null","html-keyboard-response","11","218651","0.0-9.0-0.1","SS1619205742558","","","null","","","","","","<p><img src= images/blank.png width =""600"" height = ""600"" style=""position:fixed;top:50%; left:50%; transform: translate(-50%, -50%); border:5px solid black"">","","","","","","","",""
"","15912.994999999675","sequential-stimulus-presentation-old","12","235068","0.0-9.0-1.1","SS1619205742558","trial","","40","500","16412.994999999675","images/stimuli/spore_stims/simple_01_A_b.gif","images/stimuli/spore_stims/simple_15_A_a.gif","self_paced","","0","simple_dissimilar","images/stimuli/spore_stims/simple_15_A_a.gif","","","","",""
"","null","html-keyboard-response","13","236158","0.0-9.0-0.2","SS1619205742558","","","null","","","","","","<p><img src= images/blank.png width =""600"" height = ""600"" style=""position:fixed;top:50%; left:50%; transform: translate(-50%, -50%); border:5px solid black"">","","","","","","","",""
"","2292.844999999914","sequential-stimulus-presentation-old","14","238955","0.0-9.0-1.2","SS1619205742558","trial","","40","500","2792.844999999914","images/stimuli/spore_stims/simple_01_A_b.gif","images/stimuli/spore_stims/simple_15_A_a.gif","self_paced","","0","simple_dissimilar","images/stimuli/spore_stims/simple_15_A_a.gif","","","","",""
"","null","html-keyboard-response","15","239883","0.0-9.0-0.3","SS1619205742558","","","null","","","","","","<p><img src= images/blank.png width =""600"" height = ""600"" style=""position:fixed;top:50%; left:50%; transform: translate(-50%, -50%); border:5px solid black"">","","","","","","","",""
"","232.46000000016647","sequential-stimulus-presentation-old","16","240620","0.0-9.0-1.3","SS1619205742558","trial","","40","500","732.4600000001665","images/stimuli/spore_stims/simple_01_A_b.gif","images/stimuli/spore_stims/simple_15_A_a.gif","self_paced","","0","simple_dissimilar","images/stimuli/spore_stims/simple_15_A_a.gif","","","","",""
"","3538.504999999539","survey-multi-choice","17","244163","0.0-10.0","SS1619205742558","math_question","","","","","","","","","","","","{""Q0"":""4""}","[0]","4","",""
"","null","html-keyboard-response","18","245428","0.0-11.0-0.0","SS1619205742558","","","null","","","","","","<p><img src= images/blank.png width =""600"" height = ""600"" style=""position:fixed;top:50%; left:50%; transform: translate(-50%, -50%); border:5px solid black"">","","","","","","","",""
"","2662.1500000001106","sequential-stimulus-presentation-old","19","248596","0.0-11.0-1.0","SS1619205742558","trial","","40","500","3162.1500000001106","images/stimuli/spore_stims/complex_19_A_b.gif","images/stimuli/spore_stims/complex_12_A_a.gif","self_paced","","1","complex_dissimilar","images/stimuli/spore_stims/complex_12_A_a.gif","","","","",""
"","null","html-keyboard-response","20","249430","0.0-11.0-0.1","SS1619205742558","","","null","","","","","","<p><img src= images/blank.png width =""600"" height = ""600"" style=""position:fixed;top:50%; left:50%; transform: translate(-50%, -50%); border:5px solid black"">","","","","","","","",""
"","372.18000000028405","sequential-stimulus-presentation-old","21","250307","0.0-11.0-1.1","SS1619205742558","trial","","40","500","872.180000000284","images/stimuli/spore_stims/complex_19_A_b.gif","images/stimuli/spore_stims/complex_12_A_a.gif","self_paced","","1","complex_dissimilar","images/stimuli/spore_stims/complex_12_A_a.gif","","","","",""
"","null","html-keyboard-response","22","251428","0.0-11.0-0.2","SS1619205742558","","","null","","","","","","<p><img src= images/blank.png width =""600"" height = ""600"" style=""position:fixed;top:50%; left:50%; transform: translate(-50%, -50%); border:5px solid black"">","","","","","","","",""
"","2107.6899999997986","sequential-stimulus-presentation-old","23","254051","0.0-11.0-1.2","SS1619205742558","trial","","40","500","2607.6899999997986","images/stimuli/spore_stims/complex_19_A_b.gif","images/stimuli/spore_stims/complex_12_A_a.gif","self_paced","","1","complex_dissimilar","images/stimuli/spore_stims/complex_12_A_a.gif","","","","",""
"","null","html-keyboard-response","24","255246","0.0-11.0-0.3","SS1619205742558","","","null","","","","","","<p><img src= images/blank.png width =""600"" height = ""600"" style=""position:fixed;top:50%; left:50%; transform: translate(-50%, -50%); border:5px solid black"">","","","","","","","",""
"","17315.090000000084","sequential-stimulus-presentation-old","25","273076","0.0-11.0-1.3","SS1619205742558","trial","","40","500","17815.090000000084","images/stimuli/spore_stims/complex_19_A_b.gif","images/stimuli/spore_stims/complex_12_A_a.gif","self_paced","","1","complex_dissimilar","images/stimuli/spore_stims/complex_12_A_a.gif","","","","",""
"","null","html-keyboard-response","26","274318","0.0-11.0-0.4","SS1619205742558","","","null","","","","","","<p><img src= images/blank.png width =""600"" height = ""600"" style=""position:fixed;top:50%; left:50%; transform: translate(-50%, -50%); border:5px solid black"">","","","","","","","",""
"","1569.9199999999255","sequential-stimulus-presentation-old","27","276395","0.0-11.0-1.4","SS1619205742558","trial","","40","500","2069.9199999999255","images/stimuli/spore_stims/complex_19_A_b.gif","images/stimuli/spore_stims/complex_12_A_a.gif","self_paced","","1","complex_dissimilar","images/stimuli/spore_stims/complex_12_A_a.gif","","","","",""
"","2597.2950000004494","survey-multi-choice","28","278995","0.0-12.0","SS1619205742558","math_question","","","","","","","","","","","","{""Q0"":""18""}","[0]","18","",""
"","null","html-keyboard-response","29","280074","0.0-13.0-0.0","SS1619205742558","","","null","","","","","","<p><img src= images/blank.png width =""600"" height = ""600"" style=""position:fixed;top:50%; left:50%; transform: translate(-50%, -50%); border:5px solid black"">","","","","","","","",""
"","692.6750000002212","sequential-stimulus-presentation-old","30","280875","0.0-13.0-1.0","SS1619205742558","trial","","40","500","1192.6750000002212","images/stimuli/spore_stims/simple_04_A_a.gif","images/stimuli/spore_stims/simple_18_A_b.gif","forced_short","","2","simple_dissimilar","images/stimuli/spore_stims/simple_18_A_b.gif","","","","",""
"","null","html-keyboard-response","31","281869","0.0-13.0-0.1","SS1619205742558","","","null","","","","","","<p><img src= images/blank.png width =""600"" height = ""600"" style=""position:fixed;top:50%; left:50%; transform: translate(-50%, -50%); border:5px solid black"">","","","","","","","",""
"","72324.04500000027","sequential-stimulus-presentation-old","32","354709","0.0-13.0-1.1","SS1619205742558","trial","","40","500","72824.04500000027","images/stimuli/spore_stims/simple_04_A_a.gif","images/stimuli/spore_stims/simple_18_A_b.gif","forced_short","","2","simple_dissimilar","images/stimuli/spore_stims/simple_18_A_b.gif","","","","",""
"","null","html-keyboard-response","33","355794","0.0-13.0-0.2","SS1619205742558","","","null","","","","","","<p><img src= images/blank.png width =""600"" height = ""600"" style=""position:fixed;top:50%; left:50%; transform: translate(-50%, -50%); border:5px solid black"">","","","","","","","",""
"","87.2900000003865","sequential-stimulus-presentation-old","34","356388","0.0-13.0-1.2","SS1619205742558","trial","","40","500","587.2900000003865","images/stimuli/spore_stims/simple_04_A_a.gif","images/stimuli/spore_stims/simple_18_A_b.gif","forced_short","","2","simple_dissimilar","images/stimuli/spore_stims/simple_18_A_b.gif","","","","",""
"","null","html-keyboard-response","35","357418","0.0-13.0-0.3","SS1619205742558","","","null","","","","","","<p><img src= images/blank.png width =""600"" height = ""600"" style=""position:fixed;top:50%; left:50%; transform: translate(-50%, -50%); border:5px solid black"">","","","","","","","",""
"","8088.144999999669","sequential-stimulus-presentation-old","36","366020","0.0-13.0-1.3","SS1619205742558","trial","","40","500","8588.14499999967","images/stimuli/spore_stims/simple_04_A_a.gif","images/stimuli/spore_stims/simple_18_A_b.gif","forced_short","","2","simple_dissimilar","images/stimuli/spore_stims/simple_04_A_a.gif","","","","",""
"","null","html-keyboard-response","37","366924","0.0-13.0-0.4","SS1619205742558","","","null","","","","","","<p><img src= images/blank.png width =""600"" height = ""600"" style=""position:fixed;top:50%; left:50%; transform: translate(-50%, -50%); border:5px solid black"">","","","","","","","",""
"","6711.475000000093","sequential-stimulus-presentation-old","38","374140","0.0-13.0-1.4","SS1619205742558","trial","","40","500","7211.475000000093","images/stimuli/spore_stims/simple_04_A_a.gif","images/stimuli/spore_stims/simple_18_A_b.gif","forced_short","","2","simple_dissimilar","images/stimuli/spore_stims/simple_04_A_a.gif","","","","",""
"","2515.6899999992456","survey-multi-choice","39","376658","0.0-14.0","SS1619205742558","math_question","","","","","","","","","","","","{""Q0"":""8""}","[0]","8","",""
"","null","html-keyboard-response","40","377592","0.0-15.0-0.0","SS1619205742558","","","null","","","","","","<p><img src= images/blank.png width =""600"" height = ""600"" style=""position:fixed;top:50%; left:50%; transform: translate(-50%, -50%); border:5px solid black"">","","","","","","","",""
"","4067.5000000001164","sequential-stimulus-presentation-old","41","391667","0.0-15.0-1.0","SS1619205742558","trial","","40","500","4567.500000000116","images/stimuli/spore_stims/complex_15_A_b.gif","images/stimuli/spore_stims/complex_11_A_a.gif","forced_long","","3","complex_dissimilar","images/stimuli/spore_stims/complex_11_A_a.gif","","","","",""
"","null","html-keyboard-response","42","392946","0.0-15.0-0.1","SS1619205742558","","","null","","","","","","<p><img src= images/blank.png width =""600"" height = ""600"" style=""position:fixed;top:50%; left:50%; transform: translate(-50%, -50%); border:5px solid black"">","","","","","","","",""
"","17225.10000000056","sequential-stimulus-presentation-old","43","410684","0.0-15.0-1.1","SS1619205742558","trial","","40","500","17725.10000000056","images/stimuli/spore_stims/complex_15_A_b.gif","images/stimuli/spore_stims/complex_11_A_a.gif","forced_long","","3","complex_dissimilar","images/stimuli/spore_stims/complex_15_A_b.gif","","","","",""
"","null","html-keyboard-response","44","411957","0.0-15.0-0.2","SS1619205742558","","","null","","","","","","<p><img src= images/blank.png width =""600"" height = ""600"" style=""position:fixed;top:50%; left:50%; transform: translate(-50%, -50%); border:5px solid black"">","","","","","","","",""
"","6937.049999999523","sequential-stimulus-presentation-old","45","419411","0.0-15.0-1.2","SS1619205742558","trial","","40","500","7437.049999999523","images/stimuli/spore_stims/complex_15_A_b.gif","images/stimuli/spore_stims/complex_11_A_a.gif","forced_long","","3","complex_dissimilar","images/stimuli/spore_stims/complex_11_A_a.gif","","","","",""
"","null","html-keyboard-response","46","420525","0.0-15.0-0.3","SS1619205742558","","","null","","","","","","<p><img src= images/blank.png width =""600"" height = ""600"" style=""position:fixed;top:50%; left:50%; transform: translate(-50%, -50%); border:5px solid black"">","","","","","","","",""
"","7394.785000000382","sequential-stimulus-presentation-old","47","428437","0.0-15.0-1.3","SS1619205742558","trial","","40","500","7894.785000000382","images/stimuli/spore_stims/complex_15_A_b.gif","images/stimuli/spore_stims/complex_11_A_a.gif","forced_long","","3","complex_dissimilar","images/stimuli/spore_stims/complex_11_A_a.gif","","","","",""
"","null","html-keyboard-response","48","429256","0.0-15.0-0.4","SS1619205742558","","","null","","","","","","<p><img src= images/blank.png width =""600"" height = ""600"" style=""position:fixed;top:50%; left:50%; transform: translate(-50%, -50%); border:5px solid black"">","","","","","","","",""
"","9953.93999999942","sequential-stimulus-presentation-old","49","439716","0.0-15.0-1.4","SS1619205742558","trial","","40","500","10453.93999999942","images/stimuli/spore_stims/complex_15_A_b.gif","images/stimuli/spore_stims/complex_11_A_a.gif","forced_long","","3","complex_dissimilar","images/stimuli/spore_stims/complex_15_A_b.gif","","","","",""
"","4651.945000000531","survey-multi-choice","50","444371","0.0-16.0","SS1619205742558","math_question","","","","","","","","","","","","{""Q0"":""15""}","[0]","15","",""
"","null","html-keyboard-response","51","445271","0.0-17.0-0.0","SS1619205742558","","","null","","","","","","<p><img src= images/blank.png width =""600"" height = ""600"" style=""position:fixed;top:50%; left:50%; transform: translate(-50%, -50%); border:5px solid black"">","","","","","","","",""
"","49.649999999965075","sequential-stimulus-presentation-old","52","455340","0.0-17.0-1.0","SS1619205742558","trial","","40","500","549.6499999999651","images/stimuli/spore_stims/complex_06_A_b.gif","images/stimuli/spore_stims/complex_14_A_a.gif","forced_long","","4","complex_dissimilar","images/stimuli/spore_stims/complex_14_A_a.gif","","","","",""
"","null","html-keyboard-response","53","456367","0.0-17.0-0.1","SS1619205742558","","","null","","","","","","<p><img src= images/blank.png width =""600"" height = ""600"" style=""position:fixed;top:50%; left:50%; transform: translate(-50%, -50%); border:5px solid black"">","","","","","","","",""
"","7558.044999999751","sequential-stimulus-presentation-old","54","464443","0.0-17.0-1.1","SS1619205742558","trial","","40","500","8058.044999999751","images/stimuli/spore_stims/complex_06_A_b.gif","images/stimuli/spore_stims/complex_14_A_a.gif","forced_long","","4","complex_dissimilar","images/stimuli/spore_stims/complex_06_A_b.gif","","","","",""
"","null","html-keyboard-response","55","465336","0.0-17.0-0.2","SS1619205742558","","","null","","","","","","<p><img src= images/blank.png width =""600"" height = ""600"" style=""position:fixed;top:50%; left:50%; transform: translate(-50%, -50%); border:5px solid black"">","","","","","","","",""
"","5616.320000000123","sequential-stimulus-presentation-old","56","471467","0.0-17.0-1.2","SS1619205742558","trial","","40","500","6116.320000000123","images/stimuli/spore_stims/complex_06_A_b.gif","images/stimuli/spore_stims/complex_14_A_a.gif","forced_long","","4","complex_dissimilar","images/stimuli/spore_stims/complex_14_A_a.gif","","","","",""
"","null","html-keyboard-response","57","472449","0.0-17.0-0.3","SS1619205742558","","","null","","","","","","<p><img src= images/blank.png width =""600"" height = ""600"" style=""position:fixed;top:50%; left:50%; transform: translate(-50%, -50%); border:5px solid black"">","","","","","","","",""
"","8407.520000000659","sequential-stimulus-presentation-old","58","481372","0.0-17.0-1.3","SS1619205742558","trial","","40","500","8907.520000000659","images/stimuli/spore_stims/complex_06_A_b.gif","images/stimuli/spore_stims/complex_14_A_a.gif","forced_long","","4","complex_dissimilar","images/stimuli/spore_stims/complex_14_A_a.gif","","","","",""
"","null","html-keyboard-response","59","482440","0.0-17.0-0.4","SS1619205742558","","","null","","","","","","<p><img src= images/blank.png width =""600"" height = ""600"" style=""position:fixed;top:50%; left:50%; transform: translate(-50%, -50%); border:5px solid black"">","","","","","","","",""
"","8899.46999999939","sequential-stimulus-presentation-old","60","491844","0.0-17.0-1.4","SS1619205742558","trial","","40","500","9399.46999999939","images/stimuli/spore_stims/complex_06_A_b.gif","images/stimuli/spore_stims/complex_14_A_a.gif","forced_long","","4","complex_dissimilar","images/stimuli/spore_stims/complex_14_A_a.gif","","","","",""
"","2739.8999999995576","survey-multi-choice","61","494586","0.0-18.0","SS1619205742558","math_question","","","","","","","","","","","","{""Q0"":""6""}","[0]","6","",""
"","null","html-keyboard-response","62","495592","0.0-19.0-0.0","SS1619205742558","","","null","","","","","","<p><img src= images/blank.png width =""600"" height = ""600"" style=""position:fixed;top:50%; left:50%; transform: translate(-50%, -50%); border:5px solid black"">","","","","","","","",""
"","570.7249999995693","sequential-stimulus-presentation-old","63","496267","0.0-19.0-1.0","SS1619205742558","trial","","40","500","1070.7249999995693","images/stimuli/spore_stims/complex_19_A_a.gif","images/stimuli/spore_stims/complex_07_A_b.gif","forced_short","","5","complex_dissimilar","images/stimuli/spore_stims/complex_07_A_b.gif","","","","",""
"","null","html-keyboard-response","64","497233","0.0-19.0-0.1","SS1619205742558","","","null","","","","","","<p><img src= images/blank.png width =""600"" height = ""600"" style=""position:fixed;top:50%; left:50%; transform: translate(-50%, -50%); border:5px solid black"">","","","","","","","",""
"","18516.89500000066","sequential-stimulus-presentation-old","65","516268","0.0-19.0-1.1","SS1619205742558","trial","","40","500","19016.89500000066","images/stimuli/spore_stims/complex_19_A_a.gif","images/stimuli/spore_stims/complex_07_A_b.gif","forced_short","","5","complex_dissimilar","images/stimuli/spore_stims/complex_07_A_b.gif","","","","",""
"","null","html-keyboard-response","66","517119","0.0-19.0-0.2","SS1619205742558","","","null","","","","","","<p><img src= images/blank.png width =""600"" height = ""600"" style=""position:fixed;top:50%; left:50%; transform: translate(-50%, -50%); border:5px solid black"">","","","","","","","",""
"","13112.5200000006","sequential-stimulus-presentation-old","67","530748","0.0-19.0-1.2","SS1619205742558","trial","","40","500","13612.5200000006","images/stimuli/spore_stims/complex_19_A_a.gif","images/stimuli/spore_stims/complex_07_A_b.gif","forced_short","","5","complex_dissimilar","images/stimuli/spore_stims/complex_19_A_a.gif","","","","",""
"","null","html-keyboard-response","68","531917","0.0-19.0-0.3","SS1619205742558","","","null","","","","","","<p><img src= images/blank.png width =""600"" height = ""600"" style=""position:fixed;top:50%; left:50%; transform: translate(-50%, -50%); border:5px solid black"">","","","","","","","",""
"","7041.750000000233","sequential-stimulus-presentation-old","69","539467","0.0-19.0-1.3","SS1619205742558","trial","","40","500","7541.750000000233","images/stimuli/spore_stims/complex_19_A_a.gif","images/stimuli/spore_stims/complex_07_A_b.gif","forced_short","","5","complex_dissimilar","images/stimuli/spore_stims/complex_07_A_b.gif","","","","",""
"","null","html-keyboard-response","70","540400","0.0-19.0-0.4","SS1619205742558","","","null","","","","","","<p><img src= images/blank.png width =""600"" height = ""600"" style=""position:fixed;top:50%; left:50%; transform: translate(-50%, -50%); border:5px solid black"">","","","","","","","",""
"","8089.260000000708","sequential-stimulus-presentation-old","71","549004","0.0-19.0-1.4","SS1619205742558","trial","","40","500","8589.260000000708","images/stimuli/spore_stims/complex_19_A_a.gif","images/stimuli/spore_stims/complex_07_A_b.gif","forced_short","","5","complex_dissimilar","images/stimuli/spore_stims/complex_07_A_b.gif","","","","",""
"","null","html-keyboard-response","72","550265","0.0-19.0-0.5","SS1619205742558","","","null","","","","","","<p><img src= images/blank.png width =""600"" height = ""600"" style=""position:fixed;top:50%; left:50%; transform: translate(-50%, -50%); border:5px solid black"">","","","","","","","",""
"","11209.319999999949","sequential-stimulus-presentation-old","73","561980","0.0-19.0-1.5","SS1619205742558","trial","","40","500","11709.319999999949","images/stimuli/spore_stims/complex_19_A_a.gif","images/stimuli/spore_stims/complex_07_A_b.gif","forced_short","","5","complex_dissimilar","images/stimuli/spore_stims/complex_07_A_b.gif","","","","",""
"","3251.7950000001583","survey-multi-choice","74","565234","0.0-20.0","SS1619205742558","math_question","","","","","","","","","","","","{""Q0"":""18""}","[0]","18","",""
"","null","html-keyboard-response","75","566521","0.0-21.0-0.0","SS1619205742558","","","null","","","","","","<p><img src= images/blank.png width =""600"" height = ""600"" style=""position:fixed;top:50%; left:50%; transform: translate(-50%, -50%); border:5px solid black"">","","","","","","","",""
"","5662.860000000335","sequential-stimulus-presentation-old","76","572700","0.0-21.0-1.0","SS1619205742558","trial","","40","500","6162.860000000335","images/stimuli/spore_stims/simple_03_A_a.gif","images/stimuli/spore_stims/simple_10_A_b.gif","self_paced","","6","simple_dissimilar","images/stimuli/spore_stims/simple_10_A_b.gif","","","","",""
"","null","html-keyboard-response","77","573637","0.0-21.0-0.1","SS1619205742558","","","null","","","","","","<p><img src= images/blank.png width =""600"" height = ""600"" style=""position:fixed;top:50%; left:50%; transform: translate(-50%, -50%); border:5px solid black"">","","","","","","","",""
"","7164.6599999994505","sequential-stimulus-presentation-old","78","581306","0.0-21.0-1.1","SS1619205742558","trial","","40","500","7664.6599999994505","images/stimuli/spore_stims/simple_03_A_a.gif","images/stimuli/spore_stims/simple_10_A_b.gif","self_paced","","6","simple_dissimilar","images/stimuli/spore_stims/simple_10_A_b.gif","","","","",""
"","null","html-keyboard-response","79","582205","0.0-21.0-0.2","SS1619205742558","","","null","","","","","","<p><img src= images/blank.png width =""600"" height = ""600"" style=""position:fixed;top:50%; left:50%; transform: translate(-50%, -50%); border:5px solid black"">","","","","","","","",""
"","4434.180000000284","sequential-stimulus-presentation-old","80","587154","0.0-21.0-1.2","SS1619205742558","trial","","40","500","4934.180000000284","images/stimuli/spore_stims/simple_03_A_a.gif","images/stimuli/spore_stims/simple_10_A_b.gif","self_paced","","6","simple_dissimilar","images/stimuli/spore_stims/simple_10_A_b.gif","","","","",""
"","null","html-keyboard-response","81","588138","0.0-21.0-0.3","SS1619205742558","","","null","","","","","","<p><img src= images/blank.png width =""600"" height = ""600"" style=""position:fixed;top:50%; left:50%; transform: translate(-50%, -50%); border:5px solid black"">","","","","","","","",""
"","18807.170000000042","sequential-stimulus-presentation-old","82","607459","0.0-21.0-1.3","SS1619205742558","trial","","40","500","19307.170000000042","images/stimuli/spore_stims/simple_03_A_a.gif","images/stimuli/spore_stims/simple_10_A_b.gif","self_paced","","6","simple_dissimilar","images/stimuli/spore_stims/simple_10_A_b.gif","","","","",""
"","null","html-keyboard-response","83","608420","0.0-21.0-0.4","SS1619205742558","","","null","","","","","","<p><img src= images/blank.png width =""600"" height = ""600"" style=""position:fixed;top:50%; left:50%; transform: translate(-50%, -50%); border:5px solid black"">","","","","","","","",""
"","3087.1150000002235","sequential-stimulus-presentation-old","84","612018","0.0-21.0-1.4","SS1619205742558","trial","","40","500","3587.1150000002235","images/stimuli/spore_stims/simple_03_A_a.gif","images/stimuli/spore_stims/simple_10_A_b.gif","self_paced","","6","simple_dissimilar","images/stimuli/spore_stims/simple_10_A_b.gif","","","","",""
"","null","html-keyboard-response","85","612848","0.0-21.0-0.5","SS1619205742558","","","null","","","","","","<p><img src= images/blank.png width =""600"" height = ""600"" style=""position:fixed;top:50%; left:50%; transform: translate(-50%, -50%); border:5px solid black"">","","","","","","","",""
"","7402.9700000000885","sequential-stimulus-presentation-old","86","620756","0.0-21.0-1.5","SS1619205742558","trial","","40","500","7902.9700000000885","images/stimuli/spore_stims/simple_03_A_a.gif","images/stimuli/spore_stims/simple_10_A_b.gif","self_paced","","6","simple_dissimilar","images/stimuli/spore_stims/simple_10_A_b.gif","","","","",""
"","2618.635000000824","survey-multi-choice","87","623378","0.0-22.0","SS1619205742558","math_question","","","","","","","","","","","","{""Q0"":""7""}","[0]","7","",""
"","null","html-keyboard-response","88","624222","0.0-23.0-0.0","SS1619205742558","","","null","","","","","","<p><img src= images/blank.png width =""600"" height = ""600"" style=""position:fixed;top:50%; left:50%; transform: translate(-50%, -50%); border:5px solid black"">","","","","","","","",""
"","949.9050000004936","sequential-stimulus-presentation-old","89","635178","0.0-23.0-1.0","SS1619205742558","trial","","40","500","1449.9050000004936","images/stimuli/spore_stims/simple_05_A_b.gif","images/stimuli/spore_stims/simple_01_A_a.gif","forced_long","","7","simple_dissimilar","images/stimuli/spore_stims/simple_01_A_a.gif","","","","",""
"","null","html-keyboard-response","90","636243","0.0-23.0-0.1","SS1619205742558","","","null","","","","","","<p><img src= images/blank.png width =""600"" height = ""600"" style=""position:fixed;top:50%; left:50%; transform: translate(-50%, -50%); border:5px solid black"">","","","","","","","",""
"","30054.495000000228","sequential-stimulus-presentation-old","91","666803","0.0-23.0-1.1","SS1619205742558","trial","","40","500","30554.495000000228","images/stimuli/spore_stims/simple_05_A_b.gif","images/stimuli/spore_stims/simple_01_A_a.gif","forced_long","","7","simple_dissimilar","images/stimuli/spore_stims/simple_05_A_b.gif","","","","",""
"","null","html-keyboard-response","92","667903","0.0-23.0-0.2","SS1619205742558","","","null","","","","","","<p><img src= images/blank.png width =""600"" height = ""600"" style=""position:fixed;top:50%; left:50%; transform: translate(-50%, -50%); border:5px solid black"">","","","","","","","",""
"","7149.139999999548","sequential-stimulus-presentation-old","93","675570","0.0-23.0-1.2","SS1619205742558","trial","","40","500","7649.139999999548","images/stimuli/spore_stims/simple_05_A_b.gif","images/stimuli/spore_stims/simple_01_A_a.gif","forced_long","","7","simple_dissimilar","images/stimuli/spore_stims/simple_01_A_a.gif","","","","",""
"","null","html-keyboard-response","94","676685","0.0-23.0-0.3","SS1619205742558","","","null","","","","","","<p><img src= images/blank.png width =""600"" height = ""600"" style=""position:fixed;top:50%; left:50%; transform: translate(-50%, -50%); border:5px solid black"">","","","","","","","",""
"","5045.049999999697","sequential-stimulus-presentation-old","95","682236","0.0-23.0-1.3","SS1619205742558","trial","","40","500","5545.049999999697","images/stimuli/spore_stims/simple_05_A_b.gif","images/stimuli/spore_stims/simple_01_A_a.gif","forced_long","","7","simple_dissimilar","images/stimuli/spore_stims/simple_01_A_a.gif","","","","",""
"","null","html-keyboard-response","96","683090","0.0-23.0-0.4","SS1619205742558","","","null","","","","","","<p><img src= images/blank.png width =""600"" height = ""600"" style=""position:fixed;top:50%; left:50%; transform: translate(-50%, -50%); border:5px solid black"">","","","","","","","",""
"","4550.8300000000745","sequential-stimulus-presentation-old","97","688146","0.0-23.0-1.4","SS1619205742558","trial","","40","500","5050.8300000000745","images/stimuli/spore_stims/simple_05_A_b.gif","images/stimuli/spore_stims/simple_01_A_a.gif","forced_long","","7","simple_dissimilar","images/stimuli/spore_stims/simple_01_A_a.gif","","","","",""
"","null","html-keyboard-response","98","689346","0.0-23.0-0.5","SS1619205742558","","","null","","","","","","<p><img src= images/blank.png width =""600"" height = ""600"" style=""position:fixed;top:50%; left:50%; transform: translate(-50%, -50%); border:5px solid black"">","","","","","","","",""
"","4111.104999999981","sequential-stimulus-presentation-old","99","693979","0.0-23.0-1.5","SS1619205742558","trial","","40","500","4611.104999999981","images/stimuli/spore_stims/simple_05_A_b.gif","images/stimuli/spore_stims/simple_01_A_a.gif","forced_long","","7","simple_dissimilar","images/stimuli/spore_stims/simple_05_A_b.gif","","","","",""
"","2322.6500000000233","survey-multi-choice","100","696306","0.0-24.0","SS1619205742558","math_question","","","","","","","","","","","","{""Q0"":""10""}","[0]","10","",""
"","null","html-keyboard-response","101","697433","0.0-25.0-0.0","SS1619205742558","","","null","","","","","","<p><img src= images/blank.png width =""600"" height = ""600"" style=""position:fixed;top:50%; left:50%; transform: translate(-50%, -50%); border:5px solid black"">","","","","","","","",""
"","822.1550000007264","sequential-stimulus-presentation-old","102","698363","0.0-25.0-1.0","SS1619205742558","trial","","40","500","1322.1550000007264","images/stimuli/spore_stims/complex_20_A_b.gif","images/stimuli/spore_stims/complex_15_A_a.gif","forced_short","","8","complex_dissimilar","images/stimuli/spore_stims/complex_15_A_a.gif","","","","",""
"","null","html-keyboard-response","103","699474","0.0-25.0-0.1","SS1619205742558","","","null","","","","","","<p><img src= images/blank.png width =""600"" height = ""600"" style=""position:fixed;top:50%; left:50%; transform: translate(-50%, -50%); border:5px solid black"">","","","","","","","",""
"","3070.5550000001676","sequential-stimulus-presentation-old","104","703051","0.0-25.0-1.1","SS1619205742558","trial","","40","500","3570.5550000001676","images/stimuli/spore_stims/complex_20_A_b.gif","images/stimuli/spore_stims/complex_15_A_a.gif","forced_short","","8","complex_dissimilar","images/stimuli/spore_stims/complex_15_A_a.gif","","","","",""
"","null","html-keyboard-response","105","704291","0.0-25.0-0.2","SS1619205742558","","","null","","","","","","<p><img src= images/blank.png width =""600"" height = ""600"" style=""position:fixed;top:50%; left:50%; transform: translate(-50%, -50%); border:5px solid black"">","","","","","","","",""
"","9046.739999999758","sequential-stimulus-presentation-old","106","713843","0.0-25.0-1.2","SS1619205742558","trial","","40","500","9546.739999999758","images/stimuli/spore_stims/complex_20_A_b.gif","images/stimuli/spore_stims/complex_15_A_a.gif","forced_short","","8","complex_dissimilar","images/stimuli/spore_stims/complex_15_A_a.gif","","","","",""
"","null","html-keyboard-response","107","714777","0.0-25.0-0.3","SS1619205742558","","","null","","","","","","<p><img src= images/blank.png width =""600"" height = ""600"" style=""position:fixed;top:50%; left:50%; transform: translate(-50%, -50%); border:5px solid black"">","","","","","","","",""
"","5045.160000000615","sequential-stimulus-presentation-old","108","720332","0.0-25.0-1.3","SS1619205742558","trial","","40","500","5545.160000000615","images/stimuli/spore_stims/complex_20_A_b.gif","images/stimuli/spore_stims/complex_15_A_a.gif","forced_short","","8","complex_dissimilar","images/stimuli/spore_stims/complex_20_A_b.gif","","","","",""
"","null","html-keyboard-response","109","721231","0.0-25.0-0.4","SS1619205742558","","","null","","","","","","<p><img src= images/blank.png width =""600"" height = ""600"" style=""position:fixed;top:50%; left:50%; transform: translate(-50%, -50%); border:5px solid black"">","","","","","","","",""
"","38060.30500000005","sequential-stimulus-presentation-old","110","759811","0.0-25.0-1.4","SS1619205742558","trial","","40","500","38560.30500000005","images/stimuli/spore_stims/complex_20_A_b.gif","images/stimuli/spore_stims/complex_15_A_a.gif","forced_short","","8","complex_dissimilar","images/stimuli/spore_stims/complex_15_A_a.gif","","","","",""
"","null","html-keyboard-response","111","760808","0.0-25.0-0.5","SS1619205742558","","","null","","","","","","<p><img src= images/blank.png width =""600"" height = ""600"" style=""position:fixed;top:50%; left:50%; transform: translate(-50%, -50%); border:5px solid black"">","","","","","","","",""
"","1957.845000000787","sequential-stimulus-presentation-old","112","763282","0.0-25.0-1.5","SS1619205742558","trial","","40","500","2457.845000000787","images/stimuli/spore_stims/complex_20_A_b.gif","images/stimuli/spore_stims/complex_15_A_a.gif","forced_short","","8","complex_dissimilar","images/stimuli/spore_stims/complex_20_A_b.gif","","","","",""
"","2379.84499999939","survey-multi-choice","113","765666","0.0-26.0","SS1619205742558","math_question","","","","","","","","","","","","{""Q0"":""8""}","[0]","8","",""
"","null","html-keyboard-response","114","766942","0.0-27.0-0.0","SS1619205742558","","","null","","","","","","<p><img src= images/blank.png width =""600"" height = ""600"" style=""position:fixed;top:50%; left:50%; transform: translate(-50%, -50%); border:5px solid black"">","","","","","","","",""
"","923.224999999511","sequential-stimulus-presentation-old","115","767971","0.0-27.0-1.0","SS1619205742558","trial","","40","500","1423.224999999511","images/stimuli/spore_stims/simple_11_A_a.gif","images/stimuli/spore_stims/simple_09_A_b.gif","forced_short","","9","simple_dissimilar","images/stimuli/spore_stims/simple_09_A_b.gif","","","","",""
"","null","html-keyboard-response","116","769225","0.0-27.0-0.1","SS1619205742558","","","null","","","","","","<p><img src= images/blank.png width =""600"" height = ""600"" style=""position:fixed;top:50%; left:50%; transform: translate(-50%, -50%); border:5px solid black"">","","","","","","","",""
"","4942.134999999311","sequential-stimulus-presentation-old","117","774682","0.0-27.0-1.1","SS1619205742558","trial","","40","500","5442.134999999311","images/stimuli/spore_stims/simple_11_A_a.gif","images/stimuli/spore_stims/simple_09_A_b.gif","forced_short","","9","simple_dissimilar","images/stimuli/spore_stims/simple_09_A_b.gif","","","","",""
"","null","html-keyboard-response","118","775505","0.0-27.0-0.2","SS1619205742558","","","null","","","","","","<p><img src= images/blank.png width =""600"" height = ""600"" style=""position:fixed;top:50%; left:50%; transform: translate(-50%, -50%); border:5px solid black"">","","","","","","","",""
"","4272.329999999725","sequential-stimulus-presentation-old","119","780292","0.0-27.0-1.2","SS1619205742558","trial","","40","500","4772.329999999725","images/stimuli/spore_stims/simple_11_A_a.gif","images/stimuli/spore_stims/simple_09_A_b.gif","forced_short","","9","simple_dissimilar","images/stimuli/spore_stims/simple_09_A_b.gif","","","","",""
"","null","html-keyboard-response","120","781113","0.0-27.0-0.3","SS1619205742558","","","null","","","","","","<p><img src= images/blank.png width =""600"" height = ""600"" style=""position:fixed;top:50%; left:50%; transform: translate(-50%, -50%); border:5px solid black"">","","","","","","","",""
"","4894.0600000005215","sequential-stimulus-presentation-old","121","786514","0.0-27.0-1.3","SS1619205742558","trial","","40","500","5394.0600000005215","images/stimuli/spore_stims/simple_11_A_a.gif","images/stimuli/spore_stims/simple_09_A_b.gif","forced_short","","9","simple_dissimilar","images/stimuli/spore_stims/simple_09_A_b.gif","","","","",""
"","null","html-keyboard-response","122","787777","0.0-27.0-0.4","SS1619205742558","","","null","","","","","","<p><img src= images/blank.png width =""600"" height = ""600"" style=""position:fixed;top:50%; left:50%; transform: translate(-50%, -50%); border:5px solid black"">","","","","","","","",""
"","3471.300000000163","sequential-stimulus-presentation-old","123","791763","0.0-27.0-1.4","SS1619205742558","trial","","40","500","3971.300000000163","images/stimuli/spore_stims/simple_11_A_a.gif","images/stimuli/spore_stims/simple_09_A_b.gif","forced_short","","9","simple_dissimilar","images/stimuli/spore_stims/simple_09_A_b.gif","","","","",""
"","null","html-keyboard-response","124","792943","0.0-27.0-0.5","SS1619205742558","","","null","","","","","","<p><img src= images/blank.png width =""600"" height = ""600"" style=""position:fixed;top:50%; left:50%; transform: translate(-50%, -50%); border:5px solid black"">","","","","","","","",""
"","2738.825000000419","sequential-stimulus-presentation-old","125","796186","0.0-27.0-1.5","SS1619205742558","trial","","40","500","3238.825000000419","images/stimuli/spore_stims/simple_11_A_a.gif","images/stimuli/spore_stims/simple_09_A_b.gif","forced_short","","9","simple_dissimilar","images/stimuli/spore_stims/simple_11_A_a.gif","","","","",""
"","3155.4750000004424","survey-multi-choice","126","799346","0.0-28.0","SS1619205742558","math_question","","","","","","","","","","","","{""Q0"":""10""}","[0]","10","",""
"","null","html-keyboard-response","127","800291","0.0-29.0-0.0","SS1619205742558","","","null","","","","","","<p><img src= images/blank.png width =""600"" height = ""600"" style=""position:fixed;top:50%; left:50%; transform: translate(-50%, -50%); border:5px solid black"">","","","","","","","",""
"","5471.149999999325","sequential-stimulus-presentation-old","128","806275","0.0-29.0-1.0","SS1619205742558","trial","","40","500","5971.149999999325","images/stimuli/spore_stims/complex_09_A_a.gif","images/stimuli/spore_stims/complex_16_A_b.gif","self_paced","","10","complex_dissimilar","images/stimuli/spore_stims/complex_16_A_b.gif","","","","",""
"","null","html-keyboard-response","129","807143","0.0-29.0-0.1","SS1619205742558","","","null","","","","","","<p><img src= images/blank.png width =""600"" height = ""600"" style=""position:fixed;top:50%; left:50%; transform: translate(-50%, -50%); border:5px solid black"">","","","","","","","",""
"","5832.23499999987","sequential-stimulus-presentation-old","130","813483","0.0-29.0-1.1","SS1619205742558","trial","","40","500","6332.23499999987","images/stimuli/spore_stims/complex_09_A_a.gif","images/stimuli/spore_stims/complex_16_A_b.gif","self_paced","","10","complex_dissimilar","images/stimuli/spore_stims/complex_16_A_b.gif","","","","",""
"","null","html-keyboard-response","131","814385","0.0-29.0-0.2","SS1619205742558","","","null","","","","","","<p><img src= images/blank.png width =""600"" height = ""600"" style=""position:fixed;top:50%; left:50%; transform: translate(-50%, -50%); border:5px solid black"">","","","","","","","",""
"","4624.845000000321","sequential-stimulus-presentation-old","132","819515","0.0-29.0-1.2","SS1619205742558","trial","","40","500","5124.845000000321","images/stimuli/spore_stims/complex_09_A_a.gif","images/stimuli/spore_stims/complex_16_A_b.gif","self_paced","","10","complex_dissimilar","images/stimuli/spore_stims/complex_16_A_b.gif","","","","",""
"","null","html-keyboard-response","133","820482","0.0-29.0-0.3","SS1619205742558","","","null","","","","","","<p><img src= images/blank.png width =""600"" height = ""600"" style=""position:fixed;top:50%; left:50%; transform: translate(-50%, -50%); border:5px solid black"">","","","","","","","",""
"","5919.845000000321","sequential-stimulus-presentation-old","134","826922","0.0-29.0-1.3","SS1619205742558","trial","","40","500","6419.845000000321","images/stimuli/spore_stims/complex_09_A_a.gif","images/stimuli/spore_stims/complex_16_A_b.gif","self_paced","","10","complex_dissimilar","images/stimuli/spore_stims/complex_16_A_b.gif","","","","",""
"","2723.3250000007683","survey-multi-choice","135","829650","0.0-30.0","SS1619205742558","math_question","","","","","","","","","","","","{""Q0"":""4""}","[0]","4","",""
"","null","html-keyboard-response","136","830634","0.0-31.0-0.0","SS1619205742558","","","null","","","","","","<p><img src= images/blank.png width =""600"" height = ""600"" style=""position:fixed;top:50%; left:50%; transform: translate(-50%, -50%); border:5px solid black"">","","","","","","","",""
"","522.769999999553","sequential-stimulus-presentation-old","137","841163","0.0-31.0-1.0","SS1619205742558","trial","","40","500","1022.769999999553","images/stimuli/spore_stims/simple_16_A_a.gif","images/stimuli/spore_stims/simple_14_A_b.gif","forced_long","","11","simple_dissimilar","images/stimuli/spore_stims/simple_14_A_b.gif","","","","",""
"","null","html-keyboard-response","138","841971","0.0-31.0-0.1","SS1619205742558","","","null","","","","","","<p><img src= images/blank.png width =""600"" height = ""600"" style=""position:fixed;top:50%; left:50%; transform: translate(-50%, -50%); border:5px solid black"">","","","","","","","",""
"","30599.095000000438","sequential-stimulus-presentation-old","139","873075","0.0-31.0-1.1","SS1619205742558","trial","","40","500","31099.095000000438","images/stimuli/spore_stims/simple_16_A_a.gif","images/stimuli/spore_stims/simple_14_A_b.gif","forced_long","","11","simple_dissimilar","images/stimuli/spore_stims/simple_14_A_b.gif","","","","",""
"","null","html-keyboard-response","140","874028","0.0-31.0-0.2","SS1619205742558","","","null","","","","","","<p><img src= images/blank.png width =""600"" height = ""600"" style=""position:fixed;top:50%; left:50%; transform: translate(-50%, -50%); border:5px solid black"">","","","","","","","",""
"","9322.180000000168","sequential-stimulus-presentation-old","141","883867","0.0-31.0-1.2","SS1619205742558","trial","","40","500","9822.180000000168","images/stimuli/spore_stims/simple_16_A_a.gif","images/stimuli/spore_stims/simple_14_A_b.gif","forced_long","","11","simple_dissimilar","images/stimuli/spore_stims/simple_14_A_b.gif","","","","",""
"","null","html-keyboard-response","142","884680","0.0-31.0-0.3","SS1619205742558","","","null","","","","","","<p><img src= images/blank.png width =""600"" height = ""600"" style=""position:fixed;top:50%; left:50%; transform: translate(-50%, -50%); border:5px solid black"">","","","","","","","",""
"","8825.60999999987","sequential-stimulus-presentation-old","143","894019","0.0-31.0-1.3","SS1619205742558","trial","","40","500","9325.60999999987","images/stimuli/spore_stims/simple_16_A_a.gif","images/stimuli/spore_stims/simple_14_A_b.gif","forced_long","","11","simple_dissimilar","images/stimuli/spore_stims/simple_14_A_b.gif","","","","",""
"","null","html-keyboard-response","144","895103","0.0-31.0-0.4","SS1619205742558","","","null","","","","","","<p><img src= images/blank.png width =""600"" height = ""600"" style=""position:fixed;top:50%; left:50%; transform: translate(-50%, -50%); border:5px solid black"">","","","","","","","",""
"","12025.329999999492","sequential-stimulus-presentation-old","145","907635","0.0-31.0-1.4","SS1619205742558","trial","","40","500","12525.329999999492","images/stimuli/spore_stims/simple_16_A_a.gif","images/stimuli/spore_stims/simple_14_A_b.gif","forced_long","","11","simple_dissimilar","images/stimuli/spore_stims/simple_14_A_b.gif","","","","",""
"","null","html-keyboard-response","146","908479","0.0-31.0-0.5","SS1619205742558","","","null","","","","","","<p><img src= images/blank.png width =""600"" height = ""600"" style=""position:fixed;top:50%; left:50%; transform: translate(-50%, -50%); border:5px solid black"">","","","","","","","",""
"","44535.56999999995","sequential-stimulus-presentation-old","147","953521","0.0-31.0-1.5","SS1619205742558","trial","","40","500","45035.56999999995","images/stimuli/spore_stims/simple_16_A_a.gif","images/stimuli/spore_stims/simple_14_A_b.gif","forced_long","","11","simple_dissimilar","images/stimuli/spore_stims/simple_14_A_b.gif","","","","",""
"[{""page_index"":0,""viewing_time"":4498.920000000042}]","4499.2700000002515","instructions","148","958024","0.0-32.0","SS1619205742558","instructions","","","","","","","","","","","","","","","",""
"","12683.665000000503","survey-likert","149","970714","0.0-33.0","SS1619205742558","similarity_question","","","","","","","","","","","","{""Q0"":0}","[0]","","images/stimuli/spore_stims/complex_14_A_a.gif","images/stimuli/spore_stims/complex_06_A_b.gif"
"","4425.975000000093","survey-likert","150","975153","0.0-34.0","SS1619205742558","similarity_question","","","","","","","","","","","","{""Q0"":4}","[0]","","images/stimuli/spore_stims/simple_09_A_b.gif","images/stimuli/spore_stims/simple_11_A_a.gif"
"","2539.2099999999627","survey-likert","151","977705","0.0-35.0","SS1619205742558","similarity_question","","","","","","","","","","","","{""Q0"":5}","[0]","","images/stimuli/spore_stims/simple_01_A_b.gif","images/stimuli/spore_stims/simple_15_A_a.gif"
"","3455.675000000163","survey-likert","152","981177","0.0-36.0","SS1619205742558","similarity_question","","","","","","","","","","","","{""Q0"":0}","[0]","","images/stimuli/spore_stims/complex_15_A_b.gif","images/stimuli/spore_stims/complex_11_A_a.gif"
"","5005.035000000149","survey-likert","153","986201","0.0-37.0","SS1619205742558","similarity_question","","","","","","","","","","","","{""Q0"":1}","[0]","","images/stimuli/spore_stims/complex_15_A_a.gif","images/stimuli/spore_stims/complex_20_A_b.gif"
"","3411.2800000002608","survey-likert","154","989625","0.0-38.0","SS1619205742558","similarity_question","","","","","","","","","","","","{""Q0"":5}","[0]","","images/stimuli/spore_stims/simple_18_A_b.gif","images/stimuli/spore_stims/simple_04_A_a.gif"
"","2506.220000000205","survey-likert","155","992145","0.0-39.0","SS1619205742558","similarity_question","","","","","","","","","","","","{""Q0"":5}","[0]","","images/stimuli/spore_stims/simple_10_A_b.gif","images/stimuli/spore_stims/simple_03_A_a.gif"
"","4471.110000000335","survey-likert","156","996633","0.0-40.0","SS1619205742558","similarity_question","","","","","","","","","","","","{""Q0"":1}","[0]","","images/stimuli/spore_stims/complex_12_A_a.gif","images/stimuli/spore_stims/complex_19_A_b.gif"
"","6051.1349999997765","survey-likert","157","1002697","0.0-41.0","SS1619205742558","similarity_question","","","","","","","","","","","","{""Q0"":1}","[0]","","images/stimuli/spore_stims/complex_16_A_b.gif","images/stimuli/spore_stims/complex_09_A_a.gif"
"","3714.879999999539","survey-likert","158","1006425","0.0-42.0","SS1619205742558","similarity_question","","","","","","","","","","","","{""Q0"":6}","[0]","","images/stimuli/spore_stims/simple_16_A_a.gif","images/stimuli/spore_stims/simple_14_A_b.gif"
"","2043.380000000121","survey-likert","159","1008482","0.0-43.0","SS1619205742558","similarity_question","","","","","","","","","","","","{""Q0"":5}","[0]","","images/stimuli/spore_stims/simple_01_A_a.gif","images/stimuli/spore_stims/simple_05_A_b.gif"
"","4441.6300000002375","survey-likert","160","1012937","0.0-44.0","SS1619205742558","similarity_question","","","","","","","","","","","","{""Q0"":0}","[0]","","images/stimuli/spore_stims/complex_07_A_b.gif","images/stimuli/spore_stims/complex_19_A_a.gif"
"[{""page_index"":0,""viewing_time"":2370.1099999998696}]","2370.5350000000326","instructions","161","1015321","0.0-45.0","SS1619205742558","instructions","","","","","","","","","","","","","","","",""
"","5730.800000000279","survey-likert","162","1021057","0.0-46.0","SS1619205742558","","","","","","","","","images/stimuli/spore_stims/complex_15_A_a.gif","","","","{""Q0"":5}","[0]","","",""
"","3315.5799999994924","survey-likert","163","1024385","0.0-47.0","SS1619205742558","","","","","","","","","images/stimuli/spore_stims/complex_07_A_b.gif","","","","{""Q0"":5}","[0]","","",""
"","3459.6499999997905","survey-likert","164","1027857","0.0-48.0","SS1619205742558","","","","","","","","","images/stimuli/spore_stims/simple_03_A_a.gif","","","","{""Q0"":1}","[0]","","",""
"","2195.170000000042","survey-likert","165","1030066","0.0-49.0","SS1619205742558","","","","","","","","","images/stimuli/spore_stims/simple_14_A_b.gif","","","","{""Q0"":0}","[0]","","",""
"","2010.8149999995949","survey-likert","166","1032089","0.0-50.0","SS1619205742558","","","","","","","","","images/stimuli/spore_stims/simple_04_A_a.gif","","","","{""Q0"":0}","[0]","","",""
"","5242.909999999916","survey-likert","167","1037345","0.0-51.0","SS1619205742558","","","","","","","","","images/stimuli/spore_stims/complex_19_A_b.gif","","","","{""Q0"":5}","[0]","","",""
"","3786.4300000001676","survey-likert","168","1041145","0.0-52.0","SS1619205742558","","","","","","","","","images/stimuli/spore_stims/complex_06_A_b.gif","","","","{""Q0"":4}","[0]","","",""
"","3914.584999999497","survey-likert","169","1045073","0.0-53.0","SS1619205742558","","","","","","","","","images/stimuli/spore_stims/simple_09_A_b.gif","","","","{""Q0"":0}","[0]","","",""
"","2361.6700000001583","survey-likert","170","1047449","0.0-54.0","SS1619205742558","","","","","","","","","images/stimuli/spore_stims/complex_09_A_a.gif","","","","{""Q0"":5}","[0]","","",""
"","3836.255000000121","survey-likert","171","1051298","0.0-55.0","SS1619205742558","","","","","","","","","images/stimuli/spore_stims/simple_01_A_b.gif","","","","{""Q0"":1}","[0]","","",""
"","4705.619999999879","survey-likert","172","1056017","0.0-56.0","SS1619205742558","","","","","","","","","images/stimuli/spore_stims/complex_15_A_b.gif","","","","{""Q0"":5}","[0]","","",""
"","2636.5749999994878","survey-likert","173","1058665","0.0-57.0","SS1619205742558","","","","","","","","","images/stimuli/spore_stims/simple_05_A_b.gif","","","","{""Q0"":0}","[0]","","",""
"[{""page_index"":0,""viewing_time"":1162.7150000005495}]","1163.1900000004098","instructions","174","1059841","0.0-58.0","SS1619205742558","instructions","","","","","","","","","","","","","","","",""
"","2864.6049999997485","demog-age","175","1062714","0.0-59.0","SS1619205742558","","","","","","","","","","","","","{""age"":""24""}","","","",""
"","2421.475000000093","demog-ethnic-US","176","1065146","0.0-60.0","SS1619205742558","","","","","","","","","","","","","{""ethnicity"":[""Hispanic or Latino""]}","[0]","","",""
"","8578.039999999572","demog-gender-and-education","177","1073737","0.0-61.0","SS1619205742558","","","","","","","","","","","","","{""gender"":""Male"",""education"":""Associate Degree/Technical certification""}","[0,1]","","",""
"","41255.95000000065","survey-text","178","1115011","0.0-62.0","SS1619205742558","feedback","","","","","","","","","","","","{""Q0"":""Some images frezze but other play as normal. Some creatures were kinda creppy but cute.""}","","","",""
"[{""page_index"":0,""viewing_time"":1527.2150000000838}]","1528.4300000001676","instructions","179","1116545","0.0-63.0","SS1619205742558","instructions","","","","","","","","","","","","","","","",""
