"view_history","rt","trial_type","trial_index","time_elapsed","internal_node_id","subject","stimulus_type","trial_stimulus","key_press","minimum_viewing_duration","trial_looking_time","block_deviant","block_background","exposure_type","stimulus","block_number","block_type","stimulus_displayed","responses","question_order","math_correct_answer","stimulus_left","stimulus_right"
"[{""page_index"":0,""viewing_time"":2815.6249999992724}]","2816.0250000000815","instructions","0","2821","0.0-0.0","SS1619205753092","","","","","","","","","","","","","","","","",""
"[{""page_index"":0,""viewing_time"":5110.125000001062},{""page_index"":1,""viewing_time"":10464.274999998452}]","15574.665000000095","instructions","1","20412","0.0-1.0","SS1619205753092","instructions","","","","","","","","","","","","","","","",""
"","15314.430000000357","sequential-stimulus-presentation-old","2","36232","0.0-2.0","SS1619205753092","","","40","500","15814.430000000357","null","null","self_paced","","","","","","","","",""
"","15964.09499999936","sequential-stimulus-presentation-old","3","52736","0.0-3.0","SS1619205753092","","","40","500","16464.09499999936","null","null","self_paced","","","","","","","","",""
"[{""page_index"":0,""viewing_time"":32354.280000001367}]","32355.300000001094","instructions","4","85092","0.0-4.0","SS1619205753092","instructions","","","","","","","","","","","","","","","",""
"","4008.350000000064","sequential-stimulus-presentation-old","5","99132","0.0-5.0","SS1619205753092","","","40","500","4508.350000000064","null","null","forced_long","","","","","","","","",""
"","11451.390000000189","sequential-stimulus-presentation-old","6","110689","0.0-6.0","SS1619205753092","","","40","500","11951.390000000189","null","null","forced_long","","","","","","","","",""
"[{""page_index"":0,""viewing_time"":5944.265000000101}]","5944.809999999066","instructions","7","116636","0.0-7.0","SS1619205753092","instructions","","","","","","","","","","","","","","","",""
"[{""page_index"":0,""viewing_time"":19860.73500000019},{""page_index"":1,""viewing_time"":47440.68999999948},{""page_index"":2,""viewing_time"":6543.489999999991},{""page_index"":3,""viewing_time"":1680.2349999998114},{""page_index"":4,""viewing_time"":1560.5350000005565}]","77086.3850000005","instructions","8","193724","0.0-8.0","SS1619205753092","instructions","","","","","","","","","","","","","","","",""
"","null","html-keyboard-response","9","194979","0.0-9.0-0.0","SS1619205753092","","","null","","","","","","<p><img src= images/blank.png width =""600"" height = ""600"" style=""position:fixed;top:50%; left:50%; transform: translate(-50%, -50%); border:5px solid black"">","","","","","","","",""
"","990.2299999994575","sequential-stimulus-presentation-old","10","205986","0.0-9.0-1.0","SS1619205753092","trial","","40","500","1490.2299999994575","images/stimuli/spore_stims/simple_14_A_a.gif","images/stimuli/spore_stims/simple_10_A_b.gif","forced_long","","0","simple_dissimilar","images/stimuli/spore_stims/simple_10_A_b.gif","","","","",""
"","null","html-keyboard-response","11","207243","0.0-9.0-0.1","SS1619205753092","","","null","","","","","","<p><img src= images/blank.png width =""600"" height = ""600"" style=""position:fixed;top:50%; left:50%; transform: translate(-50%, -50%); border:5px solid black"">","","","","","","","",""
"","2535.250000000815","sequential-stimulus-presentation-old","12","210299","0.0-9.0-1.1","SS1619205753092","trial","","40","500","3035.250000000815","images/stimuli/spore_stims/simple_14_A_a.gif","images/stimuli/spore_stims/simple_10_A_b.gif","forced_long","","0","simple_dissimilar","images/stimuli/spore_stims/simple_10_A_b.gif","","","","",""
"","null","html-keyboard-response","13","211136","0.0-9.0-0.2","SS1619205753092","","","null","","","","","","<p><img src= images/blank.png width =""600"" height = ""600"" style=""position:fixed;top:50%; left:50%; transform: translate(-50%, -50%); border:5px solid black"">","","","","","","","",""
"","693.5149999990244","sequential-stimulus-presentation-old","14","212361","0.0-9.0-1.2","SS1619205753092","trial","","40","500","1193.5149999990244","images/stimuli/spore_stims/simple_14_A_a.gif","images/stimuli/spore_stims/simple_10_A_b.gif","forced_long","","0","simple_dissimilar","images/stimuli/spore_stims/simple_10_A_b.gif","","","","",""
"","null","html-keyboard-response","15","213244","0.0-9.0-0.3","SS1619205753092","","","null","","","","","","<p><img src= images/blank.png width =""600"" height = ""600"" style=""position:fixed;top:50%; left:50%; transform: translate(-50%, -50%); border:5px solid black"">","","","","","","","",""
"","1536.8099999995902","sequential-stimulus-presentation-old","16","215292","0.0-9.0-1.3","SS1619205753092","trial","","40","500","2036.8099999995902","images/stimuli/spore_stims/simple_14_A_a.gif","images/stimuli/spore_stims/simple_10_A_b.gif","forced_long","","0","simple_dissimilar","images/stimuli/spore_stims/simple_10_A_b.gif","","","","",""
"","null","html-keyboard-response","17","216398","0.0-9.0-0.4","SS1619205753092","","","null","","","","","","<p><img src= images/blank.png width =""600"" height = ""600"" style=""position:fixed;top:50%; left:50%; transform: translate(-50%, -50%); border:5px solid black"">","","","","","","","",""
"","4471.875000001048","sequential-stimulus-presentation-old","18","221383","0.0-9.0-1.4","SS1619205753092","trial","","40","500","4971.875000001048","images/stimuli/spore_stims/simple_14_A_a.gif","images/stimuli/spore_stims/simple_10_A_b.gif","forced_long","","0","simple_dissimilar","images/stimuli/spore_stims/simple_14_A_a.gif","","","","",""
"","4094.939999999071","survey-multi-choice","19","225487","0.0-10.0","SS1619205753092","math_question","","","","","","","","","","","","{""Q0"":""14""}","[0]","14","",""
"","null","html-keyboard-response","20","226560","0.0-11.0-0.0","SS1619205753092","","","null","","","","","","<p><img src= images/blank.png width =""600"" height = ""600"" style=""position:fixed;top:50%; left:50%; transform: translate(-50%, -50%); border:5px solid black"">","","","","","","","",""
"","3893.6750000011525","sequential-stimulus-presentation-old","21","230980","0.0-11.0-1.0","SS1619205753092","trial","","40","500","4393.6750000011525","images/stimuli/spore_stims/complex_09_A_a.gif","images/stimuli/spore_stims/complex_07_A_b.gif","self_paced","","1","complex_dissimilar","images/stimuli/spore_stims/complex_07_A_b.gif","","","","",""
"","null","html-keyboard-response","22","232021","0.0-11.0-0.1","SS1619205753092","","","null","","","","","","<p><img src= images/blank.png width =""600"" height = ""600"" style=""position:fixed;top:50%; left:50%; transform: translate(-50%, -50%); border:5px solid black"">","","","","","","","",""
"","2723.589999999618","sequential-stimulus-presentation-old","23","235270","0.0-11.0-1.1","SS1619205753092","trial","","40","500","3223.589999999618","images/stimuli/spore_stims/complex_09_A_a.gif","images/stimuli/spore_stims/complex_07_A_b.gif","self_paced","","1","complex_dissimilar","images/stimuli/spore_stims/complex_09_A_a.gif","","","","",""
"","null","html-keyboard-response","24","236287","0.0-11.0-0.2","SS1619205753092","","","null","","","","","","<p><img src= images/blank.png width =""600"" height = ""600"" style=""position:fixed;top:50%; left:50%; transform: translate(-50%, -50%); border:5px solid black"">","","","","","","","",""
"","4378.235000000102","sequential-stimulus-presentation-old","25","241208","0.0-11.0-1.2","SS1619205753092","trial","","40","500","4878.235000000102","images/stimuli/spore_stims/complex_09_A_a.gif","images/stimuli/spore_stims/complex_07_A_b.gif","self_paced","","1","complex_dissimilar","images/stimuli/spore_stims/complex_07_A_b.gif","","","","",""
"","null","html-keyboard-response","26","242094","0.0-11.0-0.3","SS1619205753092","","","null","","","","","","<p><img src= images/blank.png width =""600"" height = ""600"" style=""position:fixed;top:50%; left:50%; transform: translate(-50%, -50%); border:5px solid black"">","","","","","","","",""
"","2360.0800000003655","sequential-stimulus-presentation-old","27","244992","0.0-11.0-1.3","SS1619205753092","trial","","40","500","2860.0800000003655","images/stimuli/spore_stims/complex_09_A_a.gif","images/stimuli/spore_stims/complex_07_A_b.gif","self_paced","","1","complex_dissimilar","images/stimuli/spore_stims/complex_09_A_a.gif","","","","",""
"","2790.670000000333","survey-multi-choice","28","247789","0.0-12.0","SS1619205753092","math_question","","","","","","","","","","","","{""Q0"":""6""}","[0]","6","",""
"","null","html-keyboard-response","29","249012","0.0-13.0-0.0","SS1619205753092","","","null","","","","","","<p><img src= images/blank.png width =""600"" height = ""600"" style=""position:fixed;top:50%; left:50%; transform: translate(-50%, -50%); border:5px solid black"">","","","","","","","",""
"","1007.854999999865","sequential-stimulus-presentation-old","30","250143","0.0-13.0-1.0","SS1619205753092","trial","","40","500","1507.854999999865","images/stimuli/spore_stims/complex_09_A_b.gif","images/stimuli/spore_stims/complex_04_A_a.gif","forced_short","","2","complex_dissimilar","images/stimuli/spore_stims/complex_04_A_a.gif","","","","",""
"","null","html-keyboard-response","31","251135","0.0-13.0-0.1","SS1619205753092","","","null","","","","","","<p><img src= images/blank.png width =""600"" height = ""600"" style=""position:fixed;top:50%; left:50%; transform: translate(-50%, -50%); border:5px solid black"">","","","","","","","",""
"","585.199999999546","sequential-stimulus-presentation-old","32","252231","0.0-13.0-1.1","SS1619205753092","trial","","40","500","1085.199999999546","images/stimuli/spore_stims/complex_09_A_b.gif","images/stimuli/spore_stims/complex_04_A_a.gif","forced_short","","2","complex_dissimilar","images/stimuli/spore_stims/complex_09_A_b.gif","","","","",""
"","null","html-keyboard-response","33","253192","0.0-13.0-0.2","SS1619205753092","","","null","","","","","","<p><img src= images/blank.png width =""600"" height = ""600"" style=""position:fixed;top:50%; left:50%; transform: translate(-50%, -50%); border:5px solid black"">","","","","","","","",""
"","1179.4449999997742","sequential-stimulus-presentation-old","34","254889","0.0-13.0-1.2","SS1619205753092","trial","","40","500","1679.4449999997742","images/stimuli/spore_stims/complex_09_A_b.gif","images/stimuli/spore_stims/complex_04_A_a.gif","forced_short","","2","complex_dissimilar","images/stimuli/spore_stims/complex_04_A_a.gif","","","","",""
"","null","html-keyboard-response","35","256180","0.0-13.0-0.3","SS1619205753092","","","null","","","","","","<p><img src= images/blank.png width =""600"" height = ""600"" style=""position:fixed;top:50%; left:50%; transform: translate(-50%, -50%); border:5px solid black"">","","","","","","","",""
"","517.4050000005518","sequential-stimulus-presentation-old","36","257218","0.0-13.0-1.3","SS1619205753092","trial","","40","500","1017.4050000005518","images/stimuli/spore_stims/complex_09_A_b.gif","images/stimuli/spore_stims/complex_04_A_a.gif","forced_short","","2","complex_dissimilar","images/stimuli/spore_stims/complex_04_A_a.gif","","","","",""
"","3905.215000000666","survey-multi-choice","37","261128","0.0-14.0","SS1619205753092","math_question","","","","","","","","","","","","{""Q0"":""13""}","[0]","13","",""
"","null","html-keyboard-response","38","262308","0.0-15.0-0.0","SS1619205753092","","","null","","","","","","<p><img src= images/blank.png width =""600"" height = ""600"" style=""position:fixed;top:50%; left:50%; transform: translate(-50%, -50%); border:5px solid black"">","","","","","","","",""
"","2425.0400000000955","sequential-stimulus-presentation-old","39","264846","0.0-15.0-1.0","SS1619205753092","trial","","40","500","2925.0400000000955","images/stimuli/spore_stims/simple_06_A_a.gif","images/stimuli/spore_stims/simple_01_A_b.gif","forced_short","","3","simple_dissimilar","images/stimuli/spore_stims/simple_01_A_b.gif","","","","",""
"","null","html-keyboard-response","40","266014","0.0-15.0-0.1","SS1619205753092","","","null","","","","","","<p><img src= images/blank.png width =""600"" height = ""600"" style=""position:fixed;top:50%; left:50%; transform: translate(-50%, -50%); border:5px solid black"">","","","","","","","",""
"","739.8549999997485","sequential-stimulus-presentation-old","41","267280","0.0-15.0-1.1","SS1619205753092","trial","","40","500","1239.8549999997485","images/stimuli/spore_stims/simple_06_A_a.gif","images/stimuli/spore_stims/simple_01_A_b.gif","forced_short","","3","simple_dissimilar","images/stimuli/spore_stims/simple_01_A_b.gif","","","","",""
"","null","html-keyboard-response","42","268256","0.0-15.0-0.2","SS1619205753092","","","null","","","","","","<p><img src= images/blank.png width =""600"" height = ""600"" style=""position:fixed;top:50%; left:50%; transform: translate(-50%, -50%); border:5px solid black"">","","","","","","","",""
"","2627.3849999997765","sequential-stimulus-presentation-old","43","271406","0.0-15.0-1.2","SS1619205753092","trial","","40","500","3127.3849999997765","images/stimuli/spore_stims/simple_06_A_a.gif","images/stimuli/spore_stims/simple_01_A_b.gif","forced_short","","3","simple_dissimilar","images/stimuli/spore_stims/simple_01_A_b.gif","","","","",""
"","null","html-keyboard-response","44","272447","0.0-15.0-0.3","SS1619205753092","","","null","","","","","","<p><img src= images/blank.png width =""600"" height = ""600"" style=""position:fixed;top:50%; left:50%; transform: translate(-50%, -50%); border:5px solid black"">","","","","","","","",""
"","2671.0700000003562","sequential-stimulus-presentation-old","45","275640","0.0-15.0-1.3","SS1619205753092","trial","","40","500","3171.0700000003562","images/stimuli/spore_stims/simple_06_A_a.gif","images/stimuli/spore_stims/simple_01_A_b.gif","forced_short","","3","simple_dissimilar","images/stimuli/spore_stims/simple_06_A_a.gif","","","","",""
"","null","html-keyboard-response","46","276746","0.0-15.0-0.4","SS1619205753092","","","null","","","","","","<p><img src= images/blank.png width =""600"" height = ""600"" style=""position:fixed;top:50%; left:50%; transform: translate(-50%, -50%); border:5px solid black"">","","","","","","","",""
"","483.06000000046333","sequential-stimulus-presentation-old","47","277753","0.0-15.0-1.4","SS1619205753092","trial","","40","500","983.0600000004633","images/stimuli/spore_stims/simple_06_A_a.gif","images/stimuli/spore_stims/simple_01_A_b.gif","forced_short","","3","simple_dissimilar","images/stimuli/spore_stims/simple_06_A_a.gif","","","","",""
"","2344.204999999376","survey-multi-choice","48","280102","0.0-16.0","SS1619205753092","math_question","","","","","","","","","","","","{""Q0"":""16""}","[0]","16","",""
"","null","html-keyboard-response","49","281227","0.0-17.0-0.0","SS1619205753092","","","null","","","","","","<p><img src= images/blank.png width =""600"" height = ""600"" style=""position:fixed;top:50%; left:50%; transform: translate(-50%, -50%); border:5px solid black"">","","","","","","","",""
"","523.2550000000629","sequential-stimulus-presentation-old","50","282263","0.0-17.0-1.0","SS1619205753092","trial","","40","500","1023.2550000000629","images/stimuli/spore_stims/complex_06_A_a.gif","images/stimuli/spore_stims/complex_13_A_b.gif","self_paced","","4","complex_dissimilar","images/stimuli/spore_stims/complex_13_A_b.gif","","","","",""
"","null","html-keyboard-response","51","283186","0.0-17.0-0.1","SS1619205753092","","","null","","","","","","<p><img src= images/blank.png width =""600"" height = ""600"" style=""position:fixed;top:50%; left:50%; transform: translate(-50%, -50%); border:5px solid black"">","","","","","","","",""
"","1058.7250000007916","sequential-stimulus-presentation-old","52","284765","0.0-17.0-1.1","SS1619205753092","trial","","40","500","1558.7250000007916","images/stimuli/spore_stims/complex_06_A_a.gif","images/stimuli/spore_stims/complex_13_A_b.gif","self_paced","","4","complex_dissimilar","images/stimuli/spore_stims/complex_13_A_b.gif","","","","",""
"","null","html-keyboard-response","53","285718","0.0-17.0-0.2","SS1619205753092","","","null","","","","","","<p><img src= images/blank.png width =""600"" height = ""600"" style=""position:fixed;top:50%; left:50%; transform: translate(-50%, -50%); border:5px solid black"">","","","","","","","",""
"","746.5599999995902","sequential-stimulus-presentation-old","54","286977","0.0-17.0-1.2","SS1619205753092","trial","","40","500","1246.5599999995902","images/stimuli/spore_stims/complex_06_A_a.gif","images/stimuli/spore_stims/complex_13_A_b.gif","self_paced","","4","complex_dissimilar","images/stimuli/spore_stims/complex_13_A_b.gif","","","","",""
"","null","html-keyboard-response","55","287797","0.0-17.0-0.3","SS1619205753092","","","null","","","","","","<p><img src= images/blank.png width =""600"" height = ""600"" style=""position:fixed;top:50%; left:50%; transform: translate(-50%, -50%); border:5px solid black"">","","","","","","","",""
"","221.1700000007404","sequential-stimulus-presentation-old","56","288535","0.0-17.0-1.3","SS1619205753092","trial","","40","500","721.1700000007404","images/stimuli/spore_stims/complex_06_A_a.gif","images/stimuli/spore_stims/complex_13_A_b.gif","self_paced","","4","complex_dissimilar","images/stimuli/spore_stims/complex_13_A_b.gif","","","","",""
"","null","html-keyboard-response","57","289363","0.0-17.0-0.4","SS1619205753092","","","null","","","","","","<p><img src= images/blank.png width =""600"" height = ""600"" style=""position:fixed;top:50%; left:50%; transform: translate(-50%, -50%); border:5px solid black"">","","","","","","","",""
"","420.0099999998347","sequential-stimulus-presentation-old","58","290294","0.0-17.0-1.4","SS1619205753092","trial","","40","500","920.0099999998347","images/stimuli/spore_stims/complex_06_A_a.gif","images/stimuli/spore_stims/complex_13_A_b.gif","self_paced","","4","complex_dissimilar","images/stimuli/spore_stims/complex_13_A_b.gif","","","","",""
"","null","html-keyboard-response","59","291107","0.0-17.0-0.5","SS1619205753092","","","null","","","","","","<p><img src= images/blank.png width =""600"" height = ""600"" style=""position:fixed;top:50%; left:50%; transform: translate(-50%, -50%); border:5px solid black"">","","","","","","","",""
"","1483.4850000006263","sequential-stimulus-presentation-old","60","293108","0.0-17.0-1.5","SS1619205753092","trial","","40","500","1983.4850000006263","images/stimuli/spore_stims/complex_06_A_a.gif","images/stimuli/spore_stims/complex_13_A_b.gif","self_paced","","4","complex_dissimilar","images/stimuli/spore_stims/complex_06_A_a.gif","","","","",""
"","5549.080000000657","survey-multi-choice","61","298662","0.0-18.0","SS1619205753092","math_question","","","","","","","","","","","","{""Q0"":""11""}","[0]","11","",""
"","null","html-keyboard-response","62","299755","0.0-19.0-0.0","SS1619205753092","","","null","","","","","","<p><img src= images/blank.png width =""600"" height = ""600"" style=""position:fixed;top:50%; left:50%; transform: translate(-50%, -50%); border:5px solid black"">","","","","","","","",""
"","200.40499999956228","sequential-stimulus-presentation-old","63","300476","0.0-19.0-1.0","SS1619205753092","trial","","40","500","700.4049999995623","images/stimuli/spore_stims/simple_05_A_b.gif","images/stimuli/spore_stims/simple_18_A_a.gif","self_paced","","5","simple_dissimilar","images/stimuli/spore_stims/simple_18_A_a.gif","","","","",""
"","null","html-keyboard-response","64","301405","0.0-19.0-0.1","SS1619205753092","","","null","","","","","","<p><img src= images/blank.png width =""600"" height = ""600"" style=""position:fixed;top:50%; left:50%; transform: translate(-50%, -50%); border:5px solid black"">","","","","","","","",""
"","106.4900000001071","sequential-stimulus-presentation-old","65","302037","0.0-19.0-1.1","SS1619205753092","trial","","40","500","606.4900000001071","images/stimuli/spore_stims/simple_05_A_b.gif","images/stimuli/spore_stims/simple_18_A_a.gif","self_paced","","5","simple_dissimilar","images/stimuli/spore_stims/simple_18_A_a.gif","","","","",""
"","null","html-keyboard-response","66","303031","0.0-19.0-0.2","SS1619205753092","","","null","","","","","","<p><img src= images/blank.png width =""600"" height = ""600"" style=""position:fixed;top:50%; left:50%; transform: translate(-50%, -50%); border:5px solid black"">","","","","","","","",""
"","1156.1200000014505","sequential-stimulus-presentation-old","67","304710","0.0-19.0-1.2","SS1619205753092","trial","","40","500","1656.1200000014505","images/stimuli/spore_stims/simple_05_A_b.gif","images/stimuli/spore_stims/simple_18_A_a.gif","self_paced","","5","simple_dissimilar","images/stimuli/spore_stims/simple_18_A_a.gif","","","","",""
"","null","html-keyboard-response","68","305871","0.0-19.0-0.3","SS1619205753092","","","null","","","","","","<p><img src= images/blank.png width =""600"" height = ""600"" style=""position:fixed;top:50%; left:50%; transform: translate(-50%, -50%); border:5px solid black"">","","","","","","","",""
"","1027.9499999996624","sequential-stimulus-presentation-old","69","307409","0.0-19.0-1.3","SS1619205753092","trial","","40","500","1527.9499999996624","images/stimuli/spore_stims/simple_05_A_b.gif","images/stimuli/spore_stims/simple_18_A_a.gif","self_paced","","5","simple_dissimilar","images/stimuli/spore_stims/simple_05_A_b.gif","","","","",""
"","2309.0749999991967","survey-multi-choice","70","309724","0.0-20.0","SS1619205753092","math_question","","","","","","","","","","","","{""Q0"":""11""}","[0]","11","",""
"","null","html-keyboard-response","71","311018","0.0-21.0-0.0","SS1619205753092","","","null","","","","","","<p><img src= images/blank.png width =""600"" height = ""600"" style=""position:fixed;top:50%; left:50%; transform: translate(-50%, -50%); border:5px solid black"">","","","","","","","",""
"","4140.049999999988","sequential-stimulus-presentation-old","72","325196","0.0-21.0-1.0","SS1619205753092","trial","","40","500","4640.049999999988","images/stimuli/spore_stims/simple_07_A_a.gif","images/stimuli/spore_stims/simple_16_A_b.gif","forced_long","","6","simple_dissimilar","images/stimuli/spore_stims/simple_16_A_b.gif","","","","",""
"","null","html-keyboard-response","73","326429","0.0-21.0-0.1","SS1619205753092","","","null","","","","","","<p><img src= images/blank.png width =""600"" height = ""600"" style=""position:fixed;top:50%; left:50%; transform: translate(-50%, -50%); border:5px solid black"">","","","","","","","",""
"","260.10999999928754","sequential-stimulus-presentation-old","74","327206","0.0-21.0-1.1","SS1619205753092","trial","","40","500","760.1099999992875","images/stimuli/spore_stims/simple_07_A_a.gif","images/stimuli/spore_stims/simple_16_A_b.gif","forced_long","","6","simple_dissimilar","images/stimuli/spore_stims/simple_16_A_b.gif","","","","",""
"","null","html-keyboard-response","75","328247","0.0-21.0-0.2","SS1619205753092","","","null","","","","","","<p><img src= images/blank.png width =""600"" height = ""600"" style=""position:fixed;top:50%; left:50%; transform: translate(-50%, -50%); border:5px solid black"">","","","","","","","",""
"","10694.289999999455","sequential-stimulus-presentation-old","76","339454","0.0-21.0-1.2","SS1619205753092","trial","","40","500","11194.289999999455","images/stimuli/spore_stims/simple_07_A_a.gif","images/stimuli/spore_stims/simple_16_A_b.gif","forced_long","","6","simple_dissimilar","images/stimuli/spore_stims/simple_16_A_b.gif","","","","",""
"","null","html-keyboard-response","77","340297","0.0-21.0-0.3","SS1619205753092","","","null","","","","","","<p><img src= images/blank.png width =""600"" height = ""600"" style=""position:fixed;top:50%; left:50%; transform: translate(-50%, -50%); border:5px solid black"">","","","","","","","",""
"","118.73999999993248","sequential-stimulus-presentation-old","78","340926","0.0-21.0-1.3","SS1619205753092","trial","","40","500","618.7399999999325","images/stimuli/spore_stims/simple_07_A_a.gif","images/stimuli/spore_stims/simple_16_A_b.gif","forced_long","","6","simple_dissimilar","images/stimuli/spore_stims/simple_16_A_b.gif","","","","",""
"","null","html-keyboard-response","79","342019","0.0-21.0-0.4","SS1619205753092","","","null","","","","","","<p><img src= images/blank.png width =""600"" height = ""600"" style=""position:fixed;top:50%; left:50%; transform: translate(-50%, -50%); border:5px solid black"">","","","","","","","",""
"","813.0550000005751","sequential-stimulus-presentation-old","80","343350","0.0-21.0-1.4","SS1619205753092","trial","","40","500","1313.055000000575","images/stimuli/spore_stims/simple_07_A_a.gif","images/stimuli/spore_stims/simple_16_A_b.gif","forced_long","","6","simple_dissimilar","images/stimuli/spore_stims/simple_16_A_b.gif","","","","",""
"","null","html-keyboard-response","81","344467","0.0-21.0-0.5","SS1619205753092","","","null","","","","","","<p><img src= images/blank.png width =""600"" height = ""600"" style=""position:fixed;top:50%; left:50%; transform: translate(-50%, -50%); border:5px solid black"">","","","","","","","",""
"","16.419999999925494","sequential-stimulus-presentation-old","82","345004","0.0-21.0-1.5","SS1619205753092","trial","","40","500","516.4199999999255","images/stimuli/spore_stims/simple_07_A_a.gif","images/stimuli/spore_stims/simple_16_A_b.gif","forced_long","","6","simple_dissimilar","images/stimuli/spore_stims/simple_16_A_b.gif","","","","",""
"","2597.42999999976","survey-multi-choice","83","347606","0.0-22.0","SS1619205753092","math_question","","","","","","","","","","","","{""Q0"":""9""}","[0]","9","",""
"","null","html-keyboard-response","84","348718","0.0-23.0-0.0","SS1619205753092","","","null","","","","","","<p><img src= images/blank.png width =""600"" height = ""600"" style=""position:fixed;top:50%; left:50%; transform: translate(-50%, -50%); border:5px solid black"">","","","","","","","",""
"","4593.005000000645","sequential-stimulus-presentation-old","85","353863","0.0-23.0-1.0","SS1619205753092","trial","","40","500","5093.005000000645","images/stimuli/spore_stims/simple_12_A_a.gif","images/stimuli/spore_stims/simple_08_A_b.gif","self_paced","","7","simple_dissimilar","images/stimuli/spore_stims/simple_08_A_b.gif","","","","",""
"","null","html-keyboard-response","86","354861","0.0-23.0-0.1","SS1619205753092","","","null","","","","","","<p><img src= images/blank.png width =""600"" height = ""600"" style=""position:fixed;top:50%; left:50%; transform: translate(-50%, -50%); border:5px solid black"">","","","","","","","",""
"","107","sequential-stimulus-presentation-old","87","355494","0.0-23.0-1.1","SS1619205753092","trial","","40","500","607","images/stimuli/spore_stims/simple_12_A_a.gif","images/stimuli/spore_stims/simple_08_A_b.gif","self_paced","","7","simple_dissimilar","images/stimuli/spore_stims/simple_08_A_b.gif","","","","",""
"","null","html-keyboard-response","88","356309","0.0-23.0-0.2","SS1619205753092","","","null","","","","","","<p><img src= images/blank.png width =""600"" height = ""600"" style=""position:fixed;top:50%; left:50%; transform: translate(-50%, -50%); border:5px solid black"">","","","","","","","",""
"","6959.170000000042","sequential-stimulus-presentation-old","89","363777","0.0-23.0-1.2","SS1619205753092","trial","","40","500","7459.170000000042","images/stimuli/spore_stims/simple_12_A_a.gif","images/stimuli/spore_stims/simple_08_A_b.gif","self_paced","","7","simple_dissimilar","images/stimuli/spore_stims/simple_08_A_b.gif","","","","",""
"","null","html-keyboard-response","90","364638","0.0-23.0-0.3","SS1619205753092","","","null","","","","","","<p><img src= images/blank.png width =""600"" height = ""600"" style=""position:fixed;top:50%; left:50%; transform: translate(-50%, -50%); border:5px solid black"">","","","","","","","",""
"","233.83499999908963","sequential-stimulus-presentation-old","91","365381","0.0-23.0-1.3","SS1619205753092","trial","","40","500","733.8349999990896","images/stimuli/spore_stims/simple_12_A_a.gif","images/stimuli/spore_stims/simple_08_A_b.gif","self_paced","","7","simple_dissimilar","images/stimuli/spore_stims/simple_08_A_b.gif","","","","",""
"","null","html-keyboard-response","92","366471","0.0-23.0-0.4","SS1619205753092","","","null","","","","","","<p><img src= images/blank.png width =""600"" height = ""600"" style=""position:fixed;top:50%; left:50%; transform: translate(-50%, -50%); border:5px solid black"">","","","","","","","",""
"","543.5800000013551","sequential-stimulus-presentation-old","93","367556","0.0-23.0-1.4","SS1619205753092","trial","","40","500","1043.580000001355","images/stimuli/spore_stims/simple_12_A_a.gif","images/stimuli/spore_stims/simple_08_A_b.gif","self_paced","","7","simple_dissimilar","images/stimuli/spore_stims/simple_08_A_b.gif","","","","",""
"","4964.079999999725","survey-multi-choice","94","372550","0.0-24.0","SS1619205753092","math_question","","","","","","","","","","","","{""Q0"":""6""}","[0]","6","",""
"","null","html-keyboard-response","95","373612","0.0-25.0-0.0","SS1619205753092","","","null","","","","","","<p><img src= images/blank.png width =""600"" height = ""600"" style=""position:fixed;top:50%; left:50%; transform: translate(-50%, -50%); border:5px solid black"">","","","","","","","",""
"","1341.3350000010105","sequential-stimulus-presentation-old","96","375098","0.0-25.0-1.0","SS1619205753092","trial","","40","500","1841.3350000010105","images/stimuli/spore_stims/complex_01_A_a.gif","images/stimuli/spore_stims/complex_18_A_b.gif","forced_short","","8","complex_dissimilar","images/stimuli/spore_stims/complex_18_A_b.gif","","","","",""
"","null","html-keyboard-response","97","375978","0.0-25.0-0.1","SS1619205753092","","","null","","","","","","<p><img src= images/blank.png width =""600"" height = ""600"" style=""position:fixed;top:50%; left:50%; transform: translate(-50%, -50%); border:5px solid black"">","","","","","","","",""
"","1670.0899999996182","sequential-stimulus-presentation-old","98","378192","0.0-25.0-1.1","SS1619205753092","trial","","40","500","2170.089999999618","images/stimuli/spore_stims/complex_01_A_a.gif","images/stimuli/spore_stims/complex_18_A_b.gif","forced_short","","8","complex_dissimilar","images/stimuli/spore_stims/complex_18_A_b.gif","","","","",""
"","null","html-keyboard-response","99","379089","0.0-25.0-0.2","SS1619205753092","","","null","","","","","","<p><img src= images/blank.png width =""600"" height = ""600"" style=""position:fixed;top:50%; left:50%; transform: translate(-50%, -50%); border:5px solid black"">","","","","","","","",""
"","288.07000000053085","sequential-stimulus-presentation-old","100","379894","0.0-25.0-1.2","SS1619205753092","trial","","40","500","788.0700000005309","images/stimuli/spore_stims/complex_01_A_a.gif","images/stimuli/spore_stims/complex_18_A_b.gif","forced_short","","8","complex_dissimilar","images/stimuli/spore_stims/complex_18_A_b.gif","","","","",""
"","null","html-keyboard-response","101","380788","0.0-25.0-0.3","SS1619205753092","","","null","","","","","","<p><img src= images/blank.png width =""600"" height = ""600"" style=""position:fixed;top:50%; left:50%; transform: translate(-50%, -50%); border:5px solid black"">","","","","","","","",""
"","359.5150000000722","sequential-stimulus-presentation-old","102","381680","0.0-25.0-1.3","SS1619205753092","trial","","40","500","859.5150000000722","images/stimuli/spore_stims/complex_01_A_a.gif","images/stimuli/spore_stims/complex_18_A_b.gif","forced_short","","8","complex_dissimilar","images/stimuli/spore_stims/complex_18_A_b.gif","","","","",""
"","null","html-keyboard-response","103","382664","0.0-25.0-0.4","SS1619205753092","","","null","","","","","","<p><img src= images/blank.png width =""600"" height = ""600"" style=""position:fixed;top:50%; left:50%; transform: translate(-50%, -50%); border:5px solid black"">","","","","","","","",""
"","1136.1000000015483","sequential-stimulus-presentation-old","104","384325","0.0-25.0-1.4","SS1619205753092","trial","","40","500","1636.1000000015483","images/stimuli/spore_stims/complex_01_A_a.gif","images/stimuli/spore_stims/complex_18_A_b.gif","forced_short","","8","complex_dissimilar","images/stimuli/spore_stims/complex_18_A_b.gif","","","","",""
"","2686.2600000004168","survey-multi-choice","105","387020","0.0-26.0","SS1619205753092","math_question","","","","","","","","","","","","{""Q0"":""14""}","[0]","14","",""
"","null","html-keyboard-response","106","388342","0.0-27.0-0.0","SS1619205753092","","","null","","","","","","<p><img src= images/blank.png width =""600"" height = ""600"" style=""position:fixed;top:50%; left:50%; transform: translate(-50%, -50%); border:5px solid black"">","","","","","","","",""
"","6910.8900000010035","sequential-stimulus-presentation-old","107","405332","0.0-27.0-1.0","SS1619205753092","trial","","40","500","7410.8900000010035","images/stimuli/spore_stims/complex_16_A_b.gif","images/stimuli/spore_stims/complex_15_A_a.gif","forced_long","","9","complex_dissimilar","images/stimuli/spore_stims/complex_15_A_a.gif","","","","",""
"","null","html-keyboard-response","108","406261","0.0-27.0-0.1","SS1619205753092","","","null","","","","","","<p><img src= images/blank.png width =""600"" height = ""600"" style=""position:fixed;top:50%; left:50%; transform: translate(-50%, -50%); border:5px solid black"">","","","","","","","",""
"","184.2450000004028","sequential-stimulus-presentation-old","109","407005","0.0-27.0-1.1","SS1619205753092","trial","","40","500","684.2450000004028","images/stimuli/spore_stims/complex_16_A_b.gif","images/stimuli/spore_stims/complex_15_A_a.gif","forced_long","","9","complex_dissimilar","images/stimuli/spore_stims/complex_15_A_a.gif","","","","",""
"","null","html-keyboard-response","110","408316","0.0-27.0-0.2","SS1619205753092","","","null","","","","","","<p><img src= images/blank.png width =""600"" height = ""600"" style=""position:fixed;top:50%; left:50%; transform: translate(-50%, -50%); border:5px solid black"">","","","","","","","",""
"","62.82000000105472","sequential-stimulus-presentation-old","111","408913","0.0-27.0-1.2","SS1619205753092","trial","","40","500","562.8200000010547","images/stimuli/spore_stims/complex_16_A_b.gif","images/stimuli/spore_stims/complex_15_A_a.gif","forced_long","","9","complex_dissimilar","images/stimuli/spore_stims/complex_15_A_a.gif","","","","",""
"","null","html-keyboard-response","112","409782","0.0-27.0-0.3","SS1619205753092","","","null","","","","","","<p><img src= images/blank.png width =""600"" height = ""600"" style=""position:fixed;top:50%; left:50%; transform: translate(-50%, -50%); border:5px solid black"">","","","","","","","",""
"","1485.924999999057","sequential-stimulus-presentation-old","113","411795","0.0-27.0-1.3","SS1619205753092","trial","","40","500","1985.924999999057","images/stimuli/spore_stims/complex_16_A_b.gif","images/stimuli/spore_stims/complex_15_A_a.gif","forced_long","","9","complex_dissimilar","images/stimuli/spore_stims/complex_15_A_a.gif","","","","",""
"","null","html-keyboard-response","114","412987","0.0-27.0-0.4","SS1619205753092","","","null","","","","","","<p><img src= images/blank.png width =""600"" height = ""600"" style=""position:fixed;top:50%; left:50%; transform: translate(-50%, -50%); border:5px solid black"">","","","","","","","",""
"","587.7149999996764","sequential-stimulus-presentation-old","115","414100","0.0-27.0-1.4","SS1619205753092","trial","","40","500","1087.7149999996764","images/stimuli/spore_stims/complex_16_A_b.gif","images/stimuli/spore_stims/complex_15_A_a.gif","forced_long","","9","complex_dissimilar","images/stimuli/spore_stims/complex_15_A_a.gif","","","","",""
"","2408.405000000086","survey-multi-choice","116","416516","0.0-28.0","SS1619205753092","math_question","","","","","","","","","","","","{""Q0"":""9""}","[0]","9","",""
"","null","html-keyboard-response","117","417913","0.0-29.0-0.0","SS1619205753092","","","null","","","","","","<p><img src= images/blank.png width =""600"" height = ""600"" style=""position:fixed;top:50%; left:50%; transform: translate(-50%, -50%); border:5px solid black"">","","","","","","","",""
"","1820.804999999411","sequential-stimulus-presentation-old","118","429766","0.0-29.0-1.0","SS1619205753092","trial","","40","500","2320.804999999411","images/stimuli/spore_stims/complex_05_A_b.gif","images/stimuli/spore_stims/complex_02_A_a.gif","forced_long","","10","complex_dissimilar","images/stimuli/spore_stims/complex_02_A_a.gif","","","","",""
"","null","html-keyboard-response","119","430809","0.0-29.0-0.1","SS1619205753092","","","null","","","","","","<p><img src= images/blank.png width =""600"" height = ""600"" style=""position:fixed;top:50%; left:50%; transform: translate(-50%, -50%); border:5px solid black"">","","","","","","","",""
"","110.53500000166241","sequential-stimulus-presentation-old","120","431428","0.0-29.0-1.1","SS1619205753092","trial","","40","500","610.5350000016624","images/stimuli/spore_stims/complex_05_A_b.gif","images/stimuli/spore_stims/complex_02_A_a.gif","forced_long","","10","complex_dissimilar","images/stimuli/spore_stims/complex_02_A_a.gif","","","","",""
"","null","html-keyboard-response","121","432318","0.0-29.0-0.2","SS1619205753092","","","null","","","","","","<p><img src= images/blank.png width =""600"" height = ""600"" style=""position:fixed;top:50%; left:50%; transform: translate(-50%, -50%); border:5px solid black"">","","","","","","","",""
"","1314.8350000010687","sequential-stimulus-presentation-old","122","434166","0.0-29.0-1.2","SS1619205753092","trial","","40","500","1814.8350000010687","images/stimuli/spore_stims/complex_05_A_b.gif","images/stimuli/spore_stims/complex_02_A_a.gif","forced_long","","10","complex_dissimilar","images/stimuli/spore_stims/complex_02_A_a.gif","","","","",""
"","null","html-keyboard-response","123","435384","0.0-29.0-0.3","SS1619205753092","","","null","","","","","","<p><img src= images/blank.png width =""600"" height = ""600"" style=""position:fixed;top:50%; left:50%; transform: translate(-50%, -50%); border:5px solid black"">","","","","","","","",""
"","195.35499999980675","sequential-stimulus-presentation-old","124","436109","0.0-29.0-1.3","SS1619205753092","trial","","40","500","695.3549999998068","images/stimuli/spore_stims/complex_05_A_b.gif","images/stimuli/spore_stims/complex_02_A_a.gif","forced_long","","10","complex_dissimilar","images/stimuli/spore_stims/complex_05_A_b.gif","","","","",""
"","null","html-keyboard-response","125","437025","0.0-29.0-0.4","SS1619205753092","","","null","","","","","","<p><img src= images/blank.png width =""600"" height = ""600"" style=""position:fixed;top:50%; left:50%; transform: translate(-50%, -50%); border:5px solid black"">","","","","","","","",""
"","448.3449999988661","sequential-stimulus-presentation-old","126","438013","0.0-29.0-1.4","SS1619205753092","trial","","40","500","948.3449999988661","images/stimuli/spore_stims/complex_05_A_b.gif","images/stimuli/spore_stims/complex_02_A_a.gif","forced_long","","10","complex_dissimilar","images/stimuli/spore_stims/complex_02_A_a.gif","","","","",""
"","null","html-keyboard-response","127","439068","0.0-29.0-0.5","SS1619205753092","","","null","","","","","","<p><img src= images/blank.png width =""600"" height = ""600"" style=""position:fixed;top:50%; left:50%; transform: translate(-50%, -50%); border:5px solid black"">","","","","","","","",""
"","4845.744999998715","sequential-stimulus-presentation-old","128","444435","0.0-29.0-1.5","SS1619205753092","trial","","40","500","5345.744999998715","images/stimuli/spore_stims/complex_05_A_b.gif","images/stimuli/spore_stims/complex_02_A_a.gif","forced_long","","10","complex_dissimilar","images/stimuli/spore_stims/complex_05_A_b.gif","","","","",""
"","2673.2950000005076","survey-multi-choice","129","447116","0.0-30.0","SS1619205753092","math_question","","","","","","","","","","","","{""Q0"":""10""}","[0]","10","",""
"","null","html-keyboard-response","130","448283","0.0-31.0-0.0","SS1619205753092","","","null","","","","","","<p><img src= images/blank.png width =""600"" height = ""600"" style=""position:fixed;top:50%; left:50%; transform: translate(-50%, -50%); border:5px solid black"">","","","","","","","",""
"","3053.1350000001257","sequential-stimulus-presentation-old","131","451477","0.0-31.0-1.0","SS1619205753092","trial","","40","500","3553.1350000001257","images/stimuli/spore_stims/simple_15_A_b.gif","images/stimuli/spore_stims/simple_16_A_a.gif","forced_short","","11","simple_dissimilar","images/stimuli/spore_stims/simple_16_A_a.gif","","","","",""
"","null","html-keyboard-response","132","452540","0.0-31.0-0.1","SS1619205753092","","","null","","","","","","<p><img src= images/blank.png width =""600"" height = ""600"" style=""position:fixed;top:50%; left:50%; transform: translate(-50%, -50%); border:5px solid black"">","","","","","","","",""
"","13.67000000027474","sequential-stimulus-presentation-old","133","453111","0.0-31.0-1.1","SS1619205753092","trial","","40","500","513.6700000002747","images/stimuli/spore_stims/simple_15_A_b.gif","images/stimuli/spore_stims/simple_16_A_a.gif","forced_short","","11","simple_dissimilar","images/stimuli/spore_stims/simple_16_A_a.gif","","","","",""
"","null","html-keyboard-response","134","454279","0.0-31.0-0.2","SS1619205753092","","","null","","","","","","<p><img src= images/blank.png width =""600"" height = ""600"" style=""position:fixed;top:50%; left:50%; transform: translate(-50%, -50%); border:5px solid black"">","","","","","","","",""
"","48.08500000031199","sequential-stimulus-presentation-old","135","454850","0.0-31.0-1.2","SS1619205753092","trial","","40","500","548.085000000312","images/stimuli/spore_stims/simple_15_A_b.gif","images/stimuli/spore_stims/simple_16_A_a.gif","forced_short","","11","simple_dissimilar","images/stimuli/spore_stims/simple_16_A_a.gif","","","","",""
"","null","html-keyboard-response","136","456008","0.0-31.0-0.3","SS1619205753092","","","null","","","","","","<p><img src= images/blank.png width =""600"" height = ""600"" style=""position:fixed;top:50%; left:50%; transform: translate(-50%, -50%); border:5px solid black"">","","","","","","","",""
"","5928.195000000414","sequential-stimulus-presentation-old","137","462448","0.0-31.0-1.3","SS1619205753092","trial","","40","500","6428.195000000414","images/stimuli/spore_stims/simple_15_A_b.gif","images/stimuli/spore_stims/simple_16_A_a.gif","forced_short","","11","simple_dissimilar","images/stimuli/spore_stims/simple_16_A_a.gif","","","","",""
"","null","html-keyboard-response","138","463521","0.0-31.0-0.4","SS1619205753092","","","null","","","","","","<p><img src= images/blank.png width =""600"" height = ""600"" style=""position:fixed;top:50%; left:50%; transform: translate(-50%, -50%); border:5px solid black"">","","","","","","","",""
"","8014.5150000007125","sequential-stimulus-presentation-old","139","472059","0.0-31.0-1.4","SS1619205753092","trial","","40","500","8514.515000000712","images/stimuli/spore_stims/simple_15_A_b.gif","images/stimuli/spore_stims/simple_16_A_a.gif","forced_short","","11","simple_dissimilar","images/stimuli/spore_stims/simple_16_A_a.gif","","","","",""
"[{""page_index"":0,""viewing_time"":6299.965000000084}]","6300.3100000005215","instructions","140","478365","0.0-32.0","SS1619205753092","instructions","","","","","","","","","","","","","","","",""
"","11270.42000000074","survey-likert","141","489644","0.0-33.0","SS1619205753092","similarity_question","","","","","","","","","","","","{""Q0"":2}","[0]","","images/stimuli/spore_stims/simple_18_A_a.gif","images/stimuli/spore_stims/simple_05_A_b.gif"
"","8077.095000000554","survey-likert","142","497741","0.0-34.0","SS1619205753092","similarity_question","","","","","","","","","","","","{""Q0"":4}","[0]","","images/stimuli/spore_stims/complex_06_A_a.gif","images/stimuli/spore_stims/complex_13_A_b.gif"
"","3351.564999999013","survey-likert","143","501107","0.0-35.0","SS1619205753092","similarity_question","","","","","","","","","","","","{""Q0"":1}","[0]","","images/stimuli/spore_stims/complex_15_A_a.gif","images/stimuli/spore_stims/complex_16_A_b.gif"
"","4849.180000001099","survey-likert","144","505972","0.0-36.0","SS1619205753092","similarity_question","","","","","","","","","","","","{""Q0"":1}","[0]","","images/stimuli/spore_stims/complex_07_A_b.gif","images/stimuli/spore_stims/complex_09_A_a.gif"
"","5263.4299999990035","survey-likert","145","511253","0.0-37.0","SS1619205753092","similarity_question","","","","","","","","","","","","{""Q0"":5}","[0]","","images/stimuli/spore_stims/complex_04_A_a.gif","images/stimuli/spore_stims/complex_09_A_b.gif"
"","3123.0400000003865","survey-likert","146","514399","0.0-38.0","SS1619205753092","similarity_question","","","","","","","","","","","","{""Q0"":6}","[0]","","images/stimuli/spore_stims/simple_06_A_a.gif","images/stimuli/spore_stims/simple_01_A_b.gif"
"","3680.8750000001164","survey-likert","147","518101","0.0-39.0","SS1619205753092","similarity_question","","","","","","","","","","","","{""Q0"":2}","[0]","","images/stimuli/spore_stims/simple_07_A_a.gif","images/stimuli/spore_stims/simple_16_A_b.gif"
"","4339.335000000661","survey-likert","148","522462","0.0-40.0","SS1619205753092","similarity_question","","","","","","","","","","","","{""Q0"":1}","[0]","","images/stimuli/spore_stims/complex_01_A_a.gif","images/stimuli/spore_stims/complex_18_A_b.gif"
"","5509.845000000554","survey-likert","149","527988","0.0-41.0","SS1619205753092","similarity_question","","","","","","","","","","","","{""Q0"":5}","[0]","","images/stimuli/spore_stims/simple_12_A_a.gif","images/stimuli/spore_stims/simple_08_A_b.gif"
"","2120.184999999823","survey-likert","150","530124","0.0-42.0","SS1619205753092","similarity_question","","","","","","","","","","","","{""Q0"":0}","[0]","","images/stimuli/spore_stims/complex_05_A_b.gif","images/stimuli/spore_stims/complex_02_A_a.gif"
"","5408.644999999553","survey-likert","151","535548","0.0-43.0","SS1619205753092","similarity_question","","","","","","","","","","","","{""Q0"":1}","[0]","","images/stimuli/spore_stims/simple_16_A_a.gif","images/stimuli/spore_stims/simple_15_A_b.gif"
"","4021.8000000005122","survey-likert","152","539589","0.0-44.0","SS1619205753092","similarity_question","","","","","","","","","","","","{""Q0"":1}","[0]","","images/stimuli/spore_stims/simple_10_A_b.gif","images/stimuli/spore_stims/simple_14_A_a.gif"
"[{""page_index"":0,""viewing_time"":1102.999999999185}]","1105.1599999992177","instructions","153","540710","0.0-45.0","SS1619205753092","instructions","","","","","","","","","","","","","","","",""
"","3782.7899999993388","survey-likert","154","544501","0.0-46.0","SS1619205753092","","","","","","","","","images/stimuli/spore_stims/simple_06_A_a.gif","","","","{""Q0"":0}","[0]","","",""
"","2195.244999999064","survey-likert","155","546715","0.0-47.0","SS1619205753092","","","","","","","","","images/stimuli/spore_stims/complex_13_A_b.gif","","","","{""Q0"":5}","[0]","","",""
"","5532.250000000233","survey-likert","156","552267","0.0-48.0","SS1619205753092","","","","","","","","","images/stimuli/spore_stims/complex_02_A_a.gif","","","","{""Q0"":5}","[0]","","",""
"","2726.720000000554","survey-likert","157","555014","0.0-49.0","SS1619205753092","","","","","","","","","images/stimuli/spore_stims/complex_16_A_b.gif","","","","{""Q0"":5}","[0]","","",""
"","1750.820000001113","survey-likert","158","556787","0.0-50.0","SS1619205753092","","","","","","","","","images/stimuli/spore_stims/simple_07_A_a.gif","","","","{""Q0"":0}","[0]","","",""
"","3985.3549999989336","survey-likert","159","560790","0.0-51.0","SS1619205753092","","","","","","","","","images/stimuli/spore_stims/complex_09_A_b.gif","","","","{""Q0"":6}","[0]","","",""
"","2754.6600000004983","survey-likert","160","563558","0.0-52.0","SS1619205753092","","","","","","","","","images/stimuli/spore_stims/simple_10_A_b.gif","","","","{""Q0"":0}","[0]","","",""
"","2120.3000000005122","survey-likert","161","565701","0.0-53.0","SS1619205753092","","","","","","","","","images/stimuli/spore_stims/simple_12_A_a.gif","","","","{""Q0"":1}","[0]","","",""
"","2798.429999998887","survey-likert","162","568516","0.0-54.0","SS1619205753092","","","","","","","","","images/stimuli/spore_stims/simple_16_A_a.gif","","","","{""Q0"":2}","[0]","","",""
"","2579.939999999595","survey-likert","163","571116","0.0-55.0","SS1619205753092","","","","","","","","","images/stimuli/spore_stims/complex_09_A_a.gif","","","","{""Q0"":5}","[0]","","",""
"","2128.1500000003725","survey-likert","164","573260","0.0-56.0","SS1619205753092","","","","","","","","","images/stimuli/spore_stims/complex_01_A_a.gif","","","","{""Q0"":5}","[0]","","",""
"","3625.2700000004843","survey-likert","165","576900","0.0-57.0","SS1619205753092","","","","","","","","","images/stimuli/spore_stims/simple_05_A_b.gif","","","","{""Q0"":0}","[0]","","",""
"[{""page_index"":0,""viewing_time"":1280.114999999525}]","1282.284999999334","instructions","166","578199","0.0-58.0","SS1619205753092","instructions","","","","","","","","","","","","","","","",""
"","2401.1100000006845","demog-age","167","580621","0.0-59.0","SS1619205753092","","","","","","","","","","","","","{""age"":""23""}","","","",""
"","3221.4050000001444","demog-ethnic-US","168","583857","0.0-60.0","SS1619205753092","","","","","","","","","","","","","{""ethnicity"":[""White""]}","[0]","","",""
"","7034.564999999944","demog-gender-and-education","169","590909","0.0-61.0","SS1619205753092","","","","","","","","","","","","","{""gender"":""Male"",""education"":""High school diploma""}","[0,1]","","",""
"","11735.370000000345","survey-text","170","602668","0.0-62.0","SS1619205753092","feedback","","","","","","","","","","","","{""Q0"":""No ""}","","","",""
"[{""page_index"":0,""viewing_time"":1415.6249999996508}]","1416.0300000003772","instructions","171","604094","0.0-63.0","SS1619205753092","instructions","","","","","","","","","","","","","","","",""
