"view_history","rt","trial_type","trial_index","time_elapsed","internal_node_id","subject","stimulus_type","trial_stimulus","key_press","minimum_viewing_duration","trial_looking_time","block_deviant","block_background","exposure_type","stimulus","block_number","block_type","stimulus_displayed","responses","question_order","math_correct_answer","stimulus_left","stimulus_right"
"[{""page_index"":0,""viewing_time"":3791.205000015907}]","3791.9150000670925","instructions","0","3798","0.0-0.0","SS1619205247663","","","","","","","","","","","","","","","","",""
"[{""page_index"":0,""viewing_time"":11058.314999914728},{""page_index"":1,""viewing_time"":5465.505000087433}]","16526.10499993898","instructions","1","22346","0.0-1.0","SS1619205247663","instructions","","","","","","","","","","","","","","","",""
"","6221.040000091307","sequential-stimulus-presentation-old","2","29087","0.0-2.0","SS1619205247663","","","40","500","6721.040000091307","null","null","self_paced","","","","","","","","",""
"","2001.6149999573827","sequential-stimulus-presentation-old","3","31599","0.0-3.0","SS1619205247663","","","40","500","2501.6149999573827","null","null","self_paced","","","","","","","","",""
"[{""page_index"":0,""viewing_time"":7574.649999965914}]","7575.955000007525","instructions","4","39177","0.0-4.0","SS1619205247663","instructions","","","","","","","","","","","","","","","",""
"","5462.97999995295","sequential-stimulus-presentation-old","5","54663","0.0-5.0","SS1619205247663","","","40","500","5962.97999995295","null","null","forced_long","","","","","","","","",""
"","5838.149999966845","sequential-stimulus-presentation-old","6","60619","0.0-6.0","SS1619205247663","","","40","500","6338.149999966845","null","null","forced_long","","","","","","","","",""
"[{""page_index"":0,""viewing_time"":1620.1499999733642}]","1627.6199999265373","instructions","7","62250","0.0-7.0","SS1619205247663","instructions","","","","","","","","","","","","","","","",""
"[{""page_index"":0,""viewing_time"":4874.889999977313},{""page_index"":1,""viewing_time"":7894.579999963753},{""page_index"":2,""viewing_time"":3247.7750000543892},{""page_index"":3,""viewing_time"":1499.5799999451265},{""page_index"":4,""viewing_time"":1616.6700000176206}]","19133.949999930337","instructions","8","81389","0.0-8.0","SS1619205247663","instructions","","","","","","","","","","","","","","","",""
"","null","html-keyboard-response","9","82646","0.0-9.0-0.0","SS1619205247663","","","null","","","","","","<p><img src= images/blank.png width =""600"" height = ""600"" style=""position:fixed;top:50%; left:50%; transform: translate(-50%, -50%); border:5px solid black"">","","","","","","","",""
"","2566.0949999000877","sequential-stimulus-presentation-old","10","85326","0.0-9.0-1.0","SS1619205247663","trial","","40","500","3066.0949999000877","images/stimuli/spore_stims/complex_11_A_b.gif","images/stimuli/spore_stims/complex_19_A_a.gif","forced_short","","0","complex_dissimilar","images/stimuli/spore_stims/complex_19_A_a.gif","","","","",""
"","null","html-keyboard-response","11","86496","0.0-9.0-0.1","SS1619205247663","","","null","","","","","","<p><img src= images/blank.png width =""600"" height = ""600"" style=""position:fixed;top:50%; left:50%; transform: translate(-50%, -50%); border:5px solid black"">","","","","","","","",""
"","45675.504999933764","sequential-stimulus-presentation-old","12","132685","0.0-9.0-1.1","SS1619205247663","trial","","40","500","46175.504999933764","images/stimuli/spore_stims/complex_11_A_b.gif","images/stimuli/spore_stims/complex_19_A_a.gif","forced_short","","0","complex_dissimilar","images/stimuli/spore_stims/complex_19_A_a.gif","","","","",""
"","null","html-keyboard-response","13","133534","0.0-9.0-0.2","SS1619205247663","","","null","","","","","","<p><img src= images/blank.png width =""600"" height = ""600"" style=""position:fixed;top:50%; left:50%; transform: translate(-50%, -50%); border:5px solid black"">","","","","","","","",""
"","4185.840000049211","sequential-stimulus-presentation-old","14","138233","0.0-9.0-1.2","SS1619205247663","trial","","40","500","4685.840000049211","images/stimuli/spore_stims/complex_11_A_b.gif","images/stimuli/spore_stims/complex_19_A_a.gif","forced_short","","0","complex_dissimilar","images/stimuli/spore_stims/complex_19_A_a.gif","","","","",""
"","null","html-keyboard-response","15","139504","0.0-9.0-0.3","SS1619205247663","","","null","","","","","","<p><img src= images/blank.png width =""600"" height = ""600"" style=""position:fixed;top:50%; left:50%; transform: translate(-50%, -50%); border:5px solid black"">","","","","","","","",""
"","25984.76500005927","sequential-stimulus-presentation-old","16","166013","0.0-9.0-1.3","SS1619205247663","trial","","40","500","26484.76500005927","images/stimuli/spore_stims/complex_11_A_b.gif","images/stimuli/spore_stims/complex_19_A_a.gif","forced_short","","0","complex_dissimilar","images/stimuli/spore_stims/complex_19_A_a.gif","","","","",""
"","null","html-keyboard-response","17","166985","0.0-9.0-0.4","SS1619205247663","","","null","","","","","","<p><img src= images/blank.png width =""600"" height = ""600"" style=""position:fixed;top:50%; left:50%; transform: translate(-50%, -50%); border:5px solid black"">","","","","","","","",""
"","41552.454999880865","sequential-stimulus-presentation-old","18","209058","0.0-9.0-1.4","SS1619205247663","trial","","40","500","42052.454999880865","images/stimuli/spore_stims/complex_11_A_b.gif","images/stimuli/spore_stims/complex_19_A_a.gif","forced_short","","0","complex_dissimilar","images/stimuli/spore_stims/complex_19_A_a.gif","","","","",""
"","null","html-keyboard-response","19","209891","0.0-9.0-0.5","SS1619205247663","","","null","","","","","","<p><img src= images/blank.png width =""600"" height = ""600"" style=""position:fixed;top:50%; left:50%; transform: translate(-50%, -50%); border:5px solid black"">","","","","","","","",""
"","14703.170000109822","sequential-stimulus-presentation-old","20","225103","0.0-9.0-1.5","SS1619205247663","trial","","40","500","15203.170000109822","images/stimuli/spore_stims/complex_11_A_b.gif","images/stimuli/spore_stims/complex_19_A_a.gif","forced_short","","0","complex_dissimilar","images/stimuli/spore_stims/complex_11_A_b.gif","","","","",""
"","6383.750000037253","survey-multi-choice","21","231505","0.0-10.0","SS1619205247663","math_question","","","","","","","","","","","","{""Q0"":""14""}","[0]","14","",""
"","null","html-keyboard-response","22","232650","0.0-11.0-0.0","SS1619205247663","","","null","","","","","","<p><img src= images/blank.png width =""600"" height = ""600"" style=""position:fixed;top:50%; left:50%; transform: translate(-50%, -50%); border:5px solid black"">","","","","","","","",""
"","3692.4650000873953","sequential-stimulus-presentation-old","23","246351","0.0-11.0-1.0","SS1619205247663","trial","","40","500","4192.465000087395","images/stimuli/spore_stims/simple_03_A_b.gif","images/stimuli/spore_stims/simple_20_A_a.gif","forced_long","","1","simple_dissimilar","images/stimuli/spore_stims/simple_20_A_a.gif","","","","",""
"","null","html-keyboard-response","24","247409","0.0-11.0-0.1","SS1619205247663","","","null","","","","","","<p><img src= images/blank.png width =""600"" height = ""600"" style=""position:fixed;top:50%; left:50%; transform: translate(-50%, -50%); border:5px solid black"">","","","","","","","",""
"","1734.815000090748","sequential-stimulus-presentation-old","25","249658","0.0-11.0-1.1","SS1619205247663","trial","","40","500","2234.815000090748","images/stimuli/spore_stims/simple_03_A_b.gif","images/stimuli/spore_stims/simple_20_A_a.gif","forced_long","","1","simple_dissimilar","images/stimuli/spore_stims/simple_20_A_a.gif","","","","",""
"","null","html-keyboard-response","26","250857","0.0-11.0-0.2","SS1619205247663","","","null","","","","","","<p><img src= images/blank.png width =""600"" height = ""600"" style=""position:fixed;top:50%; left:50%; transform: translate(-50%, -50%); border:5px solid black"">","","","","","","","",""
"","9670.894999988377","sequential-stimulus-presentation-old","27","261104","0.0-11.0-1.2","SS1619205247663","trial","","40","500","10170.894999988377","images/stimuli/spore_stims/simple_03_A_b.gif","images/stimuli/spore_stims/simple_20_A_a.gif","forced_long","","1","simple_dissimilar","images/stimuli/spore_stims/simple_03_A_b.gif","","","","",""
"","null","html-keyboard-response","28","262320","0.0-11.0-0.3","SS1619205247663","","","null","","","","","","<p><img src= images/blank.png width =""600"" height = ""600"" style=""position:fixed;top:50%; left:50%; transform: translate(-50%, -50%); border:5px solid black"">","","","","","","","",""
"","6658.814999973401","sequential-stimulus-presentation-old","29","269493","0.0-11.0-1.3","SS1619205247663","trial","","40","500","7158.814999973401","images/stimuli/spore_stims/simple_03_A_b.gif","images/stimuli/spore_stims/simple_20_A_a.gif","forced_long","","1","simple_dissimilar","images/stimuli/spore_stims/simple_20_A_a.gif","","","","",""
"","null","html-keyboard-response","30","270767","0.0-11.0-0.4","SS1619205247663","","","null","","","","","","<p><img src= images/blank.png width =""600"" height = ""600"" style=""position:fixed;top:50%; left:50%; transform: translate(-50%, -50%); border:5px solid black"">","","","","","","","",""
"","7203.824999975041","sequential-stimulus-presentation-old","31","278483","0.0-11.0-1.4","SS1619205247663","trial","","40","500","7703.824999975041","images/stimuli/spore_stims/simple_03_A_b.gif","images/stimuli/spore_stims/simple_20_A_a.gif","forced_long","","1","simple_dissimilar","images/stimuli/spore_stims/simple_20_A_a.gif","","","","",""
"","6583.010000176728","survey-multi-choice","32","285071","0.0-12.0","SS1619205247663","math_question","","","","","","","","","","","","{""Q0"":""13""}","[0]","13","",""
"","null","html-keyboard-response","33","286165","0.0-13.0-0.0","SS1619205247663","","","null","","","","","","<p><img src= images/blank.png width =""600"" height = ""600"" style=""position:fixed;top:50%; left:50%; transform: translate(-50%, -50%); border:5px solid black"">","","","","","","","",""
"","22928.749999962747","sequential-stimulus-presentation-old","34","309606","0.0-13.0-1.0","SS1619205247663","trial","","40","500","23428.749999962747","images/stimuli/spore_stims/complex_19_A_b.gif","images/stimuli/spore_stims/complex_12_A_a.gif","self_paced","","2","complex_dissimilar","images/stimuli/spore_stims/complex_12_A_a.gif","","","","",""
"","null","html-keyboard-response","35","310794","0.0-13.0-0.1","SS1619205247663","","","null","","","","","","<p><img src= images/blank.png width =""600"" height = ""600"" style=""position:fixed;top:50%; left:50%; transform: translate(-50%, -50%); border:5px solid black"">","","","","","","","",""
"","16293.559999903664","sequential-stimulus-presentation-old","36","327608","0.0-13.0-1.1","SS1619205247663","trial","","40","500","16793.559999903664","images/stimuli/spore_stims/complex_19_A_b.gif","images/stimuli/spore_stims/complex_12_A_a.gif","self_paced","","2","complex_dissimilar","images/stimuli/spore_stims/complex_12_A_a.gif","","","","",""
"","null","html-keyboard-response","37","328691","0.0-13.0-0.2","SS1619205247663","","","null","","","","","","<p><img src= images/blank.png width =""600"" height = ""600"" style=""position:fixed;top:50%; left:50%; transform: translate(-50%, -50%); border:5px solid black"">","","","","","","","",""
"","5252.915000077337","sequential-stimulus-presentation-old","38","334481","0.0-13.0-1.2","SS1619205247663","trial","","40","500","5752.915000077337","images/stimuli/spore_stims/complex_19_A_b.gif","images/stimuli/spore_stims/complex_12_A_a.gif","self_paced","","2","complex_dissimilar","images/stimuli/spore_stims/complex_12_A_a.gif","","","","",""
"","null","html-keyboard-response","39","335416","0.0-13.0-0.3","SS1619205247663","","","null","","","","","","<p><img src= images/blank.png width =""600"" height = ""600"" style=""position:fixed;top:50%; left:50%; transform: translate(-50%, -50%); border:5px solid black"">","","","","","","","",""
"","24571.950000012293","sequential-stimulus-presentation-old","40","360504","0.0-13.0-1.3","SS1619205247663","trial","","40","500","25071.950000012293","images/stimuli/spore_stims/complex_19_A_b.gif","images/stimuli/spore_stims/complex_12_A_a.gif","self_paced","","2","complex_dissimilar","images/stimuli/spore_stims/complex_12_A_a.gif","","","","",""
"","null","html-keyboard-response","41","361562","0.0-13.0-0.4","SS1619205247663","","","null","","","","","","<p><img src= images/blank.png width =""600"" height = ""600"" style=""position:fixed;top:50%; left:50%; transform: translate(-50%, -50%); border:5px solid black"">","","","","","","","",""
"","24151.52999991551","sequential-stimulus-presentation-old","42","386239","0.0-13.0-1.4","SS1619205247663","trial","","40","500","24651.52999991551","images/stimuli/spore_stims/complex_19_A_b.gif","images/stimuli/spore_stims/complex_12_A_a.gif","self_paced","","2","complex_dissimilar","images/stimuli/spore_stims/complex_12_A_a.gif","","","","",""
"","null","html-keyboard-response","43","387462","0.0-13.0-0.5","SS1619205247663","","","null","","","","","","<p><img src= images/blank.png width =""600"" height = ""600"" style=""position:fixed;top:50%; left:50%; transform: translate(-50%, -50%); border:5px solid black"">","","","","","","","",""
"","4509.880000026897","sequential-stimulus-presentation-old","44","392492","0.0-13.0-1.5","SS1619205247663","trial","","40","500","5009.880000026897","images/stimuli/spore_stims/complex_19_A_b.gif","images/stimuli/spore_stims/complex_12_A_a.gif","self_paced","","2","complex_dissimilar","images/stimuli/spore_stims/complex_12_A_a.gif","","","","",""
"","2748.6900000367314","survey-multi-choice","45","395245","0.0-14.0","SS1619205247663","math_question","","","","","","","","","","","","{""Q0"":""10""}","[0]","10","",""
"","null","html-keyboard-response","46","396500","0.0-15.0-0.0","SS1619205247663","","","null","","","","","","<p><img src= images/blank.png width =""600"" height = ""600"" style=""position:fixed;top:50%; left:50%; transform: translate(-50%, -50%); border:5px solid black"">","","","","","","","",""
"","1124.3499999400228","sequential-stimulus-presentation-old","47","397744","0.0-15.0-1.0","SS1619205247663","trial","","40","500","1624.3499999400228","images/stimuli/spore_stims/complex_07_A_b.gif","images/stimuli/spore_stims/complex_05_A_a.gif","forced_short","","3","complex_dissimilar","images/stimuli/spore_stims/complex_05_A_a.gif","","","","",""
"","null","html-keyboard-response","48","398689","0.0-15.0-0.1","SS1619205247663","","","null","","","","","","<p><img src= images/blank.png width =""600"" height = ""600"" style=""position:fixed;top:50%; left:50%; transform: translate(-50%, -50%); border:5px solid black"">","","","","","","","",""
"","21419.364999979734","sequential-stimulus-presentation-old","49","420620","0.0-15.0-1.1","SS1619205247663","trial","","40","500","21919.364999979734","images/stimuli/spore_stims/complex_07_A_b.gif","images/stimuli/spore_stims/complex_05_A_a.gif","forced_short","","3","complex_dissimilar","images/stimuli/spore_stims/complex_05_A_a.gif","","","","",""
"","null","html-keyboard-response","50","421570","0.0-15.0-0.2","SS1619205247663","","","null","","","","","","<p><img src= images/blank.png width =""600"" height = ""600"" style=""position:fixed;top:50%; left:50%; transform: translate(-50%, -50%); border:5px solid black"">","","","","","","","",""
"","6747.864999808371","sequential-stimulus-presentation-old","51","428846","0.0-15.0-1.2","SS1619205247663","trial","","40","500","7247.864999808371","images/stimuli/spore_stims/complex_07_A_b.gif","images/stimuli/spore_stims/complex_05_A_a.gif","forced_short","","3","complex_dissimilar","images/stimuli/spore_stims/complex_05_A_a.gif","","","","",""
"","null","html-keyboard-response","52","429709","0.0-15.0-0.3","SS1619205247663","","","null","","","","","","<p><img src= images/blank.png width =""600"" height = ""600"" style=""position:fixed;top:50%; left:50%; transform: translate(-50%, -50%); border:5px solid black"">","","","","","","","",""
"","1625.9550000540912","sequential-stimulus-presentation-old","53","431846","0.0-15.0-1.3","SS1619205247663","trial","","40","500","2125.955000054091","images/stimuli/spore_stims/complex_07_A_b.gif","images/stimuli/spore_stims/complex_05_A_a.gif","forced_short","","3","complex_dissimilar","images/stimuli/spore_stims/complex_05_A_a.gif","","","","",""
"","2383.4949999582022","survey-multi-choice","54","434236","0.0-16.0","SS1619205247663","math_question","","","","","","","","","","","","{""Q0"":""10""}","[0]","10","",""
"","null","html-keyboard-response","55","435354","0.0-17.0-0.0","SS1619205247663","","","null","","","","","","<p><img src= images/blank.png width =""600"" height = ""600"" style=""position:fixed;top:50%; left:50%; transform: translate(-50%, -50%); border:5px solid black"">","","","","","","","",""
"","10908.300000010058","sequential-stimulus-presentation-old","56","446791","0.0-17.0-1.0","SS1619205247663","trial","","40","500","11408.300000010058","images/stimuli/spore_stims/simple_14_A_a.gif","images/stimuli/spore_stims/simple_11_A_b.gif","self_paced","","4","simple_dissimilar","images/stimuli/spore_stims/simple_11_A_b.gif","","","","",""
"","null","html-keyboard-response","57","447802","0.0-17.0-0.1","SS1619205247663","","","null","","","","","","<p><img src= images/blank.png width =""600"" height = ""600"" style=""position:fixed;top:50%; left:50%; transform: translate(-50%, -50%); border:5px solid black"">","","","","","","","",""
"","1560.6299999635667","sequential-stimulus-presentation-old","58","449883","0.0-17.0-1.1","SS1619205247663","trial","","40","500","2060.6299999635667","images/stimuli/spore_stims/simple_14_A_a.gif","images/stimuli/spore_stims/simple_11_A_b.gif","self_paced","","4","simple_dissimilar","images/stimuli/spore_stims/simple_11_A_b.gif","","","","",""
"","null","html-keyboard-response","59","450854","0.0-17.0-0.2","SS1619205247663","","","null","","","","","","<p><img src= images/blank.png width =""600"" height = ""600"" style=""position:fixed;top:50%; left:50%; transform: translate(-50%, -50%); border:5px solid black"">","","","","","","","",""
"","2858.334999997169","sequential-stimulus-presentation-old","60","454225","0.0-17.0-1.2","SS1619205247663","trial","","40","500","3358.334999997169","images/stimuli/spore_stims/simple_14_A_a.gif","images/stimuli/spore_stims/simple_11_A_b.gif","self_paced","","4","simple_dissimilar","images/stimuli/spore_stims/simple_11_A_b.gif","","","","",""
"","null","html-keyboard-response","61","455504","0.0-17.0-0.3","SS1619205247663","","","null","","","","","","<p><img src= images/blank.png width =""600"" height = ""600"" style=""position:fixed;top:50%; left:50%; transform: translate(-50%, -50%); border:5px solid black"">","","","","","","","",""
"","52606.34000017308","sequential-stimulus-presentation-old","62","508668","0.0-17.0-1.3","SS1619205247663","trial","","40","500","53106.34000017308","images/stimuli/spore_stims/simple_14_A_a.gif","images/stimuli/spore_stims/simple_11_A_b.gif","self_paced","","4","simple_dissimilar","images/stimuli/spore_stims/simple_11_A_b.gif","","","","",""
"","null","html-keyboard-response","63","509548","0.0-17.0-0.4","SS1619205247663","","","null","","","","","","<p><img src= images/blank.png width =""600"" height = ""600"" style=""position:fixed;top:50%; left:50%; transform: translate(-50%, -50%); border:5px solid black"">","","","","","","","",""
"","2331.5150002017617","sequential-stimulus-presentation-old","64","512397","0.0-17.0-1.4","SS1619205247663","trial","","40","500","2831.5150002017617","images/stimuli/spore_stims/simple_14_A_a.gif","images/stimuli/spore_stims/simple_11_A_b.gif","self_paced","","4","simple_dissimilar","images/stimuli/spore_stims/simple_11_A_b.gif","","","","",""
"","6654.490000102669","survey-multi-choice","65","519060","0.0-18.0","SS1619205247663","math_question","","","","","","","","","","","","{""Q0"":""15""}","[0]","15","",""
"","null","html-keyboard-response","66","520051","0.0-19.0-0.0","SS1619205247663","","","null","","","","","","<p><img src= images/blank.png width =""600"" height = ""600"" style=""position:fixed;top:50%; left:50%; transform: translate(-50%, -50%); border:5px solid black"">","","","","","","","",""
"","3463.960000080988","sequential-stimulus-presentation-old","67","523648","0.0-19.0-1.0","SS1619205247663","trial","","40","500","3963.960000080988","images/stimuli/spore_stims/simple_08_A_a.gif","images/stimuli/spore_stims/simple_04_A_b.gif","forced_short","","5","simple_dissimilar","images/stimuli/spore_stims/simple_04_A_b.gif","","","","",""
"","null","html-keyboard-response","68","524946","0.0-19.0-0.1","SS1619205247663","","","null","","","","","","<p><img src= images/blank.png width =""600"" height = ""600"" style=""position:fixed;top:50%; left:50%; transform: translate(-50%, -50%); border:5px solid black"">","","","","","","","",""
"","6781.554999994114","sequential-stimulus-presentation-old","69","532254","0.0-19.0-1.1","SS1619205247663","trial","","40","500","7281.554999994114","images/stimuli/spore_stims/simple_08_A_a.gif","images/stimuli/spore_stims/simple_04_A_b.gif","forced_short","","5","simple_dissimilar","images/stimuli/spore_stims/simple_04_A_b.gif","","","","",""
"","null","html-keyboard-response","70","533258","0.0-19.0-0.2","SS1619205247663","","","null","","","","","","<p><img src= images/blank.png width =""600"" height = ""600"" style=""position:fixed;top:50%; left:50%; transform: translate(-50%, -50%); border:5px solid black"">","","","","","","","",""
"","20164.074999978766","sequential-stimulus-presentation-old","71","553935","0.0-19.0-1.2","SS1619205247663","trial","","40","500","20664.074999978766","images/stimuli/spore_stims/simple_08_A_a.gif","images/stimuli/spore_stims/simple_04_A_b.gif","forced_short","","5","simple_dissimilar","images/stimuli/spore_stims/simple_04_A_b.gif","","","","",""
"","null","html-keyboard-response","72","555219","0.0-19.0-0.3","SS1619205247663","","","null","","","","","","<p><img src= images/blank.png width =""600"" height = ""600"" style=""position:fixed;top:50%; left:50%; transform: translate(-50%, -50%); border:5px solid black"">","","","","","","","",""
"","31270.100000081584","sequential-stimulus-presentation-old","73","587019","0.0-19.0-1.3","SS1619205247663","trial","","40","500","31770.100000081584","images/stimuli/spore_stims/simple_08_A_a.gif","images/stimuli/spore_stims/simple_04_A_b.gif","forced_short","","5","simple_dissimilar","images/stimuli/spore_stims/simple_08_A_a.gif","","","","",""
"","11103.59499999322","survey-multi-choice","74","598127","0.0-20.0","SS1619205247663","math_question","","","","","","","","","","","","{""Q0"":""12""}","[0]","12","",""
"","null","html-keyboard-response","75","599003","0.0-21.0-0.0","SS1619205247663","","","null","","","","","","<p><img src= images/blank.png width =""600"" height = ""600"" style=""position:fixed;top:50%; left:50%; transform: translate(-50%, -50%); border:5px solid black"">","","","","","","","",""
"","850.3849999979138","sequential-stimulus-presentation-old","76","599973","0.0-21.0-1.0","SS1619205247663","trial","","40","500","1350.3849999979138","images/stimuli/spore_stims/simple_12_A_b.gif","images/stimuli/spore_stims/simple_06_A_a.gif","forced_short","","6","simple_dissimilar","images/stimuli/spore_stims/simple_06_A_a.gif","","","","",""
"","null","html-keyboard-response","77","601122","0.0-21.0-0.1","SS1619205247663","","","null","","","","","","<p><img src= images/blank.png width =""600"" height = ""600"" style=""position:fixed;top:50%; left:50%; transform: translate(-50%, -50%); border:5px solid black"">","","","","","","","",""
"","67340.47499997541","sequential-stimulus-presentation-old","78","668978","0.0-21.0-1.1","SS1619205247663","trial","","40","500","67840.47499997541","images/stimuli/spore_stims/simple_12_A_b.gif","images/stimuli/spore_stims/simple_06_A_a.gif","forced_short","","6","simple_dissimilar","images/stimuli/spore_stims/simple_06_A_a.gif","","","","",""
"","null","html-keyboard-response","79","670143","0.0-21.0-0.2","SS1619205247663","","","null","","","","","","<p><img src= images/blank.png width =""600"" height = ""600"" style=""position:fixed;top:50%; left:50%; transform: translate(-50%, -50%); border:5px solid black"">","","","","","","","",""
"","25994.405000004917","sequential-stimulus-presentation-old","80","696667","0.0-21.0-1.2","SS1619205247663","trial","","40","500","26494.405000004917","images/stimuli/spore_stims/simple_12_A_b.gif","images/stimuli/spore_stims/simple_06_A_a.gif","forced_short","","6","simple_dissimilar","images/stimuli/spore_stims/simple_12_A_b.gif","","","","",""
"","null","html-keyboard-response","81","697766","0.0-21.0-0.3","SS1619205247663","","","null","","","","","","<p><img src= images/blank.png width =""600"" height = ""600"" style=""position:fixed;top:50%; left:50%; transform: translate(-50%, -50%); border:5px solid black"">","","","","","","","",""
"","2521.9650000799447","sequential-stimulus-presentation-old","82","700862","0.0-21.0-1.3","SS1619205247663","trial","","40","500","3021.9650000799447","images/stimuli/spore_stims/simple_12_A_b.gif","images/stimuli/spore_stims/simple_06_A_a.gif","forced_short","","6","simple_dissimilar","images/stimuli/spore_stims/simple_06_A_a.gif","","","","",""
"","null","html-keyboard-response","83","701923","0.0-21.0-0.4","SS1619205247663","","","null","","","","","","<p><img src= images/blank.png width =""600"" height = ""600"" style=""position:fixed;top:50%; left:50%; transform: translate(-50%, -50%); border:5px solid black"">","","","","","","","",""
"","13801.380000077188","sequential-stimulus-presentation-old","84","716257","0.0-21.0-1.4","SS1619205247663","trial","","40","500","14301.380000077188","images/stimuli/spore_stims/simple_12_A_b.gif","images/stimuli/spore_stims/simple_06_A_a.gif","forced_short","","6","simple_dissimilar","images/stimuli/spore_stims/simple_12_A_b.gif","","","","",""
"","5481.804999988526","survey-multi-choice","85","721745","0.0-22.0","SS1619205247663","math_question","","","","","","","","","","","","{""Q0"":""2""}","[0]","2","",""
"","null","html-keyboard-response","86","722856","0.0-23.0-0.0","SS1619205247663","","","null","","","","","","<p><img src= images/blank.png width =""600"" height = ""600"" style=""position:fixed;top:50%; left:50%; transform: translate(-50%, -50%); border:5px solid black"">","","","","","","","",""
"","23647.054999833927","sequential-stimulus-presentation-old","87","756554","0.0-23.0-1.0","SS1619205247663","trial","","40","500","24147.054999833927","images/stimuli/spore_stims/simple_06_A_b.gif","images/stimuli/spore_stims/simple_12_A_a.gif","forced_long","","7","simple_dissimilar","images/stimuli/spore_stims/simple_12_A_a.gif","","","","",""
"","null","html-keyboard-response","88","757616","0.0-23.0-0.1","SS1619205247663","","","null","","","","","","<p><img src= images/blank.png width =""600"" height = ""600"" style=""position:fixed;top:50%; left:50%; transform: translate(-50%, -50%); border:5px solid black"">","","","","","","","",""
"","45903.425000142306","sequential-stimulus-presentation-old","89","804034","0.0-23.0-1.1","SS1619205247663","trial","","40","500","46403.425000142306","images/stimuli/spore_stims/simple_06_A_b.gif","images/stimuli/spore_stims/simple_12_A_a.gif","forced_long","","7","simple_dissimilar","images/stimuli/spore_stims/simple_12_A_a.gif","","","","",""
"","null","html-keyboard-response","90","805082","0.0-23.0-0.2","SS1619205247663","","","null","","","","","","<p><img src= images/blank.png width =""600"" height = ""600"" style=""position:fixed;top:50%; left:50%; transform: translate(-50%, -50%); border:5px solid black"">","","","","","","","",""
"","31125","sequential-stimulus-presentation-old","91","836731","0.0-23.0-1.2","SS1619205247663","trial","","40","500","31625","images/stimuli/spore_stims/simple_06_A_b.gif","images/stimuli/spore_stims/simple_12_A_a.gif","forced_long","","7","simple_dissimilar","images/stimuli/spore_stims/simple_12_A_a.gif","","","","",""
"","null","html-keyboard-response","92","837606","0.0-23.0-0.3","SS1619205247663","","","null","","","","","","<p><img src= images/blank.png width =""600"" height = ""600"" style=""position:fixed;top:50%; left:50%; transform: translate(-50%, -50%); border:5px solid black"">","","","","","","","",""
"","7790.189999854192","sequential-stimulus-presentation-old","93","845933","0.0-23.0-1.3","SS1619205247663","trial","","40","500","8290.189999854192","images/stimuli/spore_stims/simple_06_A_b.gif","images/stimuli/spore_stims/simple_12_A_a.gif","forced_long","","7","simple_dissimilar","images/stimuli/spore_stims/simple_06_A_b.gif","","","","",""
"","4489.620000123978","survey-multi-choice","94","850434","0.0-24.0","SS1619205247663","math_question","","","","","","","","","","","","{""Q0"":""7""}","[0]","7","",""
"","null","html-keyboard-response","95","851437","0.0-25.0-0.0","SS1619205247663","","","null","","","","","","<p><img src= images/blank.png width =""600"" height = ""600"" style=""position:fixed;top:50%; left:50%; transform: translate(-50%, -50%); border:5px solid black"">","","","","","","","",""
"","1745.589999947697","sequential-stimulus-presentation-old","96","853694","0.0-25.0-1.0","SS1619205247663","trial","","40","500","2245.589999947697","images/stimuli/spore_stims/simple_10_A_a.gif","images/stimuli/spore_stims/simple_17_A_b.gif","self_paced","","8","simple_dissimilar","images/stimuli/spore_stims/simple_17_A_b.gif","","","","",""
"","null","html-keyboard-response","97","854756","0.0-25.0-0.1","SS1619205247663","","","null","","","","","","<p><img src= images/blank.png width =""600"" height = ""600"" style=""position:fixed;top:50%; left:50%; transform: translate(-50%, -50%); border:5px solid black"">","","","","","","","",""
"","5324.809999903664","sequential-stimulus-presentation-old","98","860627","0.0-25.0-1.1","SS1619205247663","trial","","40","500","5824.809999903664","images/stimuli/spore_stims/simple_10_A_a.gif","images/stimuli/spore_stims/simple_17_A_b.gif","self_paced","","8","simple_dissimilar","images/stimuli/spore_stims/simple_17_A_b.gif","","","","",""
"","null","html-keyboard-response","99","861580","0.0-25.0-0.2","SS1619205247663","","","null","","","","","","<p><img src= images/blank.png width =""600"" height = ""600"" style=""position:fixed;top:50%; left:50%; transform: translate(-50%, -50%); border:5px solid black"">","","","","","","","",""
"","15320.309999864548","sequential-stimulus-presentation-old","100","877409","0.0-25.0-1.2","SS1619205247663","trial","","40","500","15820.309999864548","images/stimuli/spore_stims/simple_10_A_a.gif","images/stimuli/spore_stims/simple_17_A_b.gif","self_paced","","8","simple_dissimilar","images/stimuli/spore_stims/simple_17_A_b.gif","","","","",""
"","null","html-keyboard-response","101","878514","0.0-25.0-0.3","SS1619205247663","","","null","","","","","","<p><img src= images/blank.png width =""600"" height = ""600"" style=""position:fixed;top:50%; left:50%; transform: translate(-50%, -50%); border:5px solid black"">","","","","","","","",""
"","36973.415000131354","sequential-stimulus-presentation-old","102","916013","0.0-25.0-1.3","SS1619205247663","trial","","40","500","37473.415000131354","images/stimuli/spore_stims/simple_10_A_a.gif","images/stimuli/spore_stims/simple_17_A_b.gif","self_paced","","8","simple_dissimilar","images/stimuli/spore_stims/simple_17_A_b.gif","","","","",""
"","3559.1599999461323","survey-multi-choice","103","919587","0.0-26.0","SS1619205247663","math_question","","","","","","","","","","","","{""Q0"":""11""}","[0]","11","",""
"","null","html-keyboard-response","104","920486","0.0-27.0-0.0","SS1619205247663","","","null","","","","","","<p><img src= images/blank.png width =""600"" height = ""600"" style=""position:fixed;top:50%; left:50%; transform: translate(-50%, -50%); border:5px solid black"">","","","","","","","",""
"","10125.729999970645","sequential-stimulus-presentation-old","105","931125","0.0-27.0-1.0","SS1619205247663","trial","","40","500","10625.729999970645","images/stimuli/spore_stims/complex_14_A_a.gif","images/stimuli/spore_stims/complex_02_A_b.gif","self_paced","","9","complex_dissimilar","images/stimuli/spore_stims/complex_02_A_b.gif","","","","",""
"","null","html-keyboard-response","106","932327","0.0-27.0-0.1","SS1619205247663","","","null","","","","","","<p><img src= images/blank.png width =""600"" height = ""600"" style=""position:fixed;top:50%; left:50%; transform: translate(-50%, -50%); border:5px solid black"">","","","","","","","",""
"","14815.995000069961","sequential-stimulus-presentation-old","107","947673","0.0-27.0-1.1","SS1619205247663","trial","","40","500","15315.995000069961","images/stimuli/spore_stims/complex_14_A_a.gif","images/stimuli/spore_stims/complex_02_A_b.gif","self_paced","","9","complex_dissimilar","images/stimuli/spore_stims/complex_02_A_b.gif","","","","",""
"","null","html-keyboard-response","108","948699","0.0-27.0-0.2","SS1619205247663","","","null","","","","","","<p><img src= images/blank.png width =""600"" height = ""600"" style=""position:fixed;top:50%; left:50%; transform: translate(-50%, -50%); border:5px solid black"">","","","","","","","",""
"","13879.415000090376","sequential-stimulus-presentation-old","109","963184","0.0-27.0-1.2","SS1619205247663","trial","","40","500","14379.415000090376","images/stimuli/spore_stims/complex_14_A_a.gif","images/stimuli/spore_stims/complex_02_A_b.gif","self_paced","","9","complex_dissimilar","images/stimuli/spore_stims/complex_02_A_b.gif","","","","",""
"","null","html-keyboard-response","110","964114","0.0-27.0-0.3","SS1619205247663","","","null","","","","","","<p><img src= images/blank.png width =""600"" height = ""600"" style=""position:fixed;top:50%; left:50%; transform: translate(-50%, -50%); border:5px solid black"">","","","","","","","",""
"","14588.514999952167","sequential-stimulus-presentation-old","111","979234","0.0-27.0-1.3","SS1619205247663","trial","","40","500","15088.514999952167","images/stimuli/spore_stims/complex_14_A_a.gif","images/stimuli/spore_stims/complex_02_A_b.gif","self_paced","","9","complex_dissimilar","images/stimuli/spore_stims/complex_14_A_a.gif","","","","",""
"","null","html-keyboard-response","112","980500","0.0-27.0-0.4","SS1619205247663","","","null","","","","","","<p><img src= images/blank.png width =""600"" height = ""600"" style=""position:fixed;top:50%; left:50%; transform: translate(-50%, -50%); border:5px solid black"">","","","","","","","",""
"","8341.809999896213","sequential-stimulus-presentation-old","113","989358","0.0-27.0-1.4","SS1619205247663","trial","","40","500","8841.809999896213","images/stimuli/spore_stims/complex_14_A_a.gif","images/stimuli/spore_stims/complex_02_A_b.gif","self_paced","","9","complex_dissimilar","images/stimuli/spore_stims/complex_02_A_b.gif","","","","",""
"","null","html-keyboard-response","114","990363","0.0-27.0-0.5","SS1619205247663","","","null","","","","","","<p><img src= images/blank.png width =""600"" height = ""600"" style=""position:fixed;top:50%; left:50%; transform: translate(-50%, -50%); border:5px solid black"">","","","","","","","",""
"","23539.99499999918","sequential-stimulus-presentation-old","115","1014432","0.0-27.0-1.5","SS1619205247663","trial","","40","500","24039.99499999918","images/stimuli/spore_stims/complex_14_A_a.gif","images/stimuli/spore_stims/complex_02_A_b.gif","self_paced","","9","complex_dissimilar","images/stimuli/spore_stims/complex_14_A_a.gif","","","","",""
"","10514.599999878556","survey-multi-choice","116","1024953","0.0-28.0","SS1619205247663","math_question","","","","","","","","","","","","{""Q0"":""14""}","[0]","14","",""
"","null","html-keyboard-response","117","1025984","0.0-29.0-0.0","SS1619205247663","","","null","","","","","","<p><img src= images/blank.png width =""600"" height = ""600"" style=""position:fixed;top:50%; left:50%; transform: translate(-50%, -50%); border:5px solid black"">","","","","","","","",""
"","3428.940000012517","sequential-stimulus-presentation-old","118","1039425","0.0-29.0-1.0","SS1619205247663","trial","","40","500","3928.940000012517","images/stimuli/spore_stims/complex_04_A_b.gif","images/stimuli/spore_stims/complex_06_A_a.gif","forced_long","","10","complex_dissimilar","images/stimuli/spore_stims/complex_06_A_a.gif","","","","",""
"","null","html-keyboard-response","119","1040406","0.0-29.0-0.1","SS1619205247663","","","null","","","","","","<p><img src= images/blank.png width =""600"" height = ""600"" style=""position:fixed;top:50%; left:50%; transform: translate(-50%, -50%); border:5px solid black"">","","","","","","","",""
"","12585.234999889508","sequential-stimulus-presentation-old","120","1053499","0.0-29.0-1.1","SS1619205247663","trial","","40","500","13085.234999889508","images/stimuli/spore_stims/complex_04_A_b.gif","images/stimuli/spore_stims/complex_06_A_a.gif","forced_long","","10","complex_dissimilar","images/stimuli/spore_stims/complex_06_A_a.gif","","","","",""
"","null","html-keyboard-response","121","1054442","0.0-29.0-0.2","SS1619205247663","","","null","","","","","","<p><img src= images/blank.png width =""600"" height = ""600"" style=""position:fixed;top:50%; left:50%; transform: translate(-50%, -50%); border:5px solid black"">","","","","","","","",""
"","14200.639999937266","sequential-stimulus-presentation-old","122","1069159","0.0-29.0-1.2","SS1619205247663","trial","","40","500","14700.639999937266","images/stimuli/spore_stims/complex_04_A_b.gif","images/stimuli/spore_stims/complex_06_A_a.gif","forced_long","","10","complex_dissimilar","images/stimuli/spore_stims/complex_04_A_b.gif","","","","",""
"","null","html-keyboard-response","123","1070043","0.0-29.0-0.3","SS1619205247663","","","null","","","","","","<p><img src= images/blank.png width =""600"" height = ""600"" style=""position:fixed;top:50%; left:50%; transform: translate(-50%, -50%); border:5px solid black"">","","","","","","","",""
"","14628.580000018701","sequential-stimulus-presentation-old","124","1085179","0.0-29.0-1.3","SS1619205247663","trial","","40","500","15128.580000018701","images/stimuli/spore_stims/complex_04_A_b.gif","images/stimuli/spore_stims/complex_06_A_a.gif","forced_long","","10","complex_dissimilar","images/stimuli/spore_stims/complex_06_A_a.gif","","","","",""
"","null","html-keyboard-response","125","1086016","0.0-29.0-0.4","SS1619205247663","","","null","","","","","","<p><img src= images/blank.png width =""600"" height = ""600"" style=""position:fixed;top:50%; left:50%; transform: translate(-50%, -50%); border:5px solid black"">","","","","","","","",""
"","11490.299999946728","sequential-stimulus-presentation-old","126","1098040","0.0-29.0-1.4","SS1619205247663","trial","","40","500","11990.299999946728","images/stimuli/spore_stims/complex_04_A_b.gif","images/stimuli/spore_stims/complex_06_A_a.gif","forced_long","","10","complex_dissimilar","images/stimuli/spore_stims/complex_06_A_a.gif","","","","",""
"","null","html-keyboard-response","127","1098913","0.0-29.0-0.5","SS1619205247663","","","null","","","","","","<p><img src= images/blank.png width =""600"" height = ""600"" style=""position:fixed;top:50%; left:50%; transform: translate(-50%, -50%); border:5px solid black"">","","","","","","","",""
"","17563.62000014633","sequential-stimulus-presentation-old","128","1116985","0.0-29.0-1.5","SS1619205247663","trial","","40","500","18063.62000014633","images/stimuli/spore_stims/complex_04_A_b.gif","images/stimuli/spore_stims/complex_06_A_a.gif","forced_long","","10","complex_dissimilar","images/stimuli/spore_stims/complex_04_A_b.gif","","","","",""
"","3799.5750000700355","survey-multi-choice","129","1120793","0.0-30.0","SS1619205247663","math_question","","","","","","","","","","","","{""Q0"":""11""}","[0]","11","",""
"","null","html-keyboard-response","130","1121879","0.0-31.0-0.0","SS1619205247663","","","null","","","","","","<p><img src= images/blank.png width =""600"" height = ""600"" style=""position:fixed;top:50%; left:50%; transform: translate(-50%, -50%); border:5px solid black"">","","","","","","","",""
"","3128.7000000011176","sequential-stimulus-presentation-old","131","1135035","0.0-31.0-1.0","SS1619205247663","trial","","40","500","3628.7000000011176","images/stimuli/spore_stims/complex_15_A_b.gif","images/stimuli/spore_stims/complex_13_A_a.gif","forced_long","","11","complex_dissimilar","images/stimuli/spore_stims/complex_13_A_a.gif","","","","",""
"","null","html-keyboard-response","132","1136280","0.0-31.0-0.1","SS1619205247663","","","null","","","","","","<p><img src= images/blank.png width =""600"" height = ""600"" style=""position:fixed;top:50%; left:50%; transform: translate(-50%, -50%); border:5px solid black"">","","","","","","","",""
"","1010.5050001293421","sequential-stimulus-presentation-old","133","1137807","0.0-31.0-1.1","SS1619205247663","trial","","40","500","1510.505000129342","images/stimuli/spore_stims/complex_15_A_b.gif","images/stimuli/spore_stims/complex_13_A_a.gif","forced_long","","11","complex_dissimilar","images/stimuli/spore_stims/complex_13_A_a.gif","","","","",""
"","null","html-keyboard-response","134","1138892","0.0-31.0-0.2","SS1619205247663","","","null","","","","","","<p><img src= images/blank.png width =""600"" height = ""600"" style=""position:fixed;top:50%; left:50%; transform: translate(-50%, -50%); border:5px solid black"">","","","","","","","",""
"","379.79000015184283","sequential-stimulus-presentation-old","135","1139792","0.0-31.0-1.2","SS1619205247663","trial","","40","500","879.7900001518428","images/stimuli/spore_stims/complex_15_A_b.gif","images/stimuli/spore_stims/complex_13_A_a.gif","forced_long","","11","complex_dissimilar","images/stimuli/spore_stims/complex_13_A_a.gif","","","","",""
"","null","html-keyboard-response","136","1141038","0.0-31.0-0.3","SS1619205247663","","","null","","","","","","<p><img src= images/blank.png width =""600"" height = ""600"" style=""position:fixed;top:50%; left:50%; transform: translate(-50%, -50%); border:5px solid black"">","","","","","","","",""
"","15671.945000067353","sequential-stimulus-presentation-old","137","1157229","0.0-31.0-1.3","SS1619205247663","trial","","40","500","16171.945000067353","images/stimuli/spore_stims/complex_15_A_b.gif","images/stimuli/spore_stims/complex_13_A_a.gif","forced_long","","11","complex_dissimilar","images/stimuli/spore_stims/complex_15_A_b.gif","","","","",""
"","null","html-keyboard-response","138","1158535","0.0-31.0-0.4","SS1619205247663","","","null","","","","","","<p><img src= images/blank.png width =""600"" height = ""600"" style=""position:fixed;top:50%; left:50%; transform: translate(-50%, -50%); border:5px solid black"">","","","","","","","",""
"","746.4449999388307","sequential-stimulus-presentation-old","139","1159792","0.0-31.0-1.4","SS1619205247663","trial","","40","500","1246.4449999388307","images/stimuli/spore_stims/complex_15_A_b.gif","images/stimuli/spore_stims/complex_13_A_a.gif","forced_long","","11","complex_dissimilar","images/stimuli/spore_stims/complex_13_A_a.gif","","","","",""
"[{""page_index"":0,""viewing_time"":4401.844999985769}]","4402.424999978393","instructions","140","1164200","0.0-32.0","SS1619205247663","instructions","","","","","","","","","","","","","","","",""
"","8956.985000055283","survey-likert","141","1173167","0.0-33.0","SS1619205247663","similarity_question","","","","","","","","","","","","{""Q0"":0}","[0]","","images/stimuli/spore_stims/complex_15_A_b.gif","images/stimuli/spore_stims/complex_13_A_a.gif"
"","3331.0350000392646","survey-likert","142","1176516","0.0-34.0","SS1619205247663","similarity_question","","","","","","","","","","","","{""Q0"":5}","[0]","","images/stimuli/spore_stims/simple_06_A_b.gif","images/stimuli/spore_stims/simple_12_A_a.gif"
"","5205.605000024661","survey-likert","143","1181741","0.0-35.0","SS1619205247663","similarity_question","","","","","","","","","","","","{""Q0"":4}","[0]","","images/stimuli/spore_stims/simple_11_A_b.gif","images/stimuli/spore_stims/simple_14_A_a.gif"
"","3345.024999929592","survey-likert","144","1185103","0.0-36.0","SS1619205247663","similarity_question","","","","","","","","","","","","{""Q0"":0}","[0]","","images/stimuli/spore_stims/complex_04_A_b.gif","images/stimuli/spore_stims/complex_06_A_a.gif"
"","5549.984999932349","survey-likert","145","1190676","0.0-37.0","SS1619205247663","similarity_question","","","","","","","","","","","","{""Q0"":4}","[0]","","images/stimuli/spore_stims/simple_12_A_b.gif","images/stimuli/spore_stims/simple_06_A_a.gif"
"","4461.86999999918","survey-likert","146","1195157","0.0-38.0","SS1619205247663","similarity_question","","","","","","","","","","","","{""Q0"":0}","[0]","","images/stimuli/spore_stims/complex_19_A_b.gif","images/stimuli/spore_stims/complex_12_A_a.gif"
"","2853.9899999741465","survey-likert","147","1198024","0.0-39.0","SS1619205247663","similarity_question","","","","","","","","","","","","{""Q0"":0}","[0]","","images/stimuli/spore_stims/complex_05_A_a.gif","images/stimuli/spore_stims/complex_07_A_b.gif"
"","3076.05000003241","survey-likert","148","1201119","0.0-40.0","SS1619205247663","similarity_question","","","","","","","","","","","","{""Q0"":0}","[0]","","images/stimuli/spore_stims/complex_11_A_b.gif","images/stimuli/spore_stims/complex_19_A_a.gif"
"","3133.085000095889","survey-likert","149","1204266","0.0-41.0","SS1619205247663","similarity_question","","","","","","","","","","","","{""Q0"":4}","[0]","","images/stimuli/spore_stims/simple_08_A_a.gif","images/stimuli/spore_stims/simple_04_A_b.gif"
"","2831.99999993667","survey-likert","150","1207111","0.0-42.0","SS1619205247663","similarity_question","","","","","","","","","","","","{""Q0"":0}","[0]","","images/stimuli/spore_stims/complex_14_A_a.gif","images/stimuli/spore_stims/complex_02_A_b.gif"
"","2691.5049999952316","survey-likert","151","1209822","0.0-43.0","SS1619205247663","similarity_question","","","","","","","","","","","","{""Q0"":4}","[0]","","images/stimuli/spore_stims/simple_03_A_b.gif","images/stimuli/spore_stims/simple_20_A_a.gif"
"","2987.680000020191","survey-likert","152","1212824","0.0-44.0","SS1619205247663","similarity_question","","","","","","","","","","","","{""Q0"":4}","[0]","","images/stimuli/spore_stims/simple_17_A_b.gif","images/stimuli/spore_stims/simple_10_A_a.gif"
"[{""page_index"":0,""viewing_time"":2055.530000012368}]","2056.089999852702","instructions","153","1214891","0.0-45.0","SS1619205247663","instructions","","","","","","","","","","","","","","","",""
"","4127.790000056848","survey-likert","154","1219034","0.0-46.0","SS1619205247663","","","","","","","","","images/stimuli/spore_stims/simple_03_A_b.gif","","","","{""Q0"":2}","[0]","","",""
"","6412.400000030175","survey-likert","155","1225463","0.0-47.0","SS1619205247663","","","","","","","","","images/stimuli/spore_stims/simple_06_A_b.gif","","","","{""Q0"":1}","[0]","","",""
"","3025.2449999097735","survey-likert","156","1228504","0.0-48.0","SS1619205247663","","","","","","","","","images/stimuli/spore_stims/complex_19_A_b.gif","","","","{""Q0"":5}","[0]","","",""
"","4227.775000035763","survey-likert","157","1232787","0.0-49.0","SS1619205247663","","","","","","","","","images/stimuli/spore_stims/complex_19_A_a.gif","","","","{""Q0"":5}","[0]","","",""
"","2096.1050000041723","survey-likert","158","1234915","0.0-50.0","SS1619205247663","","","","","","","","","images/stimuli/spore_stims/simple_10_A_a.gif","","","","{""Q0"":1}","[0]","","",""
"","2010.7849999330938","survey-likert","159","1236935","0.0-51.0","SS1619205247663","","","","","","","","","images/stimuli/spore_stims/complex_07_A_b.gif","","","","{""Q0"":5}","[0]","","",""
"","1983.5299998521805","survey-likert","160","1238973","0.0-52.0","SS1619205247663","","","","","","","","","images/stimuli/spore_stims/simple_06_A_a.gif","","","","{""Q0"":1}","[0]","","",""
"","1591.0649998113513","survey-likert","161","1240584","0.0-53.0","SS1619205247663","","","","","","","","","images/stimuli/spore_stims/complex_14_A_a.gif","","","","{""Q0"":5}","[0]","","",""
"","1704.640000127256","survey-likert","162","1242311","0.0-54.0","SS1619205247663","","","","","","","","","images/stimuli/spore_stims/complex_06_A_a.gif","","","","{""Q0"":5}","[0]","","",""
"","1487.7450000494719","survey-likert","163","1243812","0.0-55.0","SS1619205247663","","","","","","","","","images/stimuli/spore_stims/complex_13_A_a.gif","","","","{""Q0"":5}","[0]","","",""
"","2651.2949999887496","survey-likert","164","1246491","0.0-56.0","SS1619205247663","","","","","","","","","images/stimuli/spore_stims/simple_14_A_a.gif","","","","{""Q0"":1}","[0]","","",""
"","1493.599999928847","survey-likert","165","1248004","0.0-57.0","SS1619205247663","","","","","","","","","images/stimuli/spore_stims/simple_08_A_a.gif","","","","{""Q0"":1}","[0]","","",""
"[{""page_index"":0,""viewing_time"":1205.5950001813471}]","1206.040000077337","instructions","166","1249223","0.0-58.0","SS1619205247663","instructions","","","","","","","","","","","","","","","",""
"","3155.964999925345","demog-age","167","1252398","0.0-59.0","SS1619205247663","","","","","","","","","","","","","{""age"":""35""}","","","",""
"","3763.954999856651","demog-ethnic-US","168","1256199","0.0-60.0","SS1619205247663","","","","","","","","","","","","","{""ethnicity"":[""White""]}","[0]","","",""
"","6877.124999882653","demog-gender-and-education","169","1263093","0.0-61.0","SS1619205247663","","","","","","","","","","","","","{""gender"":""Female"",""education"":""Associate Degree/Technical certification""}","[0,1]","","",""
"","4652.710000053048","survey-text","170","1267867","0.0-62.0","SS1619205247663","feedback","","","","","","","","","","","","{""Q0"":""no""}","","","",""
"[{""page_index"":0,""viewing_time"":1517.6399999763817}]","1518.4949999675155","instructions","171","1269402","0.0-63.0","SS1619205247663","instructions","","","","","","","","","","","","","","","",""
