"view_history","rt","trial_type","trial_index","time_elapsed","internal_node_id","subject","stimulus_type","trial_stimulus","key_press","minimum_viewing_duration","trial_looking_time","block_deviant","block_background","exposure_type","stimulus","block_number","block_type","stimulus_displayed","responses","question_order","math_correct_answer","stimulus_left","stimulus_right"
"[{""page_index"":0,""viewing_time"":26538.975000032224}]","26540.15499999514","instructions","0","26541","0.0-0.0","SS1619205050011","","","","","","","","","","","","","","","","",""
"[{""page_index"":0,""viewing_time"":34838.4949999745},{""page_index"":1,""viewing_time"":9787.92000003159}]","44626.79999996908","instructions","1","73172","0.0-1.0","SS1619205050011","instructions","","","","","","","","","","","","","","","",""
"","11653.78499997314","sequential-stimulus-presentation-old","2","85333","0.0-2.0","SS1619205050011","","","40","500","12153.78499997314","null","null","self_paced","","","","","","","","",""
"","6824.714999995194","sequential-stimulus-presentation-old","3","92665","0.0-3.0","SS1619205050011","","","40","500","7324.714999995194","null","null","self_paced","","","","","","","","",""
"[{""page_index"":0,""viewing_time"":89441.44000002416}]","89441.75500003621","instructions","4","182108","0.0-4.0","SS1619205050011","instructions","","","","","","","","","","","","","","","",""
"","4341.415000031702","sequential-stimulus-presentation-old","5","196453","0.0-5.0","SS1619205050011","","","40","500","4841.415000031702","null","null","forced_long","","","","","","","","",""
"","5956.590000016149","sequential-stimulus-presentation-old","6","202516","0.0-6.0","SS1619205050011","","","40","500","6456.590000016149","null","null","forced_long","","","","","","","","",""
"[{""page_index"":0,""viewing_time"":4441.865000000689}]","4442.1800000127405","instructions","7","206960","0.0-7.0","SS1619205050011","instructions","","","","","","","","","","","","","","","",""
"[{""page_index"":0,""viewing_time"":27250.230000005104},{""page_index"":1,""viewing_time"":22532.69000002183},{""page_index"":2,""viewing_time"":9555.72999996366},{""page_index"":3,""viewing_time"":2492.150000005495},{""page_index"":4,""viewing_time"":1299.9699999927543}]","63131.050000025425","instructions","8","270092","0.0-8.0","SS1619205050011","instructions","","","","","","","","","","","","","","","",""
"","null","html-keyboard-response","9","271049","0.0-9.0-0.0","SS1619205050011","","","null","","","","","","<p><img src= images/blank.png width =""600"" height = ""600"" style=""position:fixed;top:50%; left:50%; transform: translate(-50%, -50%); border:5px solid black"">","","","","","","","",""
"","14243.060000007972","sequential-stimulus-presentation-old","10","285799","0.0-9.0-1.0","SS1619205050011","trial","","40","500","14743.060000007972","images/stimuli/spore_stims/complex_19_A_b.gif","images/stimuli/spore_stims/complex_03_A_a.gif","self_paced","","0","complex_dissimilar","images/stimuli/spore_stims/complex_03_A_a.gif","","","","",""
"","null","html-keyboard-response","11","286786","0.0-9.0-0.1","SS1619205050011","","","null","","","","","","<p><img src= images/blank.png width =""600"" height = ""600"" style=""position:fixed;top:50%; left:50%; transform: translate(-50%, -50%); border:5px solid black"">","","","","","","","",""
"","7049.354999966454","sequential-stimulus-presentation-old","12","294346","0.0-9.0-1.1","SS1619205050011","trial","","40","500","7549.354999966454","images/stimuli/spore_stims/complex_19_A_b.gif","images/stimuli/spore_stims/complex_03_A_a.gif","self_paced","","0","complex_dissimilar","images/stimuli/spore_stims/complex_03_A_a.gif","","","","",""
"","null","html-keyboard-response","13","295595","0.0-9.0-0.2","SS1619205050011","","","null","","","","","","<p><img src= images/blank.png width =""600"" height = ""600"" style=""position:fixed;top:50%; left:50%; transform: translate(-50%, -50%); border:5px solid black"">","","","","","","","",""
"","7341.114999959245","sequential-stimulus-presentation-old","14","303441","0.0-9.0-1.2","SS1619205050011","trial","","40","500","7841.114999959245","images/stimuli/spore_stims/complex_19_A_b.gif","images/stimuli/spore_stims/complex_03_A_a.gif","self_paced","","0","complex_dissimilar","images/stimuli/spore_stims/complex_03_A_a.gif","","","","",""
"","null","html-keyboard-response","15","304736","0.0-9.0-0.3","SS1619205050011","","","null","","","","","","<p><img src= images/blank.png width =""600"" height = ""600"" style=""position:fixed;top:50%; left:50%; transform: translate(-50%, -50%); border:5px solid black"">","","","","","","","",""
"","5547.855000011623","sequential-stimulus-presentation-old","16","310797","0.0-9.0-1.3","SS1619205050011","trial","","40","500","6047.855000011623","images/stimuli/spore_stims/complex_19_A_b.gif","images/stimuli/spore_stims/complex_03_A_a.gif","self_paced","","0","complex_dissimilar","images/stimuli/spore_stims/complex_03_A_a.gif","","","","",""
"","null","html-keyboard-response","17","311647","0.0-9.0-0.4","SS1619205050011","","","null","","","","","","<p><img src= images/blank.png width =""600"" height = ""600"" style=""position:fixed;top:50%; left:50%; transform: translate(-50%, -50%); border:5px solid black"">","","","","","","","",""
"","5271.674999967217","sequential-stimulus-presentation-old","18","317432","0.0-9.0-1.4","SS1619205050011","trial","","40","500","5771.674999967217","images/stimuli/spore_stims/complex_19_A_b.gif","images/stimuli/spore_stims/complex_03_A_a.gif","self_paced","","0","complex_dissimilar","images/stimuli/spore_stims/complex_03_A_a.gif","","","","",""
"","null","html-keyboard-response","19","318428","0.0-9.0-0.5","SS1619205050011","","","null","","","","","","<p><img src= images/blank.png width =""600"" height = ""600"" style=""position:fixed;top:50%; left:50%; transform: translate(-50%, -50%); border:5px solid black"">","","","","","","","",""
"","6361.5249999566","sequential-stimulus-presentation-old","20","325297","0.0-9.0-1.5","SS1619205050011","trial","","40","500","6861.5249999566","images/stimuli/spore_stims/complex_19_A_b.gif","images/stimuli/spore_stims/complex_03_A_a.gif","self_paced","","0","complex_dissimilar","images/stimuli/spore_stims/complex_03_A_a.gif","","","","",""
"","8745.129999995697","survey-multi-choice","21","334049","0.0-10.0","SS1619205050011","math_question","","","","","","","","","","","","{""Q0"":""12""}","[0]","12","",""
"","null","html-keyboard-response","22","335343","0.0-11.0-0.0","SS1619205050011","","","null","","","","","","<p><img src= images/blank.png width =""600"" height = ""600"" style=""position:fixed;top:50%; left:50%; transform: translate(-50%, -50%); border:5px solid black"">","","","","","","","",""
"","827.6599999517202","sequential-stimulus-presentation-old","23","346184","0.0-11.0-1.0","SS1619205050011","trial","","40","500","1327.6599999517202","images/stimuli/spore_stims/complex_17_A_b.gif","images/stimuli/spore_stims/complex_11_A_a.gif","forced_long","","1","complex_dissimilar","images/stimuli/spore_stims/complex_11_A_a.gif","","","","",""
"","null","html-keyboard-response","24","347274","0.0-11.0-0.1","SS1619205050011","","","null","","","","","","<p><img src= images/blank.png width =""600"" height = ""600"" style=""position:fixed;top:50%; left:50%; transform: translate(-50%, -50%); border:5px solid black"">","","","","","","","",""
"","4624.710000003688","sequential-stimulus-presentation-old","25","352414","0.0-11.0-1.1","SS1619205050011","trial","","40","500","5124.710000003688","images/stimuli/spore_stims/complex_17_A_b.gif","images/stimuli/spore_stims/complex_11_A_a.gif","forced_long","","1","complex_dissimilar","images/stimuli/spore_stims/complex_17_A_b.gif","","","","",""
"","null","html-keyboard-response","26","353654","0.0-11.0-0.2","SS1619205050011","","","null","","","","","","<p><img src= images/blank.png width =""600"" height = ""600"" style=""position:fixed;top:50%; left:50%; transform: translate(-50%, -50%); border:5px solid black"">","","","","","","","",""
"","5199.070000031497","sequential-stimulus-presentation-old","27","359363","0.0-11.0-1.2","SS1619205050011","trial","","40","500","5699.070000031497","images/stimuli/spore_stims/complex_17_A_b.gif","images/stimuli/spore_stims/complex_11_A_a.gif","forced_long","","1","complex_dissimilar","images/stimuli/spore_stims/complex_11_A_a.gif","","","","",""
"","null","html-keyboard-response","28","360489","0.0-11.0-0.3","SS1619205050011","","","null","","","","","","<p><img src= images/blank.png width =""600"" height = ""600"" style=""position:fixed;top:50%; left:50%; transform: translate(-50%, -50%); border:5px solid black"">","","","","","","","",""
"","2660.3400000021793","sequential-stimulus-presentation-old","29","363676","0.0-11.0-1.3","SS1619205050011","trial","","40","500","3160.3400000021793","images/stimuli/spore_stims/complex_17_A_b.gif","images/stimuli/spore_stims/complex_11_A_a.gif","forced_long","","1","complex_dissimilar","images/stimuli/spore_stims/complex_17_A_b.gif","","","","",""
"","3600.330000044778","survey-multi-choice","30","367281","0.0-12.0","SS1619205050011","math_question","","","","","","","","","","","","{""Q0"":""7""}","[0]","7","",""
"","null","html-keyboard-response","31","368334","0.0-13.0-0.0","SS1619205050011","","","null","","","","","","<p><img src= images/blank.png width =""600"" height = ""600"" style=""position:fixed;top:50%; left:50%; transform: translate(-50%, -50%); border:5px solid black"">","","","","","","","",""
"","578.6499999812804","sequential-stimulus-presentation-old","32","378922","0.0-13.0-1.0","SS1619205050011","trial","","40","500","1078.6499999812804","images/stimuli/spore_stims/simple_14_A_a.gif","images/stimuli/spore_stims/simple_20_A_b.gif","forced_long","","2","simple_dissimilar","images/stimuli/spore_stims/simple_20_A_b.gif","","","","",""
"","null","html-keyboard-response","33","379984","0.0-13.0-0.1","SS1619205050011","","","null","","","","","","<p><img src= images/blank.png width =""600"" height = ""600"" style=""position:fixed;top:50%; left:50%; transform: translate(-50%, -50%); border:5px solid black"">","","","","","","","",""
"","5495.404999994207","sequential-stimulus-presentation-old","34","386000","0.0-13.0-1.1","SS1619205050011","trial","","40","500","5995.404999994207","images/stimuli/spore_stims/simple_14_A_a.gif","images/stimuli/spore_stims/simple_20_A_b.gif","forced_long","","2","simple_dissimilar","images/stimuli/spore_stims/simple_20_A_b.gif","","","","",""
"","null","html-keyboard-response","35","387217","0.0-13.0-0.2","SS1619205050011","","","null","","","","","","<p><img src= images/blank.png width =""600"" height = ""600"" style=""position:fixed;top:50%; left:50%; transform: translate(-50%, -50%); border:5px solid black"">","","","","","","","",""
"","3541.239999991376","sequential-stimulus-presentation-old","36","391276","0.0-13.0-1.2","SS1619205050011","trial","","40","500","4041.239999991376","images/stimuli/spore_stims/simple_14_A_a.gif","images/stimuli/spore_stims/simple_20_A_b.gif","forced_long","","2","simple_dissimilar","images/stimuli/spore_stims/simple_14_A_a.gif","","","","",""
"","null","html-keyboard-response","37","392582","0.0-13.0-0.3","SS1619205050011","","","null","","","","","","<p><img src= images/blank.png width =""600"" height = ""600"" style=""position:fixed;top:50%; left:50%; transform: translate(-50%, -50%); border:5px solid black"">","","","","","","","",""
"","3881.3500000396743","sequential-stimulus-presentation-old","38","396971","0.0-13.0-1.3","SS1619205050011","trial","","40","500","4381.350000039674","images/stimuli/spore_stims/simple_14_A_a.gif","images/stimuli/spore_stims/simple_20_A_b.gif","forced_long","","2","simple_dissimilar","images/stimuli/spore_stims/simple_20_A_b.gif","","","","",""
"","null","html-keyboard-response","39","398038","0.0-13.0-0.4","SS1619205050011","","","null","","","","","","<p><img src= images/blank.png width =""600"" height = ""600"" style=""position:fixed;top:50%; left:50%; transform: translate(-50%, -50%); border:5px solid black"">","","","","","","","",""
"","1986.2949999514967","sequential-stimulus-presentation-old","40","400536","0.0-13.0-1.4","SS1619205050011","trial","","40","500","2486.2949999514967","images/stimuli/spore_stims/simple_14_A_a.gif","images/stimuli/spore_stims/simple_20_A_b.gif","forced_long","","2","simple_dissimilar","images/stimuli/spore_stims/simple_20_A_b.gif","","","","",""
"","null","html-keyboard-response","41","401506","0.0-13.0-0.5","SS1619205050011","","","null","","","","","","<p><img src= images/blank.png width =""600"" height = ""600"" style=""position:fixed;top:50%; left:50%; transform: translate(-50%, -50%); border:5px solid black"">","","","","","","","",""
"","1803.5650000092573","sequential-stimulus-presentation-old","42","403819","0.0-13.0-1.5","SS1619205050011","trial","","40","500","2303.5650000092573","images/stimuli/spore_stims/simple_14_A_a.gif","images/stimuli/spore_stims/simple_20_A_b.gif","forced_long","","2","simple_dissimilar","images/stimuli/spore_stims/simple_14_A_a.gif","","","","",""
"","4749.53499995172","survey-multi-choice","43","408572","0.0-14.0","SS1619205050011","math_question","","","","","","","","","","","","{""Q0"":""7""}","[0]","7","",""
"","null","html-keyboard-response","44","409654","0.0-15.0-0.0","SS1619205050011","","","null","","","","","","<p><img src= images/blank.png width =""600"" height = ""600"" style=""position:fixed;top:50%; left:50%; transform: translate(-50%, -50%); border:5px solid black"">","","","","","","","",""
"","933.6650000186637","sequential-stimulus-presentation-old","45","420601","0.0-15.0-1.0","SS1619205050011","trial","","40","500","1433.6650000186637","images/stimuli/spore_stims/complex_15_A_a.gif","images/stimuli/spore_stims/complex_14_A_b.gif","forced_long","","3","complex_dissimilar","images/stimuli/spore_stims/complex_14_A_b.gif","","","","",""
"","null","html-keyboard-response","46","421573","0.0-15.0-0.1","SS1619205050011","","","null","","","","","","<p><img src= images/blank.png width =""600"" height = ""600"" style=""position:fixed;top:50%; left:50%; transform: translate(-50%, -50%); border:5px solid black"">","","","","","","","",""
"","3721.9800000311807","sequential-stimulus-presentation-old","47","425802","0.0-15.0-1.1","SS1619205050011","trial","","40","500","4221.980000031181","images/stimuli/spore_stims/complex_15_A_a.gif","images/stimuli/spore_stims/complex_14_A_b.gif","forced_long","","3","complex_dissimilar","images/stimuli/spore_stims/complex_14_A_b.gif","","","","",""
"","null","html-keyboard-response","48","426621","0.0-15.0-0.2","SS1619205050011","","","null","","","","","","<p><img src= images/blank.png width =""600"" height = ""600"" style=""position:fixed;top:50%; left:50%; transform: translate(-50%, -50%); border:5px solid black"">","","","","","","","",""
"","2961.1949999816716","sequential-stimulus-presentation-old","49","430095","0.0-15.0-1.2","SS1619205050011","trial","","40","500","3461.1949999816716","images/stimuli/spore_stims/complex_15_A_a.gif","images/stimuli/spore_stims/complex_14_A_b.gif","forced_long","","3","complex_dissimilar","images/stimuli/spore_stims/complex_15_A_a.gif","","","","",""
"","null","html-keyboard-response","50","431175","0.0-15.0-0.3","SS1619205050011","","","null","","","","","","<p><img src= images/blank.png width =""600"" height = ""600"" style=""position:fixed;top:50%; left:50%; transform: translate(-50%, -50%); border:5px solid black"">","","","","","","","",""
"","4681.639999966137","sequential-stimulus-presentation-old","51","436376","0.0-15.0-1.3","SS1619205050011","trial","","40","500","5181.639999966137","images/stimuli/spore_stims/complex_15_A_a.gif","images/stimuli/spore_stims/complex_14_A_b.gif","forced_long","","3","complex_dissimilar","images/stimuli/spore_stims/complex_14_A_b.gif","","","","",""
"","null","html-keyboard-response","52","437200","0.0-15.0-0.4","SS1619205050011","","","null","","","","","","<p><img src= images/blank.png width =""600"" height = ""600"" style=""position:fixed;top:50%; left:50%; transform: translate(-50%, -50%); border:5px solid black"">","","","","","","","",""
"","3227.5550000485964","sequential-stimulus-presentation-old","53","440937","0.0-15.0-1.4","SS1619205050011","trial","","40","500","3727.5550000485964","images/stimuli/spore_stims/complex_15_A_a.gif","images/stimuli/spore_stims/complex_14_A_b.gif","forced_long","","3","complex_dissimilar","images/stimuli/spore_stims/complex_14_A_b.gif","","","","",""
"","3838.8750000158325","survey-multi-choice","54","444780","0.0-16.0","SS1619205050011","math_question","","","","","","","","","","","","{""Q0"":""9""}","[0]","9","",""
"","null","html-keyboard-response","55","445839","0.0-17.0-0.0","SS1619205050011","","","null","","","","","","<p><img src= images/blank.png width =""600"" height = ""600"" style=""position:fixed;top:50%; left:50%; transform: translate(-50%, -50%); border:5px solid black"">","","","","","","","",""
"","1169.5249999756925","sequential-stimulus-presentation-old","56","447120","0.0-17.0-1.0","SS1619205050011","trial","","40","500","1669.5249999756925","images/stimuli/spore_stims/complex_10_A_b.gif","images/stimuli/spore_stims/complex_20_A_a.gif","forced_short","","4","complex_dissimilar","images/stimuli/spore_stims/complex_20_A_a.gif","","","","",""
"","null","html-keyboard-response","57","448135","0.0-17.0-0.1","SS1619205050011","","","null","","","","","","<p><img src= images/blank.png width =""600"" height = ""600"" style=""position:fixed;top:50%; left:50%; transform: translate(-50%, -50%); border:5px solid black"">","","","","","","","",""
"","3790.1899999706075","sequential-stimulus-presentation-old","58","452440","0.0-17.0-1.1","SS1619205050011","trial","","40","500","4290.1899999706075","images/stimuli/spore_stims/complex_10_A_b.gif","images/stimuli/spore_stims/complex_20_A_a.gif","forced_short","","4","complex_dissimilar","images/stimuli/spore_stims/complex_10_A_b.gif","","","","",""
"","null","html-keyboard-response","59","453560","0.0-17.0-0.2","SS1619205050011","","","null","","","","","","<p><img src= images/blank.png width =""600"" height = ""600"" style=""position:fixed;top:50%; left:50%; transform: translate(-50%, -50%); border:5px solid black"">","","","","","","","",""
"","2381.0349999694154","sequential-stimulus-presentation-old","60","456448","0.0-17.0-1.2","SS1619205050011","trial","","40","500","2881.0349999694154","images/stimuli/spore_stims/complex_10_A_b.gif","images/stimuli/spore_stims/complex_20_A_a.gif","forced_short","","4","complex_dissimilar","images/stimuli/spore_stims/complex_10_A_b.gif","","","","",""
"","null","html-keyboard-response","61","457627","0.0-17.0-0.3","SS1619205050011","","","null","","","","","","<p><img src= images/blank.png width =""600"" height = ""600"" style=""position:fixed;top:50%; left:50%; transform: translate(-50%, -50%); border:5px solid black"">","","","","","","","",""
"","2486.6449999972247","sequential-stimulus-presentation-old","62","460632","0.0-17.0-1.3","SS1619205050011","trial","","40","500","2986.6449999972247","images/stimuli/spore_stims/complex_10_A_b.gif","images/stimuli/spore_stims/complex_20_A_a.gif","forced_short","","4","complex_dissimilar","images/stimuli/spore_stims/complex_20_A_a.gif","","","","",""
"","null","html-keyboard-response","63","461558","0.0-17.0-0.4","SS1619205050011","","","null","","","","","","<p><img src= images/blank.png width =""600"" height = ""600"" style=""position:fixed;top:50%; left:50%; transform: translate(-50%, -50%); border:5px solid black"">","","","","","","","",""
"","2545.604999992065","sequential-stimulus-presentation-old","64","464610","0.0-17.0-1.4","SS1619205050011","trial","","40","500","3045.604999992065","images/stimuli/spore_stims/complex_10_A_b.gif","images/stimuli/spore_stims/complex_20_A_a.gif","forced_short","","4","complex_dissimilar","images/stimuli/spore_stims/complex_20_A_a.gif","","","","",""
"","3293.5600000200793","survey-multi-choice","65","467909","0.0-18.0","SS1619205050011","math_question","","","","","","","","","","","","{""Q0"":""4""}","[0]","4","",""
"","null","html-keyboard-response","66","469072","0.0-19.0-0.0","SS1619205050011","","","null","","","","","","<p><img src= images/blank.png width =""600"" height = ""600"" style=""position:fixed;top:50%; left:50%; transform: translate(-50%, -50%); border:5px solid black"">","","","","","","","",""
"","3454.3899999698624","sequential-stimulus-presentation-old","67","473035","0.0-19.0-1.0","SS1619205050011","trial","","40","500","3954.3899999698624","images/stimuli/spore_stims/simple_05_A_b.gif","images/stimuli/spore_stims/simple_13_A_a.gif","self_paced","","5","simple_dissimilar","images/stimuli/spore_stims/simple_13_A_a.gif","","","","",""
"","null","html-keyboard-response","68","474319","0.0-19.0-0.1","SS1619205050011","","","null","","","","","","<p><img src= images/blank.png width =""600"" height = ""600"" style=""position:fixed;top:50%; left:50%; transform: translate(-50%, -50%); border:5px solid black"">","","","","","","","",""
"","1103.6500000045635","sequential-stimulus-presentation-old","69","475934","0.0-19.0-1.1","SS1619205050011","trial","","40","500","1603.6500000045635","images/stimuli/spore_stims/simple_05_A_b.gif","images/stimuli/spore_stims/simple_13_A_a.gif","self_paced","","5","simple_dissimilar","images/stimuli/spore_stims/simple_13_A_a.gif","","","","",""
"","null","html-keyboard-response","70","477035","0.0-19.0-0.2","SS1619205050011","","","null","","","","","","<p><img src= images/blank.png width =""600"" height = ""600"" style=""position:fixed;top:50%; left:50%; transform: translate(-50%, -50%); border:5px solid black"">","","","","","","","",""
"","293.95999998087063","sequential-stimulus-presentation-old","71","477838","0.0-19.0-1.2","SS1619205050011","trial","","40","500","793.9599999808706","images/stimuli/spore_stims/simple_05_A_b.gif","images/stimuli/spore_stims/simple_13_A_a.gif","self_paced","","5","simple_dissimilar","images/stimuli/spore_stims/simple_13_A_a.gif","","","","",""
"","null","html-keyboard-response","72","478709","0.0-19.0-0.3","SS1619205050011","","","null","","","","","","<p><img src= images/blank.png width =""600"" height = ""600"" style=""position:fixed;top:50%; left:50%; transform: translate(-50%, -50%); border:5px solid black"">","","","","","","","",""
"","2769.5950000197627","sequential-stimulus-presentation-old","73","481985","0.0-19.0-1.3","SS1619205050011","trial","","40","500","3269.5950000197627","images/stimuli/spore_stims/simple_05_A_b.gif","images/stimuli/spore_stims/simple_13_A_a.gif","self_paced","","5","simple_dissimilar","images/stimuli/spore_stims/simple_13_A_a.gif","","","","",""
"","null","html-keyboard-response","74","483163","0.0-19.0-0.4","SS1619205050011","","","null","","","","","","<p><img src= images/blank.png width =""600"" height = ""600"" style=""position:fixed;top:50%; left:50%; transform: translate(-50%, -50%); border:5px solid black"">","","","","","","","",""
"","1743.86000004597","sequential-stimulus-presentation-old","75","485417","0.0-19.0-1.4","SS1619205050011","trial","","40","500","2243.86000004597","images/stimuli/spore_stims/simple_05_A_b.gif","images/stimuli/spore_stims/simple_13_A_a.gif","self_paced","","5","simple_dissimilar","images/stimuli/spore_stims/simple_13_A_a.gif","","","","",""
"","null","html-keyboard-response","76","486469","0.0-19.0-0.5","SS1619205050011","","","null","","","","","","<p><img src= images/blank.png width =""600"" height = ""600"" style=""position:fixed;top:50%; left:50%; transform: translate(-50%, -50%); border:5px solid black"">","","","","","","","",""
"","2780.6299999938346","sequential-stimulus-presentation-old","77","489760","0.0-19.0-1.5","SS1619205050011","trial","","40","500","3280.6299999938346","images/stimuli/spore_stims/simple_05_A_b.gif","images/stimuli/spore_stims/simple_13_A_a.gif","self_paced","","5","simple_dissimilar","images/stimuli/spore_stims/simple_13_A_a.gif","","","","",""
"","3698.79499997478","survey-multi-choice","78","493465","0.0-20.0","SS1619205050011","math_question","","","","","","","","","","","","{""Q0"":""16""}","[0]","16","",""
"","null","html-keyboard-response","79","494479","0.0-21.0-0.0","SS1619205050011","","","null","","","","","","<p><img src= images/blank.png width =""600"" height = ""600"" style=""position:fixed;top:50%; left:50%; transform: translate(-50%, -50%); border:5px solid black"">","","","","","","","",""
"","883.7199999834411","sequential-stimulus-presentation-old","80","495473","0.0-21.0-1.0","SS1619205050011","trial","","40","500","1383.719999983441","images/stimuli/spore_stims/simple_03_A_b.gif","images/stimuli/spore_stims/simple_20_A_a.gif","forced_short","","6","simple_dissimilar","images/stimuli/spore_stims/simple_20_A_a.gif","","","","",""
"","null","html-keyboard-response","81","496704","0.0-21.0-0.1","SS1619205050011","","","null","","","","","","<p><img src= images/blank.png width =""600"" height = ""600"" style=""position:fixed;top:50%; left:50%; transform: translate(-50%, -50%); border:5px solid black"">","","","","","","","",""
"","2686.0950000118464","sequential-stimulus-presentation-old","82","499897","0.0-21.0-1.1","SS1619205050011","trial","","40","500","3186.0950000118464","images/stimuli/spore_stims/simple_03_A_b.gif","images/stimuli/spore_stims/simple_20_A_a.gif","forced_short","","6","simple_dissimilar","images/stimuli/spore_stims/simple_20_A_a.gif","","","","",""
"","null","html-keyboard-response","83","500793","0.0-21.0-0.2","SS1619205050011","","","null","","","","","","<p><img src= images/blank.png width =""600"" height = ""600"" style=""position:fixed;top:50%; left:50%; transform: translate(-50%, -50%); border:5px solid black"">","","","","","","","",""
"","3756.8800000008196","sequential-stimulus-presentation-old","84","505063","0.0-21.0-1.2","SS1619205050011","trial","","40","500","4256.88000000082","images/stimuli/spore_stims/simple_03_A_b.gif","images/stimuli/spore_stims/simple_20_A_a.gif","forced_short","","6","simple_dissimilar","images/stimuli/spore_stims/simple_03_A_b.gif","","","","",""
"","null","html-keyboard-response","85","506024","0.0-21.0-0.3","SS1619205050011","","","null","","","","","","<p><img src= images/blank.png width =""600"" height = ""600"" style=""position:fixed;top:50%; left:50%; transform: translate(-50%, -50%); border:5px solid black"">","","","","","","","",""
"","1324.6499999659136","sequential-stimulus-presentation-old","86","507860","0.0-21.0-1.3","SS1619205050011","trial","","40","500","1824.6499999659136","images/stimuli/spore_stims/simple_03_A_b.gif","images/stimuli/spore_stims/simple_20_A_a.gif","forced_short","","6","simple_dissimilar","images/stimuli/spore_stims/simple_20_A_a.gif","","","","",""
"","3519.6049999794923","survey-multi-choice","87","511385","0.0-22.0","SS1619205050011","math_question","","","","","","","","","","","","{""Q0"":""10""}","[0]","10","",""
"","null","html-keyboard-response","88","512648","0.0-23.0-0.0","SS1619205050011","","","null","","","","","","<p><img src= images/blank.png width =""600"" height = ""600"" style=""position:fixed;top:50%; left:50%; transform: translate(-50%, -50%); border:5px solid black"">","","","","","","","",""
"","899.5250000152737","sequential-stimulus-presentation-old","89","523557","0.0-23.0-1.0","SS1619205050011","trial","","40","500","1399.5250000152737","images/stimuli/spore_stims/simple_14_A_b.gif","images/stimuli/spore_stims/simple_05_A_a.gif","forced_long","","7","simple_dissimilar","images/stimuli/spore_stims/simple_05_A_a.gif","","","","",""
"","null","html-keyboard-response","90","524769","0.0-23.0-0.1","SS1619205050011","","","null","","","","","","<p><img src= images/blank.png width =""600"" height = ""600"" style=""position:fixed;top:50%; left:50%; transform: translate(-50%, -50%); border:5px solid black"">","","","","","","","",""
"","3029.645000002347","sequential-stimulus-presentation-old","91","528315","0.0-23.0-1.1","SS1619205050011","trial","","40","500","3529.645000002347","images/stimuli/spore_stims/simple_14_A_b.gif","images/stimuli/spore_stims/simple_05_A_a.gif","forced_long","","7","simple_dissimilar","images/stimuli/spore_stims/simple_05_A_a.gif","","","","",""
"","null","html-keyboard-response","92","529168","0.0-23.0-0.2","SS1619205050011","","","null","","","","","","<p><img src= images/blank.png width =""600"" height = ""600"" style=""position:fixed;top:50%; left:50%; transform: translate(-50%, -50%); border:5px solid black"">","","","","","","","",""
"","2425.7800000486895","sequential-stimulus-presentation-old","93","532100","0.0-23.0-1.2","SS1619205050011","trial","","40","500","2925.7800000486895","images/stimuli/spore_stims/simple_14_A_b.gif","images/stimuli/spore_stims/simple_05_A_a.gif","forced_long","","7","simple_dissimilar","images/stimuli/spore_stims/simple_05_A_a.gif","","","","",""
"","null","html-keyboard-response","94","533201","0.0-23.0-0.3","SS1619205050011","","","null","","","","","","<p><img src= images/blank.png width =""600"" height = ""600"" style=""position:fixed;top:50%; left:50%; transform: translate(-50%, -50%); border:5px solid black"">","","","","","","","",""
"","2864.820000017062","sequential-stimulus-presentation-old","95","536574","0.0-23.0-1.3","SS1619205050011","trial","","40","500","3364.820000017062","images/stimuli/spore_stims/simple_14_A_b.gif","images/stimuli/spore_stims/simple_05_A_a.gif","forced_long","","7","simple_dissimilar","images/stimuli/spore_stims/simple_14_A_b.gif","","","","",""
"","null","html-keyboard-response","96","537735","0.0-23.0-0.4","SS1619205050011","","","null","","","","","","<p><img src= images/blank.png width =""600"" height = ""600"" style=""position:fixed;top:50%; left:50%; transform: translate(-50%, -50%); border:5px solid black"">","","","","","","","",""
"","912.6950000063516","sequential-stimulus-presentation-old","97","539161","0.0-23.0-1.4","SS1619205050011","trial","","40","500","1412.6950000063516","images/stimuli/spore_stims/simple_14_A_b.gif","images/stimuli/spore_stims/simple_05_A_a.gif","forced_long","","7","simple_dissimilar","images/stimuli/spore_stims/simple_05_A_a.gif","","","","",""
"","null","html-keyboard-response","98","540470","0.0-23.0-0.5","SS1619205050011","","","null","","","","","","<p><img src= images/blank.png width =""600"" height = ""600"" style=""position:fixed;top:50%; left:50%; transform: translate(-50%, -50%); border:5px solid black"">","","","","","","","",""
"","2516.554999980144","sequential-stimulus-presentation-old","99","543498","0.0-23.0-1.5","SS1619205050011","trial","","40","500","3016.554999980144","images/stimuli/spore_stims/simple_14_A_b.gif","images/stimuli/spore_stims/simple_05_A_a.gif","forced_long","","7","simple_dissimilar","images/stimuli/spore_stims/simple_05_A_a.gif","","","","",""
"","3265.3799999970943","survey-multi-choice","100","546769","0.0-24.0","SS1619205050011","math_question","","","","","","","","","","","","{""Q0"":""12""}","[0]","12","",""
"","null","html-keyboard-response","101","547872","0.0-25.0-0.0","SS1619205050011","","","null","","","","","","<p><img src= images/blank.png width =""600"" height = ""600"" style=""position:fixed;top:50%; left:50%; transform: translate(-50%, -50%); border:5px solid black"">","","","","","","","",""
"","833.3249999559484","sequential-stimulus-presentation-old","102","548815","0.0-25.0-1.0","SS1619205050011","trial","","40","500","1333.3249999559484","images/stimuli/spore_stims/complex_07_A_b.gif","images/stimuli/spore_stims/complex_01_A_a.gif","forced_short","","8","complex_dissimilar","images/stimuli/spore_stims/complex_01_A_a.gif","","","","",""
"","null","html-keyboard-response","103","549666","0.0-25.0-0.1","SS1619205050011","","","null","","","","","","<p><img src= images/blank.png width =""600"" height = ""600"" style=""position:fixed;top:50%; left:50%; transform: translate(-50%, -50%); border:5px solid black"">","","","","","","","",""
"","5013.5799999698065","sequential-stimulus-presentation-old","104","555189","0.0-25.0-1.1","SS1619205050011","trial","","40","500","5513.5799999698065","images/stimuli/spore_stims/complex_07_A_b.gif","images/stimuli/spore_stims/complex_01_A_a.gif","forced_short","","8","complex_dissimilar","images/stimuli/spore_stims/complex_01_A_a.gif","","","","",""
"","null","html-keyboard-response","105","556254","0.0-25.0-0.2","SS1619205050011","","","null","","","","","","<p><img src= images/blank.png width =""600"" height = ""600"" style=""position:fixed;top:50%; left:50%; transform: translate(-50%, -50%); border:5px solid black"">","","","","","","","",""
"","2440.1200000429526","sequential-stimulus-presentation-old","106","559209","0.0-25.0-1.2","SS1619205050011","trial","","40","500","2940.1200000429526","images/stimuli/spore_stims/complex_07_A_b.gif","images/stimuli/spore_stims/complex_01_A_a.gif","forced_short","","8","complex_dissimilar","images/stimuli/spore_stims/complex_01_A_a.gif","","","","",""
"","null","html-keyboard-response","107","560262","0.0-25.0-0.3","SS1619205050011","","","null","","","","","","<p><img src= images/blank.png width =""600"" height = ""600"" style=""position:fixed;top:50%; left:50%; transform: translate(-50%, -50%); border:5px solid black"">","","","","","","","",""
"","4299.829999974463","sequential-stimulus-presentation-old","108","565069","0.0-25.0-1.3","SS1619205050011","trial","","40","500","4799.829999974463","images/stimuli/spore_stims/complex_07_A_b.gif","images/stimuli/spore_stims/complex_01_A_a.gif","forced_short","","8","complex_dissimilar","images/stimuli/spore_stims/complex_01_A_a.gif","","","","",""
"","null","html-keyboard-response","109","565967","0.0-25.0-0.4","SS1619205050011","","","null","","","","","","<p><img src= images/blank.png width =""600"" height = ""600"" style=""position:fixed;top:50%; left:50%; transform: translate(-50%, -50%); border:5px solid black"">","","","","","","","",""
"","1831.5399999846704","sequential-stimulus-presentation-old","110","568320","0.0-25.0-1.4","SS1619205050011","trial","","40","500","2331.5399999846704","images/stimuli/spore_stims/complex_07_A_b.gif","images/stimuli/spore_stims/complex_01_A_a.gif","forced_short","","8","complex_dissimilar","images/stimuli/spore_stims/complex_01_A_a.gif","","","","",""
"","3494.66999998549","survey-multi-choice","111","571821","0.0-26.0","SS1619205050011","math_question","","","","","","","","","","","","{""Q0"":""13""}","[0]","13","",""
"","null","html-keyboard-response","112","573013","0.0-27.0-0.0","SS1619205050011","","","null","","","","","","<p><img src= images/blank.png width =""600"" height = ""600"" style=""position:fixed;top:50%; left:50%; transform: translate(-50%, -50%); border:5px solid black"">","","","","","","","",""
"","729.7149999649264","sequential-stimulus-presentation-old","113","573857","0.0-27.0-1.0","SS1619205050011","trial","","40","500","1229.7149999649264","images/stimuli/spore_stims/simple_17_A_b.gif","images/stimuli/spore_stims/simple_18_A_a.gif","forced_short","","9","simple_dissimilar","images/stimuli/spore_stims/simple_18_A_a.gif","","","","",""
"","null","html-keyboard-response","114","575130","0.0-27.0-0.1","SS1619205050011","","","null","","","","","","<p><img src= images/blank.png width =""600"" height = ""600"" style=""position:fixed;top:50%; left:50%; transform: translate(-50%, -50%); border:5px solid black"">","","","","","","","",""
"","3794.285000010859","sequential-stimulus-presentation-old","115","579438","0.0-27.0-1.1","SS1619205050011","trial","","40","500","4294.285000010859","images/stimuli/spore_stims/simple_17_A_b.gif","images/stimuli/spore_stims/simple_18_A_a.gif","forced_short","","9","simple_dissimilar","images/stimuli/spore_stims/simple_18_A_a.gif","","","","",""
"","null","html-keyboard-response","116","580469","0.0-27.0-0.2","SS1619205050011","","","null","","","","","","<p><img src= images/blank.png width =""600"" height = ""600"" style=""position:fixed;top:50%; left:50%; transform: translate(-50%, -50%); border:5px solid black"">","","","","","","","",""
"","3113.435000006575","sequential-stimulus-presentation-old","117","584099","0.0-27.0-1.2","SS1619205050011","trial","","40","500","3613.435000006575","images/stimuli/spore_stims/simple_17_A_b.gif","images/stimuli/spore_stims/simple_18_A_a.gif","forced_short","","9","simple_dissimilar","images/stimuli/spore_stims/simple_18_A_a.gif","","","","",""
"","null","html-keyboard-response","118","585344","0.0-27.0-0.3","SS1619205050011","","","null","","","","","","<p><img src= images/blank.png width =""600"" height = ""600"" style=""position:fixed;top:50%; left:50%; transform: translate(-50%, -50%); border:5px solid black"">","","","","","","","",""
"","4321.755000040866","sequential-stimulus-presentation-old","119","590180","0.0-27.0-1.3","SS1619205050011","trial","","40","500","4821.755000040866","images/stimuli/spore_stims/simple_17_A_b.gif","images/stimuli/spore_stims/simple_18_A_a.gif","forced_short","","9","simple_dissimilar","images/stimuli/spore_stims/simple_17_A_b.gif","","","","",""
"","null","html-keyboard-response","120","591312","0.0-27.0-0.4","SS1619205050011","","","null","","","","","","<p><img src= images/blank.png width =""600"" height = ""600"" style=""position:fixed;top:50%; left:50%; transform: translate(-50%, -50%); border:5px solid black"">","","","","","","","",""
"","1606.5550000057556","sequential-stimulus-presentation-old","121","593431","0.0-27.0-1.4","SS1619205050011","trial","","40","500","2106.5550000057556","images/stimuli/spore_stims/simple_17_A_b.gif","images/stimuli/spore_stims/simple_18_A_a.gif","forced_short","","9","simple_dissimilar","images/stimuli/spore_stims/simple_18_A_a.gif","","","","",""
"","null","html-keyboard-response","122","594567","0.0-27.0-0.5","SS1619205050011","","","null","","","","","","<p><img src= images/blank.png width =""600"" height = ""600"" style=""position:fixed;top:50%; left:50%; transform: translate(-50%, -50%); border:5px solid black"">","","","","","","","",""
"","1995.4900000011548","sequential-stimulus-presentation-old","123","597076","0.0-27.0-1.5","SS1619205050011","trial","","40","500","2495.490000001155","images/stimuli/spore_stims/simple_17_A_b.gif","images/stimuli/spore_stims/simple_18_A_a.gif","forced_short","","9","simple_dissimilar","images/stimuli/spore_stims/simple_18_A_a.gif","","","","",""
"","3874.485000036657","survey-multi-choice","124","600956","0.0-28.0","SS1619205050011","math_question","","","","","","","","","","","","{""Q0"":""15""}","[0]","15","",""
"","null","html-keyboard-response","125","602102","0.0-29.0-0.0","SS1619205050011","","","null","","","","","","<p><img src= images/blank.png width =""600"" height = ""600"" style=""position:fixed;top:50%; left:50%; transform: translate(-50%, -50%); border:5px solid black"">","","","","","","","",""
"","5847.08999999566","sequential-stimulus-presentation-old","126","608461","0.0-29.0-1.0","SS1619205050011","trial","","40","500","6347.08999999566","images/stimuli/spore_stims/simple_16_A_a.gif","images/stimuli/spore_stims/simple_12_A_b.gif","self_paced","","10","simple_dissimilar","images/stimuli/spore_stims/simple_12_A_b.gif","","","","",""
"","null","html-keyboard-response","127","609567","0.0-29.0-0.1","SS1619205050011","","","null","","","","","","<p><img src= images/blank.png width =""600"" height = ""600"" style=""position:fixed;top:50%; left:50%; transform: translate(-50%, -50%); border:5px solid black"">","","","","","","","",""
"","3162.2150000184774","sequential-stimulus-presentation-old","128","613244","0.0-29.0-1.1","SS1619205050011","trial","","40","500","3662.2150000184774","images/stimuli/spore_stims/simple_16_A_a.gif","images/stimuli/spore_stims/simple_12_A_b.gif","self_paced","","10","simple_dissimilar","images/stimuli/spore_stims/simple_12_A_b.gif","","","","",""
"","null","html-keyboard-response","129","614244","0.0-29.0-0.2","SS1619205050011","","","null","","","","","","<p><img src= images/blank.png width =""600"" height = ""600"" style=""position:fixed;top:50%; left:50%; transform: translate(-50%, -50%); border:5px solid black"">","","","","","","","",""
"","939.0849999617785","sequential-stimulus-presentation-old","130","615694","0.0-29.0-1.2","SS1619205050011","trial","","40","500","1439.0849999617785","images/stimuli/spore_stims/simple_16_A_a.gif","images/stimuli/spore_stims/simple_12_A_b.gif","self_paced","","10","simple_dissimilar","images/stimuli/spore_stims/simple_12_A_b.gif","","","","",""
"","null","html-keyboard-response","131","616904","0.0-29.0-0.3","SS1619205050011","","","null","","","","","","<p><img src= images/blank.png width =""600"" height = ""600"" style=""position:fixed;top:50%; left:50%; transform: translate(-50%, -50%); border:5px solid black"">","","","","","","","",""
"","1219.6800000383519","sequential-stimulus-presentation-old","132","618633","0.0-29.0-1.3","SS1619205050011","trial","","40","500","1719.6800000383519","images/stimuli/spore_stims/simple_16_A_a.gif","images/stimuli/spore_stims/simple_12_A_b.gif","self_paced","","10","simple_dissimilar","images/stimuli/spore_stims/simple_12_A_b.gif","","","","",""
"","null","html-keyboard-response","133","619527","0.0-29.0-0.4","SS1619205050011","","","null","","","","","","<p><img src= images/blank.png width =""600"" height = ""600"" style=""position:fixed;top:50%; left:50%; transform: translate(-50%, -50%); border:5px solid black"">","","","","","","","",""
"","3663.890000025276","sequential-stimulus-presentation-old","134","623713","0.0-29.0-1.4","SS1619205050011","trial","","40","500","4163.890000025276","images/stimuli/spore_stims/simple_16_A_a.gif","images/stimuli/spore_stims/simple_12_A_b.gif","self_paced","","10","simple_dissimilar","images/stimuli/spore_stims/simple_16_A_a.gif","","","","",""
"","3041.6150000528432","survey-multi-choice","135","626761","0.0-30.0","SS1619205050011","math_question","","","","","","","","","","","","{""Q0"":""9""}","[0]","9","",""
"","null","html-keyboard-response","136","627809","0.0-31.0-0.0","SS1619205050011","","","null","","","","","","<p><img src= images/blank.png width =""600"" height = ""600"" style=""position:fixed;top:50%; left:50%; transform: translate(-50%, -50%); border:5px solid black"">","","","","","","","",""
"","12539.690000005066","sequential-stimulus-presentation-old","137","640859","0.0-31.0-1.0","SS1619205050011","trial","","40","500","13039.690000005066","images/stimuli/spore_stims/complex_01_A_b.gif","images/stimuli/spore_stims/complex_07_A_a.gif","self_paced","","11","complex_dissimilar","images/stimuli/spore_stims/complex_07_A_a.gif","","","","",""
"","null","html-keyboard-response","138","641791","0.0-31.0-0.1","SS1619205050011","","","null","","","","","","<p><img src= images/blank.png width =""600"" height = ""600"" style=""position:fixed;top:50%; left:50%; transform: translate(-50%, -50%); border:5px solid black"">","","","","","","","",""
"","3469.630000006873","sequential-stimulus-presentation-old","139","645769","0.0-31.0-1.1","SS1619205050011","trial","","40","500","3969.630000006873","images/stimuli/spore_stims/complex_01_A_b.gif","images/stimuli/spore_stims/complex_07_A_a.gif","self_paced","","11","complex_dissimilar","images/stimuli/spore_stims/complex_07_A_a.gif","","","","",""
"","null","html-keyboard-response","140","646868","0.0-31.0-0.2","SS1619205050011","","","null","","","","","","<p><img src= images/blank.png width =""600"" height = ""600"" style=""position:fixed;top:50%; left:50%; transform: translate(-50%, -50%); border:5px solid black"">","","","","","","","",""
"","3971.5500000165775","sequential-stimulus-presentation-old","141","651356","0.0-31.0-1.2","SS1619205050011","trial","","40","500","4471.5500000165775","images/stimuli/spore_stims/complex_01_A_b.gif","images/stimuli/spore_stims/complex_07_A_a.gif","self_paced","","11","complex_dissimilar","images/stimuli/spore_stims/complex_07_A_a.gif","","","","",""
"","null","html-keyboard-response","142","652371","0.0-31.0-0.3","SS1619205050011","","","null","","","","","","<p><img src= images/blank.png width =""600"" height = ""600"" style=""position:fixed;top:50%; left:50%; transform: translate(-50%, -50%); border:5px solid black"">","","","","","","","",""
"","2974.6850000228733","sequential-stimulus-presentation-old","143","655864","0.0-31.0-1.3","SS1619205050011","trial","","40","500","3474.6850000228733","images/stimuli/spore_stims/complex_01_A_b.gif","images/stimuli/spore_stims/complex_07_A_a.gif","self_paced","","11","complex_dissimilar","images/stimuli/spore_stims/complex_07_A_a.gif","","","","",""
"","null","html-keyboard-response","144","656720","0.0-31.0-0.4","SS1619205050011","","","null","","","","","","<p><img src= images/blank.png width =""600"" height = ""600"" style=""position:fixed;top:50%; left:50%; transform: translate(-50%, -50%); border:5px solid black"">","","","","","","","",""
"","1788.410000037402","sequential-stimulus-presentation-old","145","659027","0.0-31.0-1.4","SS1619205050011","trial","","40","500","2288.410000037402","images/stimuli/spore_stims/complex_01_A_b.gif","images/stimuli/spore_stims/complex_07_A_a.gif","self_paced","","11","complex_dissimilar","images/stimuli/spore_stims/complex_07_A_a.gif","","","","",""
"[{""page_index"":0,""viewing_time"":6134.599999990314}]","6134.915000002366","instructions","146","665169","0.0-32.0","SS1619205050011","instructions","","","","","","","","","","","","","","","",""
"","10933.880000025965","survey-likert","147","676109","0.0-33.0","SS1619205050011","similarity_question","","","","","","","","","","","","{""Q0"":2}","[0]","","images/stimuli/spore_stims/complex_15_A_a.gif","images/stimuli/spore_stims/complex_14_A_b.gif"
"","3168.4150000219233","survey-likert","148","679288","0.0-34.0","SS1619205050011","similarity_question","","","","","","","","","","","","{""Q0"":4}","[0]","","images/stimuli/spore_stims/simple_14_A_b.gif","images/stimuli/spore_stims/simple_05_A_a.gif"
"","3657.3199999984354","survey-likert","149","682956","0.0-35.0","SS1619205050011","similarity_question","","","","","","","","","","","","{""Q0"":5}","[0]","","images/stimuli/spore_stims/simple_16_A_a.gif","images/stimuli/spore_stims/simple_12_A_b.gif"
"","5735.3649999713525","survey-likert","150","688701","0.0-36.0","SS1619205050011","similarity_question","","","","","","","","","","","","{""Q0"":3}","[0]","","images/stimuli/spore_stims/complex_01_A_a.gif","images/stimuli/spore_stims/complex_07_A_b.gif"
"","2985.114999988582","survey-likert","151","691697","0.0-37.0","SS1619205050011","similarity_question","","","","","","","","","","","","{""Q0"":5}","[0]","","images/stimuli/spore_stims/simple_18_A_a.gif","images/stimuli/spore_stims/simple_17_A_b.gif"
"","3328.559999994468","survey-likert","152","695036","0.0-38.0","SS1619205050011","similarity_question","","","","","","","","","","","","{""Q0"":5}","[0]","","images/stimuli/spore_stims/simple_14_A_a.gif","images/stimuli/spore_stims/simple_20_A_b.gif"
"","5926.649999979418","survey-likert","153","700972","0.0-39.0","SS1619205050011","similarity_question","","","","","","","","","","","","{""Q0"":4}","[0]","","images/stimuli/spore_stims/complex_20_A_a.gif","images/stimuli/spore_stims/complex_10_A_b.gif"
"","7081.7600000300445","survey-likert","154","708065","0.0-40.0","SS1619205050011","similarity_question","","","","","","","","","","","","{""Q0"":6}","[0]","","images/stimuli/spore_stims/simple_03_A_b.gif","images/stimuli/spore_stims/simple_20_A_a.gif"
"","4321.215000003576","survey-likert","155","712397","0.0-41.0","SS1619205050011","similarity_question","","","","","","","","","","","","{""Q0"":5}","[0]","","images/stimuli/spore_stims/simple_05_A_b.gif","images/stimuli/spore_stims/simple_13_A_a.gif"
"","4613.305000006221","survey-likert","156","717020","0.0-42.0","SS1619205050011","similarity_question","","","","","","","","","","","","{""Q0"":4}","[0]","","images/stimuli/spore_stims/complex_17_A_b.gif","images/stimuli/spore_stims/complex_11_A_a.gif"
"","7337.59499998996","survey-likert","157","724368","0.0-43.0","SS1619205050011","similarity_question","","","","","","","","","","","","{""Q0"":2}","[0]","","images/stimuli/spore_stims/complex_07_A_a.gif","images/stimuli/spore_stims/complex_01_A_b.gif"
"","5261.0550000099465","survey-likert","158","729640","0.0-44.0","SS1619205050011","similarity_question","","","","","","","","","","","","{""Q0"":1}","[0]","","images/stimuli/spore_stims/complex_03_A_a.gif","images/stimuli/spore_stims/complex_19_A_b.gif"
"[{""page_index"":0,""viewing_time"":4969.354999950156}]","4969.679999980144","instructions","159","734620","0.0-45.0","SS1619205050011","instructions","","","","","","","","","","","","","","","",""
"","5003.665000025649","survey-likert","160","739629","0.0-46.0","SS1619205050011","","","","","","","","","images/stimuli/spore_stims/complex_01_A_b.gif","","","","{""Q0"":4}","[0]","","",""
"","3161.6049999720417","survey-likert","161","742801","0.0-47.0","SS1619205050011","","","","","","","","","images/stimuli/spore_stims/simple_17_A_b.gif","","","","{""Q0"":1}","[0]","","",""
"","4916.695000021718","survey-likert","162","747728","0.0-48.0","SS1619205050011","","","","","","","","","images/stimuli/spore_stims/complex_01_A_a.gif","","","","{""Q0"":5}","[0]","","",""
"","2745.200000004843","survey-likert","163","750484","0.0-49.0","SS1619205050011","","","","","","","","","images/stimuli/spore_stims/complex_03_A_a.gif","","","","{""Q0"":4}","[0]","","",""
"","3393.610000028275","survey-likert","164","753888","0.0-50.0","SS1619205050011","","","","","","","","","images/stimuli/spore_stims/complex_20_A_a.gif","","","","{""Q0"":5}","[0]","","",""
"","4025.454999995418","survey-likert","165","757924","0.0-51.0","SS1619205050011","","","","","","","","","images/stimuli/spore_stims/simple_13_A_a.gif","","","","{""Q0"":0}","[0]","","",""
"","5801.435000030324","survey-likert","166","763736","0.0-52.0","SS1619205050011","","","","","","","","","images/stimuli/spore_stims/complex_14_A_b.gif","","","","{""Q0"":6}","[0]","","",""
"","2761.4399999729358","survey-likert","167","766509","0.0-53.0","SS1619205050011","","","","","","","","","images/stimuli/spore_stims/simple_12_A_b.gif","","","","{""Q0"":1}","[0]","","",""
"","2444.870000006631","survey-likert","168","768964","0.0-54.0","SS1619205050011","","","","","","","","","images/stimuli/spore_stims/simple_03_A_b.gif","","","","{""Q0"":1}","[0]","","",""
"","3286.0700000310317","survey-likert","169","772260","0.0-55.0","SS1619205050011","","","","","","","","","images/stimuli/spore_stims/complex_17_A_b.gif","","","","{""Q0"":5}","[0]","","",""
"","2841.5700000477955","survey-likert","170","775112","0.0-56.0","SS1619205050011","","","","","","","","","images/stimuli/spore_stims/simple_05_A_a.gif","","","","{""Q0"":0}","[0]","","",""
"","4841.804999974556","survey-likert","171","779964","0.0-57.0","SS1619205050011","","","","","","","","","images/stimuli/spore_stims/simple_14_A_a.gif","","","","{""Q0"":2}","[0]","","",""
"[{""page_index"":0,""viewing_time"":2952.579999982845}]","2952.884999976959","instructions","172","782928","0.0-58.0","SS1619205050011","instructions","","","","","","","","","","","","","","","",""
"","2968.9950000029057","demog-age","173","785905","0.0-59.0","SS1619205050011","","","","","","","","","","","","","{""age"":""25""}","","","",""
"","5231.40000004787","demog-ethnic-US","174","791145","0.0-60.0","SS1619205050011","","","","","","","","","","","","","{""ethnicity"":[""White""]}","[0]","","",""
"","11060.980000009295","demog-gender-and-education","175","802217","0.0-61.0","SS1619205050011","","","","","","","","","","","","","{""gender"":""Female"",""education"":""Bachelor's Degree""}","[0,1]","","",""
"","13242.904999991879","survey-text","176","815472","0.0-62.0","SS1619205050011","feedback","","","","","","","","","","","","{""Q0"":""No, everything ran smoothly""}","","","",""
"[{""page_index"":0,""viewing_time"":2193.955000024289}]","2194.240000040736","instructions","177","817672","0.0-63.0","SS1619205050011","instructions","","","","","","","","","","","","","","","",""
