"view_history","rt","trial_type","trial_index","time_elapsed","internal_node_id","subject","stimulus_type","trial_stimulus","key_press","minimum_viewing_duration","trial_looking_time","block_deviant","block_background","exposure_type","stimulus","block_number","block_type","stimulus_displayed","responses","question_order","math_correct_answer","stimulus_left","stimulus_right"
"[{""page_index"":0,""viewing_time"":64481.8250000244}]","64482.64000000199","instructions","0","64483","0.0-0.0","SS1619204697535","","","","","","","","","","","","","","","","",""
"[{""page_index"":0,""viewing_time"":22592.439999978524},{""page_index"":1,""viewing_time"":11036.224999988917}]","33628.85500001721","instructions","1","100114","0.0-1.0","SS1619204697535","instructions","","","","","","","","","","","","","","","",""
"","16627.554999955464","sequential-stimulus-presentation-old","2","117244","0.0-2.0","SS1619204697535","","","40","500","17127.554999955464","null","null","self_paced","","","","","","","","",""
"","11726.885000010952","sequential-stimulus-presentation-old","3","129473","0.0-3.0","SS1619204697535","","","40","500","12226.885000010952","null","null","self_paced","","","","","","","","",""
"[{""page_index"":0,""viewing_time"":17177.670000004582}]","17177.87000001408","instructions","4","146652","0.0-4.0","SS1619204697535","instructions","","","","","","","","","","","","","","","",""
"","780.0149999675341","sequential-stimulus-presentation-old","5","157434","0.0-5.0","SS1619204697535","","","40","500","1280.014999967534","null","null","forced_long","","","","","","","","",""
"","3940.0799999712035","sequential-stimulus-presentation-old","6","161478","0.0-6.0","SS1619204697535","","","40","500","4440.0799999712035","null","null","forced_long","","","","","","","","",""
"[{""page_index"":0,""viewing_time"":6048.759999976028}]","6049.0049999789335","instructions","7","167528","0.0-7.0","SS1619204697535","instructions","","","","","","","","","","","","","","","",""
"[{""page_index"":0,""viewing_time"":12222.61499997694},{""page_index"":1,""viewing_time"":29529.59499997087},{""page_index"":2,""viewing_time"":8909.03000003891},{""page_index"":3,""viewing_time"":1550.9449999663047},{""page_index"":4,""viewing_time"":1752.9950000462122}]","53965.3699999908","instructions","8","221494","0.0-8.0","SS1619204697535","instructions","","","","","","","","","","","","","","","",""
"","null","html-keyboard-response","9","222654","0.0-9.0-0.0","SS1619204697535","","","null","","","","","","<p><img src= images/blank.png width =""600"" height = ""600"" style=""position:fixed;top:50%; left:50%; transform: translate(-50%, -50%); border:5px solid black"">","","","","","","","",""
"","38974.43999996176","sequential-stimulus-presentation-old","10","262133","0.0-9.0-1.0","SS1619204697535","trial","","40","500","39474.43999996176","images/stimuli/spore_stims/complex_16_A_b.gif","images/stimuli/spore_stims/complex_09_A_a.gif","self_paced","","0","complex_dissimilar","images/stimuli/spore_stims/complex_09_A_a.gif","","","","",""
"","null","html-keyboard-response","11","263228","0.0-9.0-0.1","SS1619204697535","","","null","","","","","","<p><img src= images/blank.png width =""600"" height = ""600"" style=""position:fixed;top:50%; left:50%; transform: translate(-50%, -50%); border:5px solid black"">","","","","","","","",""
"","24049.34999998659","sequential-stimulus-presentation-old","12","287781","0.0-9.0-1.1","SS1619204697535","trial","","40","500","24549.34999998659","images/stimuli/spore_stims/complex_16_A_b.gif","images/stimuli/spore_stims/complex_09_A_a.gif","self_paced","","0","complex_dissimilar","images/stimuli/spore_stims/complex_09_A_a.gif","","","","",""
"","null","html-keyboard-response","13","288962","0.0-9.0-0.2","SS1619204697535","","","null","","","","","","<p><img src= images/blank.png width =""600"" height = ""600"" style=""position:fixed;top:50%; left:50%; transform: translate(-50%, -50%); border:5px solid black"">","","","","","","","",""
"","40259.39500000095","sequential-stimulus-presentation-old","14","329724","0.0-9.0-1.2","SS1619204697535","trial","","40","500","40759.39500000095","images/stimuli/spore_stims/complex_16_A_b.gif","images/stimuli/spore_stims/complex_09_A_a.gif","self_paced","","0","complex_dissimilar","images/stimuli/spore_stims/complex_09_A_a.gif","","","","",""
"","null","html-keyboard-response","15","330806","0.0-9.0-0.3","SS1619204697535","","","null","","","","","","<p><img src= images/blank.png width =""600"" height = ""600"" style=""position:fixed;top:50%; left:50%; transform: translate(-50%, -50%); border:5px solid black"">","","","","","","","",""
"","36044.57500000717","sequential-stimulus-presentation-old","16","367353","0.0-9.0-1.3","SS1619204697535","trial","","40","500","36544.57500000717","images/stimuli/spore_stims/complex_16_A_b.gif","images/stimuli/spore_stims/complex_09_A_a.gif","self_paced","","0","complex_dissimilar","images/stimuli/spore_stims/complex_16_A_b.gif","","","","",""
"","null","html-keyboard-response","17","368601","0.0-9.0-0.4","SS1619204697535","","","null","","","","","","<p><img src= images/blank.png width =""600"" height = ""600"" style=""position:fixed;top:50%; left:50%; transform: translate(-50%, -50%); border:5px solid black"">","","","","","","","",""
"","21560.91000000015","sequential-stimulus-presentation-old","18","390666","0.0-9.0-1.4","SS1619204697535","trial","","40","500","22060.91000000015","images/stimuli/spore_stims/complex_16_A_b.gif","images/stimuli/spore_stims/complex_09_A_a.gif","self_paced","","0","complex_dissimilar","images/stimuli/spore_stims/complex_16_A_b.gif","","","","",""
"","3475.0350000103936","survey-multi-choice","19","394144","0.0-10.0","SS1619204697535","math_question","","","","","","","","","","","","{""Q0"":""10""}","[0]","10","",""
"","null","html-keyboard-response","20","395324","0.0-11.0-0.0","SS1619204697535","","","null","","","","","","<p><img src= images/blank.png width =""600"" height = ""600"" style=""position:fixed;top:50%; left:50%; transform: translate(-50%, -50%); border:5px solid black"">","","","","","","","",""
"","32470.06500000134","sequential-stimulus-presentation-old","21","428297","0.0-11.0-1.0","SS1619204697535","trial","","40","500","32970.06500000134","images/stimuli/spore_stims/simple_06_A_a.gif","images/stimuli/spore_stims/simple_13_A_b.gif","self_paced","","1","simple_dissimilar","images/stimuli/spore_stims/simple_13_A_b.gif","","","","",""
"","null","html-keyboard-response","22","429562","0.0-11.0-0.1","SS1619204697535","","","null","","","","","","<p><img src= images/blank.png width =""600"" height = ""600"" style=""position:fixed;top:50%; left:50%; transform: translate(-50%, -50%); border:5px solid black"">","","","","","","","",""
"","37900.42000001995","sequential-stimulus-presentation-old","23","467965","0.0-11.0-1.1","SS1619204697535","trial","","40","500","38400.42000001995","images/stimuli/spore_stims/simple_06_A_a.gif","images/stimuli/spore_stims/simple_13_A_b.gif","self_paced","","1","simple_dissimilar","images/stimuli/spore_stims/simple_13_A_b.gif","","","","",""
"","null","html-keyboard-response","24","468804","0.0-11.0-0.2","SS1619204697535","","","null","","","","","","<p><img src= images/blank.png width =""600"" height = ""600"" style=""position:fixed;top:50%; left:50%; transform: translate(-50%, -50%); border:5px solid black"">","","","","","","","",""
"","25517.595000041183","sequential-stimulus-presentation-old","25","494824","0.0-11.0-1.2","SS1619204697535","trial","","40","500","26017.595000041183","images/stimuli/spore_stims/simple_06_A_a.gif","images/stimuli/spore_stims/simple_13_A_b.gif","self_paced","","1","simple_dissimilar","images/stimuli/spore_stims/simple_13_A_b.gif","","","","",""
"","null","html-keyboard-response","26","496098","0.0-11.0-0.3","SS1619204697535","","","null","","","","","","<p><img src= images/blank.png width =""600"" height = ""600"" style=""position:fixed;top:50%; left:50%; transform: translate(-50%, -50%); border:5px solid black"">","","","","","","","",""
"","24227.150000049733","sequential-stimulus-presentation-old","27","520828","0.0-11.0-1.3","SS1619204697535","trial","","40","500","24727.150000049733","images/stimuli/spore_stims/simple_06_A_a.gif","images/stimuli/spore_stims/simple_13_A_b.gif","self_paced","","1","simple_dissimilar","images/stimuli/spore_stims/simple_13_A_b.gif","","","","",""
"","null","html-keyboard-response","28","521740","0.0-11.0-0.4","SS1619204697535","","","null","","","","","","<p><img src= images/blank.png width =""600"" height = ""600"" style=""position:fixed;top:50%; left:50%; transform: translate(-50%, -50%); border:5px solid black"">","","","","","","","",""
"","26503.425000002608","sequential-stimulus-presentation-old","29","548746","0.0-11.0-1.4","SS1619204697535","trial","","40","500","27003.425000002608","images/stimuli/spore_stims/simple_06_A_a.gif","images/stimuli/spore_stims/simple_13_A_b.gif","self_paced","","1","simple_dissimilar","images/stimuli/spore_stims/simple_06_A_a.gif","","","","",""
"","2695.675000024494","survey-multi-choice","30","551443","0.0-12.0","SS1619204697535","math_question","","","","","","","","","","","","{""Q0"":""11""}","[0]","11","",""
"","null","html-keyboard-response","31","552655","0.0-13.0-0.0","SS1619204697535","","","null","","","","","","<p><img src= images/blank.png width =""600"" height = ""600"" style=""position:fixed;top:50%; left:50%; transform: translate(-50%, -50%); border:5px solid black"">","","","","","","","",""
"","1196.479999984149","sequential-stimulus-presentation-old","32","553954","0.0-13.0-1.0","SS1619204697535","trial","","40","500","1696.479999984149","images/stimuli/spore_stims/simple_11_A_a.gif","images/stimuli/spore_stims/simple_02_A_b.gif","forced_short","","2","simple_dissimilar","images/stimuli/spore_stims/simple_02_A_b.gif","","","","",""
"","null","html-keyboard-response","33","555172","0.0-13.0-0.1","SS1619204697535","","","null","","","","","","<p><img src= images/blank.png width =""600"" height = ""600"" style=""position:fixed;top:50%; left:50%; transform: translate(-50%, -50%); border:5px solid black"">","","","","","","","",""
"","28432.79499997152","sequential-stimulus-presentation-old","34","584108","0.0-13.0-1.1","SS1619204697535","trial","","40","500","28932.79499997152","images/stimuli/spore_stims/simple_11_A_a.gif","images/stimuli/spore_stims/simple_02_A_b.gif","forced_short","","2","simple_dissimilar","images/stimuli/spore_stims/simple_02_A_b.gif","","","","",""
"","null","html-keyboard-response","35","585299","0.0-13.0-0.2","SS1619204697535","","","null","","","","","","<p><img src= images/blank.png width =""600"" height = ""600"" style=""position:fixed;top:50%; left:50%; transform: translate(-50%, -50%); border:5px solid black"">","","","","","","","",""
"","14510.710000002291","sequential-stimulus-presentation-old","36","600312","0.0-13.0-1.2","SS1619204697535","trial","","40","500","15010.710000002291","images/stimuli/spore_stims/simple_11_A_a.gif","images/stimuli/spore_stims/simple_02_A_b.gif","forced_short","","2","simple_dissimilar","images/stimuli/spore_stims/simple_02_A_b.gif","","","","",""
"","null","html-keyboard-response","37","601351","0.0-13.0-0.3","SS1619204697535","","","null","","","","","","<p><img src= images/blank.png width =""600"" height = ""600"" style=""position:fixed;top:50%; left:50%; transform: translate(-50%, -50%); border:5px solid black"">","","","","","","","",""
"","15685.639999981504","sequential-stimulus-presentation-old","38","617540","0.0-13.0-1.3","SS1619204697535","trial","","40","500","16185.639999981504","images/stimuli/spore_stims/simple_11_A_a.gif","images/stimuli/spore_stims/simple_02_A_b.gif","forced_short","","2","simple_dissimilar","images/stimuli/spore_stims/simple_02_A_b.gif","","","","",""
"","null","html-keyboard-response","39","618536","0.0-13.0-0.4","SS1619204697535","","","null","","","","","","<p><img src= images/blank.png width =""600"" height = ""600"" style=""position:fixed;top:50%; left:50%; transform: translate(-50%, -50%); border:5px solid black"">","","","","","","","",""
"","10460.744999989402","sequential-stimulus-presentation-old","40","629498","0.0-13.0-1.4","SS1619204697535","trial","","40","500","10960.744999989402","images/stimuli/spore_stims/simple_11_A_a.gif","images/stimuli/spore_stims/simple_02_A_b.gif","forced_short","","2","simple_dissimilar","images/stimuli/spore_stims/simple_11_A_a.gif","","","","",""
"","null","html-keyboard-response","41","630459","0.0-13.0-0.5","SS1619204697535","","","null","","","","","","<p><img src= images/blank.png width =""600"" height = ""600"" style=""position:fixed;top:50%; left:50%; transform: translate(-50%, -50%); border:5px solid black"">","","","","","","","",""
"","17525.89500002796","sequential-stimulus-presentation-old","42","648488","0.0-13.0-1.5","SS1619204697535","trial","","40","500","18025.89500002796","images/stimuli/spore_stims/simple_11_A_a.gif","images/stimuli/spore_stims/simple_02_A_b.gif","forced_short","","2","simple_dissimilar","images/stimuli/spore_stims/simple_02_A_b.gif","","","","",""
"","2591.0999999614432","survey-multi-choice","43","651084","0.0-14.0","SS1619204697535","math_question","","","","","","","","","","","","{""Q0"":""10""}","[0]","10","",""
"","null","html-keyboard-response","44","651934","0.0-15.0-0.0","SS1619204697535","","","null","","","","","","<p><img src= images/blank.png width =""600"" height = ""600"" style=""position:fixed;top:50%; left:50%; transform: translate(-50%, -50%); border:5px solid black"">","","","","","","","",""
"","674.8749999678694","sequential-stimulus-presentation-old","45","662612","0.0-15.0-1.0","SS1619204697535","trial","","40","500","1174.8749999678694","images/stimuli/spore_stims/simple_15_A_a.gif","images/stimuli/spore_stims/simple_18_A_b.gif","forced_long","","3","simple_dissimilar","images/stimuli/spore_stims/simple_18_A_b.gif","","","","",""
"","null","html-keyboard-response","46","663479","0.0-15.0-0.1","SS1619204697535","","","null","","","","","","<p><img src= images/blank.png width =""600"" height = ""600"" style=""position:fixed;top:50%; left:50%; transform: translate(-50%, -50%); border:5px solid black"">","","","","","","","",""
"","40896.44500002032","sequential-stimulus-presentation-old","47","704880","0.0-15.0-1.1","SS1619204697535","trial","","40","500","41396.44500002032","images/stimuli/spore_stims/simple_15_A_a.gif","images/stimuli/spore_stims/simple_18_A_b.gif","forced_long","","3","simple_dissimilar","images/stimuli/spore_stims/simple_15_A_a.gif","","","","",""
"","null","html-keyboard-response","48","706130","0.0-15.0-0.2","SS1619204697535","","","null","","","","","","<p><img src= images/blank.png width =""600"" height = ""600"" style=""position:fixed;top:50%; left:50%; transform: translate(-50%, -50%); border:5px solid black"">","","","","","","","",""
"","28549.170000012964","sequential-stimulus-presentation-old","49","735184","0.0-15.0-1.2","SS1619204697535","trial","","40","500","29049.170000012964","images/stimuli/spore_stims/simple_15_A_a.gif","images/stimuli/spore_stims/simple_18_A_b.gif","forced_long","","3","simple_dissimilar","images/stimuli/spore_stims/simple_18_A_b.gif","","","","",""
"","null","html-keyboard-response","50","736008","0.0-15.0-0.3","SS1619204697535","","","null","","","","","","<p><img src= images/blank.png width =""600"" height = ""600"" style=""position:fixed;top:50%; left:50%; transform: translate(-50%, -50%); border:5px solid black"">","","","","","","","",""
"","19204.385000048205","sequential-stimulus-presentation-old","51","755716","0.0-15.0-1.3","SS1619204697535","trial","","40","500","19704.385000048205","images/stimuli/spore_stims/simple_15_A_a.gif","images/stimuli/spore_stims/simple_18_A_b.gif","forced_long","","3","simple_dissimilar","images/stimuli/spore_stims/simple_15_A_a.gif","","","","",""
"","null","html-keyboard-response","52","756790","0.0-15.0-0.4","SS1619204697535","","","null","","","","","","<p><img src= images/blank.png width =""600"" height = ""600"" style=""position:fixed;top:50%; left:50%; transform: translate(-50%, -50%); border:5px solid black"">","","","","","","","",""
"","25846.66500001913","sequential-stimulus-presentation-old","53","783140","0.0-15.0-1.4","SS1619204697535","trial","","40","500","26346.66500001913","images/stimuli/spore_stims/simple_15_A_a.gif","images/stimuli/spore_stims/simple_18_A_b.gif","forced_long","","3","simple_dissimilar","images/stimuli/spore_stims/simple_18_A_b.gif","","","","",""
"","2978.034999978263","survey-multi-choice","54","786119","0.0-16.0","SS1619204697535","math_question","","","","","","","","","","","","{""Q0"":""8""}","[0]","8","",""
"","null","html-keyboard-response","55","787225","0.0-17.0-0.0","SS1619204697535","","","null","","","","","","<p><img src= images/blank.png width =""600"" height = ""600"" style=""position:fixed;top:50%; left:50%; transform: translate(-50%, -50%); border:5px solid black"">","","","","","","","",""
"","37756.825000047684","sequential-stimulus-presentation-old","56","825485","0.0-17.0-1.0","SS1619204697535","trial","","40","500","38256.825000047684","images/stimuli/spore_stims/simple_03_A_a.gif","images/stimuli/spore_stims/simple_07_A_b.gif","self_paced","","4","simple_dissimilar","images/stimuli/spore_stims/simple_07_A_b.gif","","","","",""
"","null","html-keyboard-response","57","826489","0.0-17.0-0.1","SS1619204697535","","","null","","","","","","<p><img src= images/blank.png width =""600"" height = ""600"" style=""position:fixed;top:50%; left:50%; transform: translate(-50%, -50%); border:5px solid black"">","","","","","","","",""
"","26675.835000001825","sequential-stimulus-presentation-old","58","853668","0.0-17.0-1.1","SS1619204697535","trial","","40","500","27175.835000001825","images/stimuli/spore_stims/simple_03_A_a.gif","images/stimuli/spore_stims/simple_07_A_b.gif","self_paced","","4","simple_dissimilar","images/stimuli/spore_stims/simple_03_A_a.gif","","","","",""
"","null","html-keyboard-response","59","854916","0.0-17.0-0.2","SS1619204697535","","","null","","","","","","<p><img src= images/blank.png width =""600"" height = ""600"" style=""position:fixed;top:50%; left:50%; transform: translate(-50%, -50%); border:5px solid black"">","","","","","","","",""
"","23323.749999981374","sequential-stimulus-presentation-old","60","878744","0.0-17.0-1.2","SS1619204697535","trial","","40","500","23823.749999981374","images/stimuli/spore_stims/simple_03_A_a.gif","images/stimuli/spore_stims/simple_07_A_b.gif","self_paced","","4","simple_dissimilar","images/stimuli/spore_stims/simple_03_A_a.gif","","","","",""
"","null","html-keyboard-response","61","880005","0.0-17.0-0.3","SS1619204697535","","","null","","","","","","<p><img src= images/blank.png width =""600"" height = ""600"" style=""position:fixed;top:50%; left:50%; transform: translate(-50%, -50%); border:5px solid black"">","","","","","","","",""
"","23144.224999996368","sequential-stimulus-presentation-old","62","903652","0.0-17.0-1.3","SS1619204697535","trial","","40","500","23644.224999996368","images/stimuli/spore_stims/simple_03_A_a.gif","images/stimuli/spore_stims/simple_07_A_b.gif","self_paced","","4","simple_dissimilar","images/stimuli/spore_stims/simple_07_A_b.gif","","","","",""
"","3963.084999995772","survey-multi-choice","63","907617","0.0-18.0","SS1619204697535","math_question","","","","","","","","","","","","{""Q0"":""8""}","[0]","8","",""
"","null","html-keyboard-response","64","908696","0.0-19.0-0.0","SS1619204697535","","","null","","","","","","<p><img src= images/blank.png width =""600"" height = ""600"" style=""position:fixed;top:50%; left:50%; transform: translate(-50%, -50%); border:5px solid black"">","","","","","","","",""
"","2815.9749999758787","sequential-stimulus-presentation-old","65","921516","0.0-19.0-1.0","SS1619204697535","trial","","40","500","3315.9749999758787","images/stimuli/spore_stims/complex_18_A_b.gif","images/stimuli/spore_stims/complex_07_A_a.gif","forced_long","","5","complex_dissimilar","images/stimuli/spore_stims/complex_07_A_a.gif","","","","",""
"","null","html-keyboard-response","66","922552","0.0-19.0-0.1","SS1619204697535","","","null","","","","","","<p><img src= images/blank.png width =""600"" height = ""600"" style=""position:fixed;top:50%; left:50%; transform: translate(-50%, -50%); border:5px solid black"">","","","","","","","",""
"","49550.43000000296","sequential-stimulus-presentation-old","67","972606","0.0-19.0-1.1","SS1619204697535","trial","","40","500","50050.43000000296","images/stimuli/spore_stims/complex_18_A_b.gif","images/stimuli/spore_stims/complex_07_A_a.gif","forced_long","","5","complex_dissimilar","images/stimuli/spore_stims/complex_18_A_b.gif","","","","",""
"","null","html-keyboard-response","68","973721","0.0-19.0-0.2","SS1619204697535","","","null","","","","","","<p><img src= images/blank.png width =""600"" height = ""600"" style=""position:fixed;top:50%; left:50%; transform: translate(-50%, -50%); border:5px solid black"">","","","","","","","",""
"","47320.56999998167","sequential-stimulus-presentation-old","69","1021545","0.0-19.0-1.2","SS1619204697535","trial","","40","500","47820.56999998167","images/stimuli/spore_stims/complex_18_A_b.gif","images/stimuli/spore_stims/complex_07_A_a.gif","forced_long","","5","complex_dissimilar","images/stimuli/spore_stims/complex_07_A_a.gif","","","","",""
"","null","html-keyboard-response","70","1022671","0.0-19.0-0.3","SS1619204697535","","","null","","","","","","<p><img src= images/blank.png width =""600"" height = ""600"" style=""position:fixed;top:50%; left:50%; transform: translate(-50%, -50%); border:5px solid black"">","","","","","","","",""
"","95008.67000001017","sequential-stimulus-presentation-old","71","1118184","0.0-19.0-1.3","SS1619204697535","trial","","40","500","95508.67000001017","images/stimuli/spore_stims/complex_18_A_b.gif","images/stimuli/spore_stims/complex_07_A_a.gif","forced_long","","5","complex_dissimilar","images/stimuli/spore_stims/complex_18_A_b.gif","","","","",""
"","2414.7299999604","survey-multi-choice","72","1120600","0.0-20.0","SS1619204697535","math_question","","","","","","","","","","","","{""Q0"":""2""}","[0]","2","",""
"","null","html-keyboard-response","73","1121470","0.0-21.0-0.0","SS1619204697535","","","null","","","","","","<p><img src= images/blank.png width =""600"" height = ""600"" style=""position:fixed;top:50%; left:50%; transform: translate(-50%, -50%); border:5px solid black"">","","","","","","","",""
"","35308.164999994915","sequential-stimulus-presentation-old","74","1157282","0.0-21.0-1.0","SS1619204697535","trial","","40","500","35808.164999994915","images/stimuli/spore_stims/complex_17_A_a.gif","images/stimuli/spore_stims/complex_04_A_b.gif","self_paced","","6","complex_dissimilar","images/stimuli/spore_stims/complex_04_A_b.gif","","","","",""
"","null","html-keyboard-response","75","1158512","0.0-21.0-0.1","SS1619204697535","","","null","","","","","","<p><img src= images/blank.png width =""600"" height = ""600"" style=""position:fixed;top:50%; left:50%; transform: translate(-50%, -50%); border:5px solid black"">","","","","","","","",""
"","23149.700000009034","sequential-stimulus-presentation-old","76","1182165","0.0-21.0-1.1","SS1619204697535","trial","","40","500","23649.700000009034","images/stimuli/spore_stims/complex_17_A_a.gif","images/stimuli/spore_stims/complex_04_A_b.gif","self_paced","","6","complex_dissimilar","images/stimuli/spore_stims/complex_17_A_a.gif","","","","",""
"","null","html-keyboard-response","77","1183237","0.0-21.0-0.2","SS1619204697535","","","null","","","","","","<p><img src= images/blank.png width =""600"" height = ""600"" style=""position:fixed;top:50%; left:50%; transform: translate(-50%, -50%); border:5px solid black"">","","","","","","","",""
"","15323.784999956843","sequential-stimulus-presentation-old","78","1199063","0.0-21.0-1.2","SS1619204697535","trial","","40","500","15823.784999956843","images/stimuli/spore_stims/complex_17_A_a.gif","images/stimuli/spore_stims/complex_04_A_b.gif","self_paced","","6","complex_dissimilar","images/stimuli/spore_stims/complex_04_A_b.gif","","","","",""
"","null","html-keyboard-response","79","1200088","0.0-21.0-0.3","SS1619204697535","","","null","","","","","","<p><img src= images/blank.png width =""600"" height = ""600"" style=""position:fixed;top:50%; left:50%; transform: translate(-50%, -50%); border:5px solid black"">","","","","","","","",""
"","23444.344999967143","sequential-stimulus-presentation-old","80","1224037","0.0-21.0-1.3","SS1619204697535","trial","","40","500","23944.344999967143","images/stimuli/spore_stims/complex_17_A_a.gif","images/stimuli/spore_stims/complex_04_A_b.gif","self_paced","","6","complex_dissimilar","images/stimuli/spore_stims/complex_04_A_b.gif","","","","",""
"","3046.3749999762513","survey-multi-choice","81","1227085","0.0-22.0","SS1619204697535","math_question","","","","","","","","","","","","{""Q0"":""9""}","[0]","9","",""
"","null","html-keyboard-response","82","1228193","0.0-23.0-0.0","SS1619204697535","","","null","","","","","","<p><img src= images/blank.png width =""600"" height = ""600"" style=""position:fixed;top:50%; left:50%; transform: translate(-50%, -50%); border:5px solid black"">","","","","","","","",""
"","2343.330000003334","sequential-stimulus-presentation-old","83","1240540","0.0-23.0-1.0","SS1619204697535","trial","","40","500","2843.330000003334","images/stimuli/spore_stims/simple_05_A_a.gif","images/stimuli/spore_stims/simple_14_A_b.gif","forced_long","","7","simple_dissimilar","images/stimuli/spore_stims/simple_14_A_b.gif","","","","",""
"","null","html-keyboard-response","84","1241678","0.0-23.0-0.1","SS1619204697535","","","null","","","","","","<p><img src= images/blank.png width =""600"" height = ""600"" style=""position:fixed;top:50%; left:50%; transform: translate(-50%, -50%); border:5px solid black"">","","","","","","","",""
"","25844.845000014175","sequential-stimulus-presentation-old","85","1268028","0.0-23.0-1.1","SS1619204697535","trial","","40","500","26344.845000014175","images/stimuli/spore_stims/simple_05_A_a.gif","images/stimuli/spore_stims/simple_14_A_b.gif","forced_long","","7","simple_dissimilar","images/stimuli/spore_stims/simple_05_A_a.gif","","","","",""
"","null","html-keyboard-response","86","1268988","0.0-23.0-0.2","SS1619204697535","","","null","","","","","","<p><img src= images/blank.png width =""600"" height = ""600"" style=""position:fixed;top:50%; left:50%; transform: translate(-50%, -50%); border:5px solid black"">","","","","","","","",""
"","30098.67000003578","sequential-stimulus-presentation-old","87","1299590","0.0-23.0-1.2","SS1619204697535","trial","","40","500","30598.67000003578","images/stimuli/spore_stims/simple_05_A_a.gif","images/stimuli/spore_stims/simple_14_A_b.gif","forced_long","","7","simple_dissimilar","images/stimuli/spore_stims/simple_14_A_b.gif","","","","",""
"","null","html-keyboard-response","88","1300671","0.0-23.0-0.3","SS1619204697535","","","null","","","","","","<p><img src= images/blank.png width =""600"" height = ""600"" style=""position:fixed;top:50%; left:50%; transform: translate(-50%, -50%); border:5px solid black"">","","","","","","","",""
"","25702.289999986533","sequential-stimulus-presentation-old","89","1326876","0.0-23.0-1.3","SS1619204697535","trial","","40","500","26202.289999986533","images/stimuli/spore_stims/simple_05_A_a.gif","images/stimuli/spore_stims/simple_14_A_b.gif","forced_long","","7","simple_dissimilar","images/stimuli/spore_stims/simple_14_A_b.gif","","","","",""
"","null","html-keyboard-response","90","1327836","0.0-23.0-0.4","SS1619204697535","","","null","","","","","","<p><img src= images/blank.png width =""600"" height = ""600"" style=""position:fixed;top:50%; left:50%; transform: translate(-50%, -50%); border:5px solid black"">","","","","","","","",""
"","26870.624999981374","sequential-stimulus-presentation-old","91","1355211","0.0-23.0-1.4","SS1619204697535","trial","","40","500","27370.624999981374","images/stimuli/spore_stims/simple_05_A_a.gif","images/stimuli/spore_stims/simple_14_A_b.gif","forced_long","","7","simple_dissimilar","images/stimuli/spore_stims/simple_05_A_a.gif","","","","",""
"","2182.199999981094","survey-multi-choice","92","1357395","0.0-24.0","SS1619204697535","math_question","","","","","","","","","","","","{""Q0"":""9""}","[0]","9","",""
"","null","html-keyboard-response","93","1358217","0.0-25.0-0.0","SS1619204697535","","","null","","","","","","<p><img src= images/blank.png width =""600"" height = ""600"" style=""position:fixed;top:50%; left:50%; transform: translate(-50%, -50%); border:5px solid black"">","","","","","","","",""
"","530.5799999623559","sequential-stimulus-presentation-old","94","1368751","0.0-25.0-1.0","SS1619204697535","trial","","40","500","1030.579999962356","images/stimuli/spore_stims/complex_01_A_b.gif","images/stimuli/spore_stims/complex_15_A_a.gif","forced_long","","8","complex_dissimilar","images/stimuli/spore_stims/complex_15_A_a.gif","","","","",""
"","null","html-keyboard-response","95","1369955","0.0-25.0-0.1","SS1619204697535","","","null","","","","","","<p><img src= images/blank.png width =""600"" height = ""600"" style=""position:fixed;top:50%; left:50%; transform: translate(-50%, -50%); border:5px solid black"">","","","","","","","",""
"","29937.944999954198","sequential-stimulus-presentation-old","96","1400396","0.0-25.0-1.1","SS1619204697535","trial","","40","500","30437.944999954198","images/stimuli/spore_stims/complex_01_A_b.gif","images/stimuli/spore_stims/complex_15_A_a.gif","forced_long","","8","complex_dissimilar","images/stimuli/spore_stims/complex_15_A_a.gif","","","","",""
"","null","html-keyboard-response","97","1401452","0.0-25.0-0.2","SS1619204697535","","","null","","","","","","<p><img src= images/blank.png width =""600"" height = ""600"" style=""position:fixed;top:50%; left:50%; transform: translate(-50%, -50%); border:5px solid black"">","","","","","","","",""
"","20332.159999990836","sequential-stimulus-presentation-old","98","1422288","0.0-25.0-1.2","SS1619204697535","trial","","40","500","20832.159999990836","images/stimuli/spore_stims/complex_01_A_b.gif","images/stimuli/spore_stims/complex_15_A_a.gif","forced_long","","8","complex_dissimilar","images/stimuli/spore_stims/complex_15_A_a.gif","","","","",""
"","null","html-keyboard-response","99","1423190","0.0-25.0-0.3","SS1619204697535","","","null","","","","","","<p><img src= images/blank.png width =""600"" height = ""600"" style=""position:fixed;top:50%; left:50%; transform: translate(-50%, -50%); border:5px solid black"">","","","","","","","",""
"","25951.639999984764","sequential-stimulus-presentation-old","100","1449644","0.0-25.0-1.3","SS1619204697535","trial","","40","500","26451.639999984764","images/stimuli/spore_stims/complex_01_A_b.gif","images/stimuli/spore_stims/complex_15_A_a.gif","forced_long","","8","complex_dissimilar","images/stimuli/spore_stims/complex_01_A_b.gif","","","","",""
"","null","html-keyboard-response","101","1450602","0.0-25.0-0.4","SS1619204697535","","","null","","","","","","<p><img src= images/blank.png width =""600"" height = ""600"" style=""position:fixed;top:50%; left:50%; transform: translate(-50%, -50%); border:5px solid black"">","","","","","","","",""
"","19653.3000000054","sequential-stimulus-presentation-old","102","1470758","0.0-25.0-1.4","SS1619204697535","trial","","40","500","20153.3000000054","images/stimuli/spore_stims/complex_01_A_b.gif","images/stimuli/spore_stims/complex_15_A_a.gif","forced_long","","8","complex_dissimilar","images/stimuli/spore_stims/complex_01_A_b.gif","","","","",""
"","3137.705000001006","survey-multi-choice","103","1473897","0.0-26.0","SS1619204697535","math_question","","","","","","","","","","","","{""Q0"":""17""}","[0]","17","",""
"","null","html-keyboard-response","104","1474827","0.0-27.0-0.0","SS1619204697535","","","null","","","","","","<p><img src= images/blank.png width =""600"" height = ""600"" style=""position:fixed;top:50%; left:50%; transform: translate(-50%, -50%); border:5px solid black"">","","","","","","","",""
"","711.4600000204518","sequential-stimulus-presentation-old","105","1475642","0.0-27.0-1.0","SS1619204697535","trial","","40","500","1211.4600000204518","images/stimuli/spore_stims/complex_14_A_a.gif","images/stimuli/spore_stims/complex_09_A_b.gif","forced_short","","9","complex_dissimilar","images/stimuli/spore_stims/complex_09_A_b.gif","","","","",""
"","null","html-keyboard-response","106","1476775","0.0-27.0-0.1","SS1619204697535","","","null","","","","","","<p><img src= images/blank.png width =""600"" height = ""600"" style=""position:fixed;top:50%; left:50%; transform: translate(-50%, -50%); border:5px solid black"">","","","","","","","",""
"","28733.110000030138","sequential-stimulus-presentation-old","107","1506012","0.0-27.0-1.1","SS1619204697535","trial","","40","500","29233.110000030138","images/stimuli/spore_stims/complex_14_A_a.gif","images/stimuli/spore_stims/complex_09_A_b.gif","forced_short","","9","complex_dissimilar","images/stimuli/spore_stims/complex_09_A_b.gif","","","","",""
"","null","html-keyboard-response","108","1507277","0.0-27.0-0.2","SS1619204697535","","","null","","","","","","<p><img src= images/blank.png width =""600"" height = ""600"" style=""position:fixed;top:50%; left:50%; transform: translate(-50%, -50%); border:5px solid black"">","","","","","","","",""
"","11233.600000035949","sequential-stimulus-presentation-old","109","1519014","0.0-27.0-1.2","SS1619204697535","trial","","40","500","11733.600000035949","images/stimuli/spore_stims/complex_14_A_a.gif","images/stimuli/spore_stims/complex_09_A_b.gif","forced_short","","9","complex_dissimilar","images/stimuli/spore_stims/complex_14_A_a.gif","","","","",""
"","null","html-keyboard-response","110","1519864","0.0-27.0-0.3","SS1619204697535","","","null","","","","","","<p><img src= images/blank.png width =""600"" height = ""600"" style=""position:fixed;top:50%; left:50%; transform: translate(-50%, -50%); border:5px solid black"">","","","","","","","",""
"","16764.039999980014","sequential-stimulus-presentation-old","111","1537131","0.0-27.0-1.3","SS1619204697535","trial","","40","500","17264.039999980014","images/stimuli/spore_stims/complex_14_A_a.gif","images/stimuli/spore_stims/complex_09_A_b.gif","forced_short","","9","complex_dissimilar","images/stimuli/spore_stims/complex_14_A_a.gif","","","","",""
"","4189.249999995809","survey-multi-choice","112","1541323","0.0-28.0","SS1619204697535","math_question","","","","","","","","","","","","{""Q0"":""17""}","[0]","17","",""
"","null","html-keyboard-response","113","1542395","0.0-29.0-0.0","SS1619204697535","","","null","","","","","","<p><img src= images/blank.png width =""600"" height = ""600"" style=""position:fixed;top:50%; left:50%; transform: translate(-50%, -50%); border:5px solid black"">","","","","","","","",""
"","603.8850000477396","sequential-stimulus-presentation-old","114","1543103","0.0-29.0-1.0","SS1619204697535","trial","","40","500","1103.8850000477396","images/stimuli/spore_stims/simple_18_A_a.gif","images/stimuli/spore_stims/simple_08_A_b.gif","forced_short","","10","simple_dissimilar","images/stimuli/spore_stims/simple_08_A_b.gif","","","","",""
"","null","html-keyboard-response","115","1544098","0.0-29.0-0.1","SS1619204697535","","","null","","","","","","<p><img src= images/blank.png width =""600"" height = ""600"" style=""position:fixed;top:50%; left:50%; transform: translate(-50%, -50%); border:5px solid black"">","","","","","","","",""
"","16474.22999999253","sequential-stimulus-presentation-old","116","1561077","0.0-29.0-1.1","SS1619204697535","trial","","40","500","16974.22999999253","images/stimuli/spore_stims/simple_18_A_a.gif","images/stimuli/spore_stims/simple_08_A_b.gif","forced_short","","10","simple_dissimilar","images/stimuli/spore_stims/simple_08_A_b.gif","","","","",""
"","null","html-keyboard-response","117","1562291","0.0-29.0-0.2","SS1619204697535","","","null","","","","","","<p><img src= images/blank.png width =""600"" height = ""600"" style=""position:fixed;top:50%; left:50%; transform: translate(-50%, -50%); border:5px solid black"">","","","","","","","",""
"","14224.619999993593","sequential-stimulus-presentation-old","118","1577019","0.0-29.0-1.2","SS1619204697535","trial","","40","500","14724.619999993593","images/stimuli/spore_stims/simple_18_A_a.gif","images/stimuli/spore_stims/simple_08_A_b.gif","forced_short","","10","simple_dissimilar","images/stimuli/spore_stims/simple_08_A_b.gif","","","","",""
"","null","html-keyboard-response","119","1578201","0.0-29.0-0.3","SS1619204697535","","","null","","","","","","<p><img src= images/blank.png width =""600"" height = ""600"" style=""position:fixed;top:50%; left:50%; transform: translate(-50%, -50%); border:5px solid black"">","","","","","","","",""
"","12313.629999989644","sequential-stimulus-presentation-old","120","1591019","0.0-29.0-1.3","SS1619204697535","trial","","40","500","12813.629999989644","images/stimuli/spore_stims/simple_18_A_a.gif","images/stimuli/spore_stims/simple_08_A_b.gif","forced_short","","10","simple_dissimilar","images/stimuli/spore_stims/simple_08_A_b.gif","","","","",""
"","null","html-keyboard-response","121","1591957","0.0-29.0-0.4","SS1619204697535","","","null","","","","","","<p><img src= images/blank.png width =""600"" height = ""600"" style=""position:fixed;top:50%; left:50%; transform: translate(-50%, -50%); border:5px solid black"">","","","","","","","",""
"","18352.39499999443","sequential-stimulus-presentation-old","122","1610814","0.0-29.0-1.4","SS1619204697535","trial","","40","500","18852.39499999443","images/stimuli/spore_stims/simple_18_A_a.gif","images/stimuli/spore_stims/simple_08_A_b.gif","forced_short","","10","simple_dissimilar","images/stimuli/spore_stims/simple_08_A_b.gif","","","","",""
"","null","html-keyboard-response","123","1611730","0.0-29.0-0.5","SS1619204697535","","","null","","","","","","<p><img src= images/blank.png width =""600"" height = ""600"" style=""position:fixed;top:50%; left:50%; transform: translate(-50%, -50%); border:5px solid black"">","","","","","","","",""
"","8709.210000000894","sequential-stimulus-presentation-old","124","1620942","0.0-29.0-1.5","SS1619204697535","trial","","40","500","9209.210000000894","images/stimuli/spore_stims/simple_18_A_a.gif","images/stimuli/spore_stims/simple_08_A_b.gif","forced_short","","10","simple_dissimilar","images/stimuli/spore_stims/simple_18_A_a.gif","","","","",""
"","2949.404999963008","survey-multi-choice","125","1623893","0.0-30.0","SS1619204697535","math_question","","","","","","","","","","","","{""Q0"":""8""}","[0]","8","",""
"","null","html-keyboard-response","126","1625193","0.0-31.0-0.0","SS1619204697535","","","null","","","","","","<p><img src= images/blank.png width =""600"" height = ""600"" style=""position:fixed;top:50%; left:50%; transform: translate(-50%, -50%); border:5px solid black"">","","","","","","","",""
"","722.524999990128","sequential-stimulus-presentation-old","127","1626019","0.0-31.0-1.0","SS1619204697535","trial","","40","500","1222.524999990128","images/stimuli/spore_stims/complex_04_A_a.gif","images/stimuli/spore_stims/complex_17_A_b.gif","forced_short","","11","complex_dissimilar","images/stimuli/spore_stims/complex_17_A_b.gif","","","","",""
"","null","html-keyboard-response","128","1626939","0.0-31.0-0.1","SS1619204697535","","","null","","","","","","<p><img src= images/blank.png width =""600"" height = ""600"" style=""position:fixed;top:50%; left:50%; transform: translate(-50%, -50%); border:5px solid black"">","","","","","","","",""
"","11717.260000004899","sequential-stimulus-presentation-old","129","1639160","0.0-31.0-1.1","SS1619204697535","trial","","40","500","12217.260000004899","images/stimuli/spore_stims/complex_04_A_a.gif","images/stimuli/spore_stims/complex_17_A_b.gif","forced_short","","11","complex_dissimilar","images/stimuli/spore_stims/complex_17_A_b.gif","","","","",""
"","null","html-keyboard-response","130","1640345","0.0-31.0-0.2","SS1619204697535","","","null","","","","","","<p><img src= images/blank.png width =""600"" height = ""600"" style=""position:fixed;top:50%; left:50%; transform: translate(-50%, -50%); border:5px solid black"">","","","","","","","",""
"","15237.535000022035","sequential-stimulus-presentation-old","131","1656087","0.0-31.0-1.2","SS1619204697535","trial","","40","500","15737.535000022035","images/stimuli/spore_stims/complex_04_A_a.gif","images/stimuli/spore_stims/complex_17_A_b.gif","forced_short","","11","complex_dissimilar","images/stimuli/spore_stims/complex_17_A_b.gif","","","","",""
"","null","html-keyboard-response","132","1656925","0.0-31.0-0.3","SS1619204697535","","","null","","","","","","<p><img src= images/blank.png width =""600"" height = ""600"" style=""position:fixed;top:50%; left:50%; transform: translate(-50%, -50%); border:5px solid black"">","","","","","","","",""
"","17473.31500001019","sequential-stimulus-presentation-old","133","1674903","0.0-31.0-1.3","SS1619204697535","trial","","40","500","17973.31500001019","images/stimuli/spore_stims/complex_04_A_a.gif","images/stimuli/spore_stims/complex_17_A_b.gif","forced_short","","11","complex_dissimilar","images/stimuli/spore_stims/complex_17_A_b.gif","","","","",""
"","null","html-keyboard-response","134","1675903","0.0-31.0-0.4","SS1619204697535","","","null","","","","","","<p><img src= images/blank.png width =""600"" height = ""600"" style=""position:fixed;top:50%; left:50%; transform: translate(-50%, -50%); border:5px solid black"">","","","","","","","",""
"","13204.769999952987","sequential-stimulus-presentation-old","135","1689613","0.0-31.0-1.4","SS1619204697535","trial","","40","500","13704.769999952987","images/stimuli/spore_stims/complex_04_A_a.gif","images/stimuli/spore_stims/complex_17_A_b.gif","forced_short","","11","complex_dissimilar","images/stimuli/spore_stims/complex_04_A_a.gif","","","","",""
"","null","html-keyboard-response","136","1690429","0.0-31.0-0.5","SS1619204697535","","","null","","","","","","<p><img src= images/blank.png width =""600"" height = ""600"" style=""position:fixed;top:50%; left:50%; transform: translate(-50%, -50%); border:5px solid black"">","","","","","","","",""
"","18295.599999953993","sequential-stimulus-presentation-old","137","1709227","0.0-31.0-1.5","SS1619204697535","trial","","40","500","18795.599999953993","images/stimuli/spore_stims/complex_04_A_a.gif","images/stimuli/spore_stims/complex_17_A_b.gif","forced_short","","11","complex_dissimilar","images/stimuli/spore_stims/complex_04_A_a.gif","","","","",""
"[{""page_index"":0,""viewing_time"":6952.83499994548}]","6953.039999993052","instructions","138","1716182","0.0-32.0","SS1619204697535","instructions","","","","","","","","","","","","","","","",""
"","10224.869999976363","survey-likert","139","1726410","0.0-33.0","SS1619204697535","similarity_question","","","","","","","","","","","","{""Q0"":5}","[0]","","images/stimuli/spore_stims/simple_02_A_b.gif","images/stimuli/spore_stims/simple_11_A_a.gif"
"","7607.044999953359","survey-likert","140","1734020","0.0-34.0","SS1619204697535","similarity_question","","","","","","","","","","","","{""Q0"":1}","[0]","","images/stimuli/spore_stims/complex_15_A_a.gif","images/stimuli/spore_stims/complex_01_A_b.gif"
"","6040.309999953024","survey-likert","141","1740064","0.0-35.0","SS1619204697535","similarity_question","","","","","","","","","","","","{""Q0"":2}","[0]","","images/stimuli/spore_stims/complex_16_A_b.gif","images/stimuli/spore_stims/complex_09_A_a.gif"
"","12445.784999988973","survey-likert","142","1752513","0.0-36.0","SS1619204697535","similarity_question","","","","","","","","","","","","{""Q0"":0}","[0]","","images/stimuli/spore_stims/complex_07_A_a.gif","images/stimuli/spore_stims/complex_18_A_b.gif"
"","5379.755000001751","survey-likert","143","1757896","0.0-37.0","SS1619204697535","similarity_question","","","","","","","","","","","","{""Q0"":2}","[0]","","images/stimuli/spore_stims/complex_17_A_a.gif","images/stimuli/spore_stims/complex_04_A_b.gif"
"","4156.714999990072","survey-likert","144","1762056","0.0-38.0","SS1619204697535","similarity_question","","","","","","","","","","","","{""Q0"":2}","[0]","","images/stimuli/spore_stims/complex_14_A_a.gif","images/stimuli/spore_stims/complex_09_A_b.gif"
"","5765.740000002552","survey-likert","145","1767825","0.0-39.0","SS1619204697535","similarity_question","","","","","","","","","","","","{""Q0"":2}","[0]","","images/stimuli/spore_stims/complex_04_A_a.gif","images/stimuli/spore_stims/complex_17_A_b.gif"
"","4742.324999999255","survey-likert","146","1772571","0.0-40.0","SS1619204697535","similarity_question","","","","","","","","","","","","{""Q0"":4}","[0]","","images/stimuli/spore_stims/simple_14_A_b.gif","images/stimuli/spore_stims/simple_05_A_a.gif"
"","5545.495000027586","survey-likert","147","1778119","0.0-41.0","SS1619204697535","similarity_question","","","","","","","","","","","","{""Q0"":2}","[0]","","images/stimuli/spore_stims/simple_03_A_a.gif","images/stimuli/spore_stims/simple_07_A_b.gif"
"","3259.924999962095","survey-likert","148","1781381","0.0-42.0","SS1619204697535","similarity_question","","","","","","","","","","","","{""Q0"":2}","[0]","","images/stimuli/spore_stims/simple_08_A_b.gif","images/stimuli/spore_stims/simple_18_A_a.gif"
"","2415.1549999951385","survey-likert","149","1783799","0.0-43.0","SS1619204697535","similarity_question","","","","","","","","","","","","{""Q0"":5}","[0]","","images/stimuli/spore_stims/simple_13_A_b.gif","images/stimuli/spore_stims/simple_06_A_a.gif"
"","3277.2400000249036","survey-likert","150","1787079","0.0-44.0","SS1619204697535","similarity_question","","","","","","","","","","","","{""Q0"":5}","[0]","","images/stimuli/spore_stims/simple_15_A_a.gif","images/stimuli/spore_stims/simple_18_A_b.gif"
"[{""page_index"":0,""viewing_time"":4338.224999955855}]","4338.4749999968335","instructions","151","1791420","0.0-45.0","SS1619204697535","instructions","","","","","","","","","","","","","","","",""
"","6299.210000026505","survey-likert","152","1797723","0.0-46.0","SS1619204697535","","","","","","","","","images/stimuli/spore_stims/simple_15_A_a.gif","","","","{""Q0"":0}","[0]","","",""
"","5379.235000000335","survey-likert","153","1803106","0.0-47.0","SS1619204697535","","","","","","","","","images/stimuli/spore_stims/simple_14_A_b.gif","","","","{""Q0"":1}","[0]","","",""
"","4622.305000026245","survey-likert","154","1807731","0.0-48.0","SS1619204697535","","","","","","","","","images/stimuli/spore_stims/complex_07_A_a.gif","","","","{""Q0"":5}","[0]","","",""
"","4441.630000015721","survey-likert","155","1812175","0.0-49.0","SS1619204697535","","","","","","","","","images/stimuli/spore_stims/simple_03_A_a.gif","","","","{""Q0"":1}","[0]","","",""
"","2327.1650000242516","survey-likert","156","1814505","0.0-50.0","SS1619204697535","","","","","","","","","images/stimuli/spore_stims/complex_17_A_a.gif","","","","{""Q0"":5}","[0]","","",""
"","3711.799999990035","survey-likert","157","1818220","0.0-51.0","SS1619204697535","","","","","","","","","images/stimuli/spore_stims/complex_09_A_b.gif","","","","{""Q0"":5}","[0]","","",""
"","3853.4400000353344","survey-likert","158","1822076","0.0-52.0","SS1619204697535","","","","","","","","","images/stimuli/spore_stims/complex_15_A_a.gif","","","","{""Q0"":5}","[0]","","",""
"","1929.039999959059","survey-likert","159","1824007","0.0-53.0","SS1619204697535","","","","","","","","","images/stimuli/spore_stims/simple_02_A_b.gif","","","","{""Q0"":1}","[0]","","",""
"","1962.5299999606796","survey-likert","160","1825974","0.0-54.0","SS1619204697535","","","","","","","","","images/stimuli/spore_stims/simple_08_A_b.gif","","","","{""Q0"":1}","[0]","","",""
"","1946.1049999808893","survey-likert","161","1827923","0.0-55.0","SS1619204697535","","","","","","","","","images/stimuli/spore_stims/simple_13_A_b.gif","","","","{""Q0"":0}","[0]","","",""
"","3961.8999999947846","survey-likert","162","1831887","0.0-56.0","SS1619204697535","","","","","","","","","images/stimuli/spore_stims/complex_04_A_a.gif","","","","{""Q0"":6}","[0]","","",""
"","4441.560000006575","survey-likert","163","1836332","0.0-57.0","SS1619204697535","","","","","","","","","images/stimuli/spore_stims/complex_16_A_b.gif","","","","{""Q0"":6}","[0]","","",""
"[{""page_index"":0,""viewing_time"":1486.8850000202656}]","1487.0900000096299","instructions","164","1837820","0.0-58.0","SS1619204697535","instructions","","","","","","","","","","","","","","","",""
"","2666.574999981094","demog-age","165","1840492","0.0-59.0","SS1619204697535","","","","","","","","","","","","","{""age"":""21""}","","","",""
"","3748.0150000192225","demog-ethnic-US","166","1844243","0.0-60.0","SS1619204697535","","","","","","","","","","","","","{""ethnicity"":[""White""]}","[0]","","",""
"","6364.075000048615","demog-gender-and-education","167","1850611","0.0-61.0","SS1619204697535","","","","","","","","","","","","","{""gender"":""Male"",""education"":""Associate Degree/Technical certification""}","[0,1]","","",""
"","42091.86500002397","survey-text","168","1892707","0.0-62.0","SS1619204697535","feedback","","","","","","","","","","","","{""Q0"":""i did not expected to see spore here""}","","","",""
"[{""page_index"":0,""viewing_time"":1125.6200000061654}]","1125.8200000156648","instructions","169","1893835","0.0-63.0","SS1619204697535","instructions","","","","","","","","","","","","","","","",""
