"view_history","rt","trial_type","trial_index","time_elapsed","internal_node_id","subject","stimulus_type","trial_stimulus","key_press","minimum_viewing_duration","trial_looking_time","block_deviant","block_background","exposure_type","stimulus","block_number","block_type","stimulus_displayed","responses","question_order","math_correct_answer","stimulus_left","stimulus_right"
"[{""page_index"":0,""viewing_time"":15821.819999999207}]","15822.089999999662","instructions","0","15823","0.0-0.0","SS1619205771711","","","","","","","","","","","","","","","","",""
"[{""page_index"":0,""viewing_time"":12310.320000000502},{""page_index"":1,""viewing_time"":9059.900000000198}]","21370.405000001483","instructions","1","39196","0.0-1.0","SS1619205771711","instructions","","","","","","","","","","","","","","","",""
"","5317.530000000261","sequential-stimulus-presentation-old","2","45017","0.0-2.0","SS1619205771711","","","40","500","5817.530000000261","null","null","self_paced","","","","","","","","",""
"","3662.800000000061","sequential-stimulus-presentation-old","3","49182","0.0-3.0","SS1619205771711","","","40","500","4162.800000000061","null","null","self_paced","","","","","","","","",""
"[{""page_index"":0,""viewing_time"":83237.6400000012}]","83237.87500000073","instructions","4","132421","0.0-4.0","SS1619205771711","instructions","","","","","","","","","","","","","","","",""
"","9949.099999999802","sequential-stimulus-presentation-old","5","152372","0.0-5.0","SS1619205771711","","","40","500","10449.099999999802","null","null","forced_long","","","","","","","","",""
"","6132.944999999396","sequential-stimulus-presentation-old","6","158621","0.0-6.0","SS1619205771711","","","40","500","6632.944999999396","null","null","forced_long","","","","","","","","",""
"[{""page_index"":0,""viewing_time"":5357.785000000149}]","5358.0249999995285","instructions","7","163980","0.0-7.0","SS1619205771711","instructions","","","","","","","","","","","","","","","",""
"[{""page_index"":0,""viewing_time"":13521.740000000136},{""page_index"":1,""viewing_time"":11372.04999999993},{""page_index"":2,""viewing_time"":50241.93000000017},{""page_index"":3,""viewing_time"":1343.1849999997066},{""page_index"":4,""viewing_time"":1278.7750000006636}]","77757.88000000102","instructions","8","241738","0.0-8.0","SS1619205771711","instructions","","","","","","","","","","","","","","","",""
"","null","html-keyboard-response","9","242577","0.0-9.0-0.0","SS1619205771711","","","null","","","","","","<p><img src= images/blank.png width =""600"" height = ""600"" style=""position:fixed;top:50%; left:50%; transform: translate(-50%, -50%); border:5px solid black"">","","","","","","","",""
"","2542.690000000235","sequential-stimulus-presentation-old","10","245222","0.0-9.0-1.0","SS1619205771711","trial","","40","500","3042.690000000235","images/stimuli/spore_stims/simple_11_A_a.gif","images/stimuli/spore_stims/simple_13_A_b.gif","forced_short","","0","simple_dissimilar","images/stimuli/spore_stims/simple_13_A_b.gif","","","","",""
"","null","html-keyboard-response","11","246223","0.0-9.0-0.1","SS1619205771711","","","null","","","","","","<p><img src= images/blank.png width =""600"" height = ""600"" style=""position:fixed;top:50%; left:50%; transform: translate(-50%, -50%); border:5px solid black"">","","","","","","","",""
"","2956.239999999525","sequential-stimulus-presentation-old","12","249683","0.0-9.0-1.1","SS1619205771711","trial","","40","500","3456.239999999525","images/stimuli/spore_stims/simple_11_A_a.gif","images/stimuli/spore_stims/simple_13_A_b.gif","forced_short","","0","simple_dissimilar","images/stimuli/spore_stims/simple_13_A_b.gif","","","","",""
"","null","html-keyboard-response","13","250773","0.0-9.0-0.2","SS1619205771711","","","null","","","","","","<p><img src= images/blank.png width =""600"" height = ""600"" style=""position:fixed;top:50%; left:50%; transform: translate(-50%, -50%); border:5px solid black"">","","","","","","","",""
"","3315.135000000766","sequential-stimulus-presentation-old","14","254592","0.0-9.0-1.2","SS1619205771711","trial","","40","500","3815.135000000766","images/stimuli/spore_stims/simple_11_A_a.gif","images/stimuli/spore_stims/simple_13_A_b.gif","forced_short","","0","simple_dissimilar","images/stimuli/spore_stims/simple_13_A_b.gif","","","","",""
"","null","html-keyboard-response","15","255593","0.0-9.0-0.3","SS1619205771711","","","null","","","","","","<p><img src= images/blank.png width =""600"" height = ""600"" style=""position:fixed;top:50%; left:50%; transform: translate(-50%, -50%); border:5px solid black"">","","","","","","","",""
"","2186.085000001185","sequential-stimulus-presentation-old","16","258281","0.0-9.0-1.3","SS1619205771711","trial","","40","500","2686.085000001185","images/stimuli/spore_stims/simple_11_A_a.gif","images/stimuli/spore_stims/simple_13_A_b.gif","forced_short","","0","simple_dissimilar","images/stimuli/spore_stims/simple_11_A_a.gif","","","","",""
"","null","html-keyboard-response","17","259303","0.0-9.0-0.4","SS1619205771711","","","null","","","","","","<p><img src= images/blank.png width =""600"" height = ""600"" style=""position:fixed;top:50%; left:50%; transform: translate(-50%, -50%); border:5px solid black"">","","","","","","","",""
"","1489.1700000007404","sequential-stimulus-presentation-old","18","261296","0.0-9.0-1.4","SS1619205771711","trial","","40","500","1989.1700000007404","images/stimuli/spore_stims/simple_11_A_a.gif","images/stimuli/spore_stims/simple_13_A_b.gif","forced_short","","0","simple_dissimilar","images/stimuli/spore_stims/simple_13_A_b.gif","","","","",""
"","3265.2900000012014","survey-multi-choice","19","264565","0.0-10.0","SS1619205771711","math_question","","","","","","","","","","","","{""Q0"":""7""}","[0]","7","",""
"","null","html-keyboard-response","20","265398","0.0-11.0-0.0","SS1619205771711","","","null","","","","","","<p><img src= images/blank.png width =""600"" height = ""600"" style=""position:fixed;top:50%; left:50%; transform: translate(-50%, -50%); border:5px solid black"">","","","","","","","",""
"","6286.909999998868","sequential-stimulus-presentation-old","21","281689","0.0-11.0-1.0","SS1619205771711","trial","","40","500","6786.909999998868","images/stimuli/spore_stims/complex_07_A_b.gif","images/stimuli/spore_stims/complex_10_A_a.gif","forced_long","","1","complex_dissimilar","images/stimuli/spore_stims/complex_10_A_a.gif","","","","",""
"","null","html-keyboard-response","22","282847","0.0-11.0-0.1","SS1619205771711","","","null","","","","","","<p><img src= images/blank.png width =""600"" height = ""600"" style=""position:fixed;top:50%; left:50%; transform: translate(-50%, -50%); border:5px solid black"">","","","","","","","",""
"","1855.7049999998999","sequential-stimulus-presentation-old","23","285207","0.0-11.0-1.1","SS1619205771711","trial","","40","500","2355.7049999999","images/stimuli/spore_stims/complex_07_A_b.gif","images/stimuli/spore_stims/complex_10_A_a.gif","forced_long","","1","complex_dissimilar","images/stimuli/spore_stims/complex_10_A_a.gif","","","","",""
"","null","html-keyboard-response","24","286295","0.0-11.0-0.2","SS1619205771711","","","null","","","","","","<p><img src= images/blank.png width =""600"" height = ""600"" style=""position:fixed;top:50%; left:50%; transform: translate(-50%, -50%); border:5px solid black"">","","","","","","","",""
"","2503.125000001106","sequential-stimulus-presentation-old","25","289303","0.0-11.0-1.2","SS1619205771711","trial","","40","500","3003.125000001106","images/stimuli/spore_stims/complex_07_A_b.gif","images/stimuli/spore_stims/complex_10_A_a.gif","forced_long","","1","complex_dissimilar","images/stimuli/spore_stims/complex_10_A_a.gif","","","","",""
"","null","html-keyboard-response","26","290516","0.0-11.0-0.3","SS1619205771711","","","null","","","","","","<p><img src= images/blank.png width =""600"" height = ""600"" style=""position:fixed;top:50%; left:50%; transform: translate(-50%, -50%); border:5px solid black"">","","","","","","","",""
"","2550.55499999976","sequential-stimulus-presentation-old","27","293569","0.0-11.0-1.3","SS1619205771711","trial","","40","500","3050.55499999976","images/stimuli/spore_stims/complex_07_A_b.gif","images/stimuli/spore_stims/complex_10_A_a.gif","forced_long","","1","complex_dissimilar","images/stimuli/spore_stims/complex_10_A_a.gif","","","","",""
"","2502.185000001162","survey-multi-choice","28","296073","0.0-12.0","SS1619205771711","math_question","","","","","","","","","","","","{""Q0"":""9""}","[0]","9","",""
"","null","html-keyboard-response","29","297009","0.0-13.0-0.0","SS1619205771711","","","null","","","","","","<p><img src= images/blank.png width =""600"" height = ""600"" style=""position:fixed;top:50%; left:50%; transform: translate(-50%, -50%); border:5px solid black"">","","","","","","","",""
"","1277.0100000016391","sequential-stimulus-presentation-old","30","298392","0.0-13.0-1.0","SS1619205771711","trial","","40","500","1777.0100000016391","images/stimuli/spore_stims/complex_14_A_a.gif","images/stimuli/spore_stims/complex_08_A_b.gif","forced_short","","2","complex_dissimilar","images/stimuli/spore_stims/complex_08_A_b.gif","","","","",""
"","null","html-keyboard-response","31","299430","0.0-13.0-0.1","SS1619205771711","","","null","","","","","","<p><img src= images/blank.png width =""600"" height = ""600"" style=""position:fixed;top:50%; left:50%; transform: translate(-50%, -50%); border:5px solid black"">","","","","","","","",""
"","966.1649999998044","sequential-stimulus-presentation-old","32","300900","0.0-13.0-1.1","SS1619205771711","trial","","40","500","1466.1649999998044","images/stimuli/spore_stims/complex_14_A_a.gif","images/stimuli/spore_stims/complex_08_A_b.gif","forced_short","","2","complex_dissimilar","images/stimuli/spore_stims/complex_08_A_b.gif","","","","",""
"","null","html-keyboard-response","33","302098","0.0-13.0-0.2","SS1619205771711","","","null","","","","","","<p><img src= images/blank.png width =""600"" height = ""600"" style=""position:fixed;top:50%; left:50%; transform: translate(-50%, -50%); border:5px solid black"">","","","","","","","",""
"","962.7199999995646","sequential-stimulus-presentation-old","34","303564","0.0-13.0-1.2","SS1619205771711","trial","","40","500","1462.7199999995646","images/stimuli/spore_stims/complex_14_A_a.gif","images/stimuli/spore_stims/complex_08_A_b.gif","forced_short","","2","complex_dissimilar","images/stimuli/spore_stims/complex_08_A_b.gif","","","","",""
"","null","html-keyboard-response","35","304403","0.0-13.0-0.3","SS1619205771711","","","null","","","","","","<p><img src= images/blank.png width =""600"" height = ""600"" style=""position:fixed;top:50%; left:50%; transform: translate(-50%, -50%); border:5px solid black"">","","","","","","","",""
"","1552.175000000745","sequential-stimulus-presentation-old","36","306459","0.0-13.0-1.3","SS1619205771711","trial","","40","500","2052.175000000745","images/stimuli/spore_stims/complex_14_A_a.gif","images/stimuli/spore_stims/complex_08_A_b.gif","forced_short","","2","complex_dissimilar","images/stimuli/spore_stims/complex_14_A_a.gif","","","","",""
"","null","html-keyboard-response","37","307293","0.0-13.0-0.4","SS1619205771711","","","null","","","","","","<p><img src= images/blank.png width =""600"" height = ""600"" style=""position:fixed;top:50%; left:50%; transform: translate(-50%, -50%); border:5px solid black"">","","","","","","","",""
"","869.6650000001537","sequential-stimulus-presentation-old","38","308666","0.0-13.0-1.4","SS1619205771711","trial","","40","500","1369.6650000001537","images/stimuli/spore_stims/complex_14_A_a.gif","images/stimuli/spore_stims/complex_08_A_b.gif","forced_short","","2","complex_dissimilar","images/stimuli/spore_stims/complex_08_A_b.gif","","","","",""
"","null","html-keyboard-response","39","309779","0.0-13.0-0.5","SS1619205771711","","","null","","","","","","<p><img src= images/blank.png width =""600"" height = ""600"" style=""position:fixed;top:50%; left:50%; transform: translate(-50%, -50%); border:5px solid black"">","","","","","","","",""
"","296.32499999931315","sequential-stimulus-presentation-old","40","310579","0.0-13.0-1.5","SS1619205771711","trial","","40","500","796.3249999993131","images/stimuli/spore_stims/complex_14_A_a.gif","images/stimuli/spore_stims/complex_08_A_b.gif","forced_short","","2","complex_dissimilar","images/stimuli/spore_stims/complex_08_A_b.gif","","","","",""
"","2121.264999999781","survey-multi-choice","41","312703","0.0-14.0","SS1619205771711","math_question","","","","","","","","","","","","{""Q0"":""3""}","[0]","3","",""
"","null","html-keyboard-response","42","313620","0.0-15.0-0.0","SS1619205771711","","","null","","","","","","<p><img src= images/blank.png width =""600"" height = ""600"" style=""position:fixed;top:50%; left:50%; transform: translate(-50%, -50%); border:5px solid black"">","","","","","","","",""
"","3198.285000000382","sequential-stimulus-presentation-old","43","326821","0.0-15.0-1.0","SS1619205771711","trial","","40","500","3698.285000000382","images/stimuli/spore_stims/simple_05_A_b.gif","images/stimuli/spore_stims/simple_18_A_a.gif","forced_long","","3","simple_dissimilar","images/stimuli/spore_stims/simple_18_A_a.gif","","","","",""
"","null","html-keyboard-response","44","327845","0.0-15.0-0.1","SS1619205771711","","","null","","","","","","<p><img src= images/blank.png width =""600"" height = ""600"" style=""position:fixed;top:50%; left:50%; transform: translate(-50%, -50%); border:5px solid black"">","","","","","","","",""
"","435.8850000008242","sequential-stimulus-presentation-old","45","328785","0.0-15.0-1.1","SS1619205771711","trial","","40","500","935.8850000008242","images/stimuli/spore_stims/simple_05_A_b.gif","images/stimuli/spore_stims/simple_18_A_a.gif","forced_long","","3","simple_dissimilar","images/stimuli/spore_stims/simple_05_A_b.gif","","","","",""
"","null","html-keyboard-response","46","329832","0.0-15.0-0.2","SS1619205771711","","","null","","","","","","<p><img src= images/blank.png width =""600"" height = ""600"" style=""position:fixed;top:50%; left:50%; transform: translate(-50%, -50%); border:5px solid black"">","","","","","","","",""
"","730.1550000011339","sequential-stimulus-presentation-old","47","331065","0.0-15.0-1.2","SS1619205771711","trial","","40","500","1230.1550000011339","images/stimuli/spore_stims/simple_05_A_b.gif","images/stimuli/spore_stims/simple_18_A_a.gif","forced_long","","3","simple_dissimilar","images/stimuli/spore_stims/simple_05_A_b.gif","","","","",""
"","null","html-keyboard-response","48","331934","0.0-15.0-0.3","SS1619205771711","","","null","","","","","","<p><img src= images/blank.png width =""600"" height = ""600"" style=""position:fixed;top:50%; left:50%; transform: translate(-50%, -50%); border:5px solid black"">","","","","","","","",""
"","874.9299999999348","sequential-stimulus-presentation-old","49","333311","0.0-15.0-1.3","SS1619205771711","trial","","40","500","1374.9299999999348","images/stimuli/spore_stims/simple_05_A_b.gif","images/stimuli/spore_stims/simple_18_A_a.gif","forced_long","","3","simple_dissimilar","images/stimuli/spore_stims/simple_18_A_a.gif","","","","",""
"","1896.0549999992363","survey-multi-choice","50","335209","0.0-16.0","SS1619205771711","math_question","","","","","","","","","","","","{""Q0"":""9""}","[0]","9","",""
"","null","html-keyboard-response","51","336037","0.0-17.0-0.0","SS1619205771711","","","null","","","","","","<p><img src= images/blank.png width =""600"" height = ""600"" style=""position:fixed;top:50%; left:50%; transform: translate(-50%, -50%); border:5px solid black"">","","","","","","","",""
"","7434.830000000133","sequential-stimulus-presentation-old","52","353474","0.0-17.0-1.0","SS1619205771711","trial","","40","500","7934.830000000133","images/stimuli/spore_stims/simple_06_A_b.gif","images/stimuli/spore_stims/simple_19_A_a.gif","forced_long","","4","simple_dissimilar","images/stimuli/spore_stims/simple_19_A_a.gif","","","","",""
"","null","html-keyboard-response","53","354602","0.0-17.0-0.1","SS1619205771711","","","null","","","","","","<p><img src= images/blank.png width =""600"" height = ""600"" style=""position:fixed;top:50%; left:50%; transform: translate(-50%, -50%); border:5px solid black"">","","","","","","","",""
"","1549.1600000004983","sequential-stimulus-presentation-old","54","356655","0.0-17.0-1.1","SS1619205771711","trial","","40","500","2049.1600000004983","images/stimuli/spore_stims/simple_06_A_b.gif","images/stimuli/spore_stims/simple_19_A_a.gif","forced_long","","4","simple_dissimilar","images/stimuli/spore_stims/simple_06_A_b.gif","","","","",""
"","null","html-keyboard-response","55","357867","0.0-17.0-0.2","SS1619205771711","","","null","","","","","","<p><img src= images/blank.png width =""600"" height = ""600"" style=""position:fixed;top:50%; left:50%; transform: translate(-50%, -50%); border:5px solid black"">","","","","","","","",""
"","1056.6600000002072","sequential-stimulus-presentation-old","56","359427","0.0-17.0-1.2","SS1619205771711","trial","","40","500","1556.6600000002072","images/stimuli/spore_stims/simple_06_A_b.gif","images/stimuli/spore_stims/simple_19_A_a.gif","forced_long","","4","simple_dissimilar","images/stimuli/spore_stims/simple_19_A_a.gif","","","","",""
"","null","html-keyboard-response","57","360452","0.0-17.0-0.3","SS1619205771711","","","null","","","","","","<p><img src= images/blank.png width =""600"" height = ""600"" style=""position:fixed;top:50%; left:50%; transform: translate(-50%, -50%); border:5px solid black"">","","","","","","","",""
"","531.6299999994808","sequential-stimulus-presentation-old","58","361488","0.0-17.0-1.3","SS1619205771711","trial","","40","500","1031.6299999994808","images/stimuli/spore_stims/simple_06_A_b.gif","images/stimuli/spore_stims/simple_19_A_a.gif","forced_long","","4","simple_dissimilar","images/stimuli/spore_stims/simple_19_A_a.gif","","","","",""
"","null","html-keyboard-response","59","362688","0.0-17.0-0.4","SS1619205771711","","","null","","","","","","<p><img src= images/blank.png width =""600"" height = ""600"" style=""position:fixed;top:50%; left:50%; transform: translate(-50%, -50%); border:5px solid black"">","","","","","","","",""
"","346.3250000004191","sequential-stimulus-presentation-old","60","363538","0.0-17.0-1.4","SS1619205771711","trial","","40","500","846.3250000004191","images/stimuli/spore_stims/simple_06_A_b.gif","images/stimuli/spore_stims/simple_19_A_a.gif","forced_long","","4","simple_dissimilar","images/stimuli/spore_stims/simple_06_A_b.gif","","","","",""
"","null","html-keyboard-response","61","364372","0.0-17.0-0.5","SS1619205771711","","","null","","","","","","<p><img src= images/blank.png width =""600"" height = ""600"" style=""position:fixed;top:50%; left:50%; transform: translate(-50%, -50%); border:5px solid black"">","","","","","","","",""
"","1365.4750000005006","sequential-stimulus-presentation-old","62","366241","0.0-17.0-1.5","SS1619205771711","trial","","40","500","1865.4750000005006","images/stimuli/spore_stims/simple_06_A_b.gif","images/stimuli/spore_stims/simple_19_A_a.gif","forced_long","","4","simple_dissimilar","images/stimuli/spore_stims/simple_19_A_a.gif","","","","",""
"","2205.4399999997113","survey-multi-choice","63","368448","0.0-18.0","SS1619205771711","math_question","","","","","","","","","","","","{""Q0"":""4""}","[0]","4","",""
"","null","html-keyboard-response","64","369467","0.0-19.0-0.0","SS1619205771711","","","null","","","","","","<p><img src= images/blank.png width =""600"" height = ""600"" style=""position:fixed;top:50%; left:50%; transform: translate(-50%, -50%); border:5px solid black"">","","","","","","","",""
"","590.7950000000419","sequential-stimulus-presentation-old","65","370560","0.0-19.0-1.0","SS1619205771711","trial","","40","500","1090.795000000042","images/stimuli/spore_stims/simple_03_A_b.gif","images/stimuli/spore_stims/simple_20_A_a.gif","self_paced","","5","simple_dissimilar","images/stimuli/spore_stims/simple_20_A_a.gif","","","","",""
"","null","html-keyboard-response","66","371426","0.0-19.0-0.1","SS1619205771711","","","null","","","","","","<p><img src= images/blank.png width =""600"" height = ""600"" style=""position:fixed;top:50%; left:50%; transform: translate(-50%, -50%); border:5px solid black"">","","","","","","","",""
"","413.92999999877065","sequential-stimulus-presentation-old","67","372343","0.0-19.0-1.1","SS1619205771711","trial","","40","500","913.9299999987707","images/stimuli/spore_stims/simple_03_A_b.gif","images/stimuli/spore_stims/simple_20_A_a.gif","self_paced","","5","simple_dissimilar","images/stimuli/spore_stims/simple_20_A_a.gif","","","","",""
"","null","html-keyboard-response","68","373536","0.0-19.0-0.2","SS1619205771711","","","null","","","","","","<p><img src= images/blank.png width =""600"" height = ""600"" style=""position:fixed;top:50%; left:50%; transform: translate(-50%, -50%); border:5px solid black"">","","","","","","","",""
"","968.9950000011013","sequential-stimulus-presentation-old","69","375007","0.0-19.0-1.2","SS1619205771711","trial","","40","500","1468.9950000011013","images/stimuli/spore_stims/simple_03_A_b.gif","images/stimuli/spore_stims/simple_20_A_a.gif","self_paced","","5","simple_dissimilar","images/stimuli/spore_stims/simple_20_A_a.gif","","","","",""
"","null","html-keyboard-response","70","376067","0.0-19.0-0.3","SS1619205771711","","","null","","","","","","<p><img src= images/blank.png width =""600"" height = ""600"" style=""position:fixed;top:50%; left:50%; transform: translate(-50%, -50%); border:5px solid black"">","","","","","","","",""
"","815.6500000004307","sequential-stimulus-presentation-old","71","377388","0.0-19.0-1.3","SS1619205771711","trial","","40","500","1315.6500000004307","images/stimuli/spore_stims/simple_03_A_b.gif","images/stimuli/spore_stims/simple_20_A_a.gif","self_paced","","5","simple_dissimilar","images/stimuli/spore_stims/simple_20_A_a.gif","","","","",""
"","3152.690000000759","survey-multi-choice","72","380544","0.0-20.0","SS1619205771711","math_question","","","","","","","","","","","","{""Q0"":""11""}","[0]","11","",""
"","null","html-keyboard-response","73","381514","0.0-21.0-0.0","SS1619205771711","","","null","","","","","","<p><img src= images/blank.png width =""600"" height = ""600"" style=""position:fixed;top:50%; left:50%; transform: translate(-50%, -50%); border:5px solid black"">","","","","","","","",""
"","886.4000000012456","sequential-stimulus-presentation-old","74","382504","0.0-21.0-1.0","SS1619205771711","trial","","40","500","1386.4000000012456","images/stimuli/spore_stims/complex_18_A_a.gif","images/stimuli/spore_stims/complex_13_A_b.gif","forced_short","","6","complex_dissimilar","images/stimuli/spore_stims/complex_13_A_b.gif","","","","",""
"","null","html-keyboard-response","75","383470","0.0-21.0-0.1","SS1619205771711","","","null","","","","","","<p><img src= images/blank.png width =""600"" height = ""600"" style=""position:fixed;top:50%; left:50%; transform: translate(-50%, -50%); border:5px solid black"">","","","","","","","",""
"","1486.7500000000582","sequential-stimulus-presentation-old","76","385459","0.0-21.0-1.1","SS1619205771711","trial","","40","500","1986.7500000000582","images/stimuli/spore_stims/complex_18_A_a.gif","images/stimuli/spore_stims/complex_13_A_b.gif","forced_short","","6","complex_dissimilar","images/stimuli/spore_stims/complex_13_A_b.gif","","","","",""
"","null","html-keyboard-response","77","386567","0.0-21.0-0.2","SS1619205771711","","","null","","","","","","<p><img src= images/blank.png width =""600"" height = ""600"" style=""position:fixed;top:50%; left:50%; transform: translate(-50%, -50%); border:5px solid black"">","","","","","","","",""
"","1165.3500000010827","sequential-stimulus-presentation-old","78","388235","0.0-21.0-1.2","SS1619205771711","trial","","40","500","1665.3500000010827","images/stimuli/spore_stims/complex_18_A_a.gif","images/stimuli/spore_stims/complex_13_A_b.gif","forced_short","","6","complex_dissimilar","images/stimuli/spore_stims/complex_18_A_a.gif","","","","",""
"","null","html-keyboard-response","79","389342","0.0-21.0-0.3","SS1619205771711","","","null","","","","","","<p><img src= images/blank.png width =""600"" height = ""600"" style=""position:fixed;top:50%; left:50%; transform: translate(-50%, -50%); border:5px solid black"">","","","","","","","",""
"","380.1699999985867","sequential-stimulus-presentation-old","80","390225","0.0-21.0-1.3","SS1619205771711","trial","","40","500","880.1699999985867","images/stimuli/spore_stims/complex_18_A_a.gif","images/stimuli/spore_stims/complex_13_A_b.gif","forced_short","","6","complex_dissimilar","images/stimuli/spore_stims/complex_13_A_b.gif","","","","",""
"","null","html-keyboard-response","81","391395","0.0-21.0-0.4","SS1619205771711","","","null","","","","","","<p><img src= images/blank.png width =""600"" height = ""600"" style=""position:fixed;top:50%; left:50%; transform: translate(-50%, -50%); border:5px solid black"">","","","","","","","",""
"","1149.9899999998743","sequential-stimulus-presentation-old","82","393052","0.0-21.0-1.4","SS1619205771711","trial","","40","500","1649.9899999998743","images/stimuli/spore_stims/complex_18_A_a.gif","images/stimuli/spore_stims/complex_13_A_b.gif","forced_short","","6","complex_dissimilar","images/stimuli/spore_stims/complex_18_A_a.gif","","","","",""
"","null","html-keyboard-response","83","394319","0.0-21.0-0.5","SS1619205771711","","","null","","","","","","<p><img src= images/blank.png width =""600"" height = ""600"" style=""position:fixed;top:50%; left:50%; transform: translate(-50%, -50%); border:5px solid black"">","","","","","","","",""
"","2371.950000000652","sequential-stimulus-presentation-old","84","397196","0.0-21.0-1.5","SS1619205771711","trial","","40","500","2871.950000000652","images/stimuli/spore_stims/complex_18_A_a.gif","images/stimuli/spore_stims/complex_13_A_b.gif","forced_short","","6","complex_dissimilar","images/stimuli/spore_stims/complex_13_A_b.gif","","","","",""
"","1903.5450000010314","survey-multi-choice","85","399101","0.0-22.0","SS1619205771711","math_question","","","","","","","","","","","","{""Q0"":""11""}","[0]","11","",""
"","null","html-keyboard-response","86","399922","0.0-23.0-0.0","SS1619205771711","","","null","","","","","","<p><img src= images/blank.png width =""600"" height = ""600"" style=""position:fixed;top:50%; left:50%; transform: translate(-50%, -50%); border:5px solid black"">","","","","","","","",""
"","622.1849999983096","sequential-stimulus-presentation-old","87","401048","0.0-23.0-1.0","SS1619205771711","trial","","40","500","1122.1849999983096","images/stimuli/spore_stims/complex_19_A_b.gif","images/stimuli/spore_stims/complex_05_A_a.gif","self_paced","","7","complex_dissimilar","images/stimuli/spore_stims/complex_05_A_a.gif","","","","",""
"","null","html-keyboard-response","88","402330","0.0-23.0-0.1","SS1619205771711","","","null","","","","","","<p><img src= images/blank.png width =""600"" height = ""600"" style=""position:fixed;top:50%; left:50%; transform: translate(-50%, -50%); border:5px solid black"">","","","","","","","",""
"","11091.19500000088","sequential-stimulus-presentation-old","89","414216","0.0-23.0-1.1","SS1619205771711","trial","","40","500","11591.19500000088","images/stimuli/spore_stims/complex_19_A_b.gif","images/stimuli/spore_stims/complex_05_A_a.gif","self_paced","","7","complex_dissimilar","images/stimuli/spore_stims/complex_05_A_a.gif","","","","",""
"","null","html-keyboard-response","90","415166","0.0-23.0-0.2","SS1619205771711","","","null","","","","","","<p><img src= images/blank.png width =""600"" height = ""600"" style=""position:fixed;top:50%; left:50%; transform: translate(-50%, -50%); border:5px solid black"">","","","","","","","",""
"","380.37499999883585","sequential-stimulus-presentation-old","91","416050","0.0-23.0-1.2","SS1619205771711","trial","","40","500","880.3749999988358","images/stimuli/spore_stims/complex_19_A_b.gif","images/stimuli/spore_stims/complex_05_A_a.gif","self_paced","","7","complex_dissimilar","images/stimuli/spore_stims/complex_05_A_a.gif","","","","",""
"","null","html-keyboard-response","92","417050","0.0-23.0-0.3","SS1619205771711","","","null","","","","","","<p><img src= images/blank.png width =""600"" height = ""600"" style=""position:fixed;top:50%; left:50%; transform: translate(-50%, -50%); border:5px solid black"">","","","","","","","",""
"","3825.329999999667","sequential-stimulus-presentation-old","93","421392","0.0-23.0-1.3","SS1619205771711","trial","","40","500","4325.329999999667","images/stimuli/spore_stims/complex_19_A_b.gif","images/stimuli/spore_stims/complex_05_A_a.gif","self_paced","","7","complex_dissimilar","images/stimuli/spore_stims/complex_05_A_a.gif","","","","",""
"","null","html-keyboard-response","94","422499","0.0-23.0-0.4","SS1619205771711","","","null","","","","","","<p><img src= images/blank.png width =""600"" height = ""600"" style=""position:fixed;top:50%; left:50%; transform: translate(-50%, -50%); border:5px solid black"">","","","","","","","",""
"","553.8149999993038","sequential-stimulus-presentation-old","95","423556","0.0-23.0-1.4","SS1619205771711","trial","","40","500","1053.8149999993038","images/stimuli/spore_stims/complex_19_A_b.gif","images/stimuli/spore_stims/complex_05_A_a.gif","self_paced","","7","complex_dissimilar","images/stimuli/spore_stims/complex_19_A_b.gif","","","","",""
"","null","html-keyboard-response","96","424837","0.0-23.0-0.5","SS1619205771711","","","null","","","","","","<p><img src= images/blank.png width =""600"" height = ""600"" style=""position:fixed;top:50%; left:50%; transform: translate(-50%, -50%); border:5px solid black"">","","","","","","","",""
"","3179.8849999995437","sequential-stimulus-presentation-old","97","428525","0.0-23.0-1.5","SS1619205771711","trial","","40","500","3679.8849999995437","images/stimuli/spore_stims/complex_19_A_b.gif","images/stimuli/spore_stims/complex_05_A_a.gif","self_paced","","7","complex_dissimilar","images/stimuli/spore_stims/complex_19_A_b.gif","","","","",""
"","1929.7200000000885","survey-multi-choice","98","430458","0.0-24.0","SS1619205771711","math_question","","","","","","","","","","","","{""Q0"":""8""}","[0]","8","",""
"","null","html-keyboard-response","99","431381","0.0-25.0-0.0","SS1619205771711","","","null","","","","","","<p><img src= images/blank.png width =""600"" height = ""600"" style=""position:fixed;top:50%; left:50%; transform: translate(-50%, -50%); border:5px solid black"">","","","","","","","",""
"","23625.840000000608","sequential-stimulus-presentation-old","100","455751","0.0-25.0-1.0","SS1619205771711","trial","","40","500","24125.840000000608","images/stimuli/spore_stims/simple_14_A_b.gif","images/stimuli/spore_stims/simple_06_A_a.gif","self_paced","","8","simple_dissimilar","images/stimuli/spore_stims/simple_06_A_a.gif","","","","",""
"","null","html-keyboard-response","101","456565","0.0-25.0-0.1","SS1619205771711","","","null","","","","","","<p><img src= images/blank.png width =""600"" height = ""600"" style=""position:fixed;top:50%; left:50%; transform: translate(-50%, -50%); border:5px solid black"">","","","","","","","",""
"","51.314999998838175","sequential-stimulus-presentation-old","102","457122","0.0-25.0-1.1","SS1619205771711","trial","","40","500","551.3149999988382","images/stimuli/spore_stims/simple_14_A_b.gif","images/stimuli/spore_stims/simple_06_A_a.gif","self_paced","","8","simple_dissimilar","images/stimuli/spore_stims/simple_06_A_a.gif","","","","",""
"","null","html-keyboard-response","103","458395","0.0-25.0-0.2","SS1619205771711","","","null","","","","","","<p><img src= images/blank.png width =""600"" height = ""600"" style=""position:fixed;top:50%; left:50%; transform: translate(-50%, -50%); border:5px solid black"">","","","","","","","",""
"","8.990000000223517","sequential-stimulus-presentation-old","104","458909","0.0-25.0-1.2","SS1619205771711","trial","","40","500","508.9900000002235","images/stimuli/spore_stims/simple_14_A_b.gif","images/stimuli/spore_stims/simple_06_A_a.gif","self_paced","","8","simple_dissimilar","images/stimuli/spore_stims/simple_06_A_a.gif","","","","",""
"","null","html-keyboard-response","105","460203","0.0-25.0-0.3","SS1619205771711","","","null","","","","","","<p><img src= images/blank.png width =""600"" height = ""600"" style=""position:fixed;top:50%; left:50%; transform: translate(-50%, -50%); border:5px solid black"">","","","","","","","",""
"","1449.0349999996834","sequential-stimulus-presentation-old","106","462157","0.0-25.0-1.3","SS1619205771711","trial","","40","500","1949.0349999996834","images/stimuli/spore_stims/simple_14_A_b.gif","images/stimuli/spore_stims/simple_06_A_a.gif","self_paced","","8","simple_dissimilar","images/stimuli/spore_stims/simple_14_A_b.gif","","","","",""
"","1753.7050000010058","survey-multi-choice","107","463913","0.0-26.0","SS1619205771711","math_question","","","","","","","","","","","","{""Q0"":""11""}","[0]","11","",""
"","null","html-keyboard-response","108","465019","0.0-27.0-0.0","SS1619205771711","","","null","","","","","","<p><img src= images/blank.png width =""600"" height = ""600"" style=""position:fixed;top:50%; left:50%; transform: translate(-50%, -50%); border:5px solid black"">","","","","","","","",""
"","869.2499999997672","sequential-stimulus-presentation-old","109","465992","0.0-27.0-1.0","SS1619205771711","trial","","40","500","1369.2499999997672","images/stimuli/spore_stims/simple_05_A_a.gif","images/stimuli/spore_stims/simple_01_A_b.gif","forced_short","","9","simple_dissimilar","images/stimuli/spore_stims/simple_01_A_b.gif","","","","",""
"","null","html-keyboard-response","110","466917","0.0-27.0-0.1","SS1619205771711","","","null","","","","","","<p><img src= images/blank.png width =""600"" height = ""600"" style=""position:fixed;top:50%; left:50%; transform: translate(-50%, -50%); border:5px solid black"">","","","","","","","",""
"","1290.43499999895","sequential-stimulus-presentation-old","111","468711","0.0-27.0-1.1","SS1619205771711","trial","","40","500","1790.43499999895","images/stimuli/spore_stims/simple_05_A_a.gif","images/stimuli/spore_stims/simple_01_A_b.gif","forced_short","","9","simple_dissimilar","images/stimuli/spore_stims/simple_05_A_a.gif","","","","",""
"","null","html-keyboard-response","112","469705","0.0-27.0-0.2","SS1619205771711","","","null","","","","","","<p><img src= images/blank.png width =""600"" height = ""600"" style=""position:fixed;top:50%; left:50%; transform: translate(-50%, -50%); border:5px solid black"">","","","","","","","",""
"","228.70499999955064","sequential-stimulus-presentation-old","113","470439","0.0-27.0-1.2","SS1619205771711","trial","","40","500","728.7049999995506","images/stimuli/spore_stims/simple_05_A_a.gif","images/stimuli/spore_stims/simple_01_A_b.gif","forced_short","","9","simple_dissimilar","images/stimuli/spore_stims/simple_05_A_a.gif","","","","",""
"","null","html-keyboard-response","114","471338","0.0-27.0-0.3","SS1619205771711","","","null","","","","","","<p><img src= images/blank.png width =""600"" height = ""600"" style=""position:fixed;top:50%; left:50%; transform: translate(-50%, -50%); border:5px solid black"">","","","","","","","",""
"","555.7850000004983","sequential-stimulus-presentation-old","115","472397","0.0-27.0-1.3","SS1619205771711","trial","","40","500","1055.7850000004983","images/stimuli/spore_stims/simple_05_A_a.gif","images/stimuli/spore_stims/simple_01_A_b.gif","forced_short","","9","simple_dissimilar","images/stimuli/spore_stims/simple_01_A_b.gif","","","","",""
"","null","html-keyboard-response","116","473203","0.0-27.0-0.4","SS1619205771711","","","null","","","","","","<p><img src= images/blank.png width =""600"" height = ""600"" style=""position:fixed;top:50%; left:50%; transform: translate(-50%, -50%); border:5px solid black"">","","","","","","","",""
"","946.9300000000512","sequential-stimulus-presentation-old","117","474656","0.0-27.0-1.4","SS1619205771711","trial","","40","500","1446.9300000000512","images/stimuli/spore_stims/simple_05_A_a.gif","images/stimuli/spore_stims/simple_01_A_b.gif","forced_short","","9","simple_dissimilar","images/stimuli/spore_stims/simple_01_A_b.gif","","","","",""
"","2792.4700000003213","survey-multi-choice","118","477453","0.0-28.0","SS1619205771711","math_question","","","","","","","","","","","","{""Q0"":""14""}","[0]","14","",""
"","null","html-keyboard-response","119","478292","0.0-29.0-0.0","SS1619205771711","","","null","","","","","","<p><img src= images/blank.png width =""600"" height = ""600"" style=""position:fixed;top:50%; left:50%; transform: translate(-50%, -50%); border:5px solid black"">","","","","","","","",""
"","880.2799999993877","sequential-stimulus-presentation-old","120","479678","0.0-29.0-1.0","SS1619205771711","trial","","40","500","1380.2799999993877","images/stimuli/spore_stims/complex_02_A_a.gif","images/stimuli/spore_stims/complex_06_A_b.gif","self_paced","","10","complex_dissimilar","images/stimuli/spore_stims/complex_06_A_b.gif","","","","",""
"","null","html-keyboard-response","121","480849","0.0-29.0-0.1","SS1619205771711","","","null","","","","","","<p><img src= images/blank.png width =""600"" height = ""600"" style=""position:fixed;top:50%; left:50%; transform: translate(-50%, -50%); border:5px solid black"">","","","","","","","",""
"","7676.059999999765","sequential-stimulus-presentation-old","122","489030","0.0-29.0-1.1","SS1619205771711","trial","","40","500","8176.059999999765","images/stimuli/spore_stims/complex_02_A_a.gif","images/stimuli/spore_stims/complex_06_A_b.gif","self_paced","","10","complex_dissimilar","images/stimuli/spore_stims/complex_06_A_b.gif","","","","",""
"","null","html-keyboard-response","123","490171","0.0-29.0-0.2","SS1619205771711","","","null","","","","","","<p><img src= images/blank.png width =""600"" height = ""600"" style=""position:fixed;top:50%; left:50%; transform: translate(-50%, -50%); border:5px solid black"">","","","","","","","",""
"","8155.704999999201","sequential-stimulus-presentation-old","124","498832","0.0-29.0-1.2","SS1619205771711","trial","","40","500","8655.704999999201","images/stimuli/spore_stims/complex_02_A_a.gif","images/stimuli/spore_stims/complex_06_A_b.gif","self_paced","","10","complex_dissimilar","images/stimuli/spore_stims/complex_06_A_b.gif","","","","",""
"","null","html-keyboard-response","125","500143","0.0-29.0-0.3","SS1619205771711","","","null","","","","","","<p><img src= images/blank.png width =""600"" height = ""600"" style=""position:fixed;top:50%; left:50%; transform: translate(-50%, -50%); border:5px solid black"">","","","","","","","",""
"","3124.7899999998626","sequential-stimulus-presentation-old","126","503774","0.0-29.0-1.3","SS1619205771711","trial","","40","500","3624.7899999998626","images/stimuli/spore_stims/complex_02_A_a.gif","images/stimuli/spore_stims/complex_06_A_b.gif","self_paced","","10","complex_dissimilar","images/stimuli/spore_stims/complex_06_A_b.gif","","","","",""
"","1697.0499999988824","survey-multi-choice","127","505474","0.0-30.0","SS1619205771711","math_question","","","","","","","","","","","","{""Q0"":""9""}","[0]","9","",""
"","null","html-keyboard-response","128","506363","0.0-31.0-0.0","SS1619205771711","","","null","","","","","","<p><img src= images/blank.png width =""600"" height = ""600"" style=""position:fixed;top:50%; left:50%; transform: translate(-50%, -50%); border:5px solid black"">","","","","","","","",""
"","229.21999999927357","sequential-stimulus-presentation-old","129","516597","0.0-31.0-1.0","SS1619205771711","trial","","40","500","729.2199999992736","images/stimuli/spore_stims/complex_04_A_b.gif","images/stimuli/spore_stims/complex_06_A_a.gif","forced_long","","11","complex_dissimilar","images/stimuli/spore_stims/complex_06_A_a.gif","","","","",""
"","null","html-keyboard-response","130","517772","0.0-31.0-0.1","SS1619205771711","","","null","","","","","","<p><img src= images/blank.png width =""600"" height = ""600"" style=""position:fixed;top:50%; left:50%; transform: translate(-50%, -50%); border:5px solid black"">","","","","","","","",""
"","824.3550000006799","sequential-stimulus-presentation-old","131","519101","0.0-31.0-1.1","SS1619205771711","trial","","40","500","1324.3550000006799","images/stimuli/spore_stims/complex_04_A_b.gif","images/stimuli/spore_stims/complex_06_A_a.gif","forced_long","","11","complex_dissimilar","images/stimuli/spore_stims/complex_06_A_a.gif","","","","",""
"","null","html-keyboard-response","132","519992","0.0-31.0-0.2","SS1619205771711","","","null","","","","","","<p><img src= images/blank.png width =""600"" height = ""600"" style=""position:fixed;top:50%; left:50%; transform: translate(-50%, -50%); border:5px solid black"">","","","","","","","",""
"","2622.6350000015227","sequential-stimulus-presentation-old","133","523117","0.0-31.0-1.2","SS1619205771711","trial","","40","500","3122.6350000015227","images/stimuli/spore_stims/complex_04_A_b.gif","images/stimuli/spore_stims/complex_06_A_a.gif","forced_long","","11","complex_dissimilar","images/stimuli/spore_stims/complex_06_A_a.gif","","","","",""
"","null","html-keyboard-response","134","524264","0.0-31.0-0.3","SS1619205771711","","","null","","","","","","<p><img src= images/blank.png width =""600"" height = ""600"" style=""position:fixed;top:50%; left:50%; transform: translate(-50%, -50%); border:5px solid black"">","","","","","","","",""
"","585.4349999990081","sequential-stimulus-presentation-old","135","525354","0.0-31.0-1.3","SS1619205771711","trial","","40","500","1085.4349999990081","images/stimuli/spore_stims/complex_04_A_b.gif","images/stimuli/spore_stims/complex_06_A_a.gif","forced_long","","11","complex_dissimilar","images/stimuli/spore_stims/complex_06_A_a.gif","","","","",""
"","null","html-keyboard-response","136","526156","0.0-31.0-0.4","SS1619205771711","","","null","","","","","","<p><img src= images/blank.png width =""600"" height = ""600"" style=""position:fixed;top:50%; left:50%; transform: translate(-50%, -50%); border:5px solid black"">","","","","","","","",""
"","668.5400000005029","sequential-stimulus-presentation-old","137","527328","0.0-31.0-1.4","SS1619205771711","trial","","40","500","1168.540000000503","images/stimuli/spore_stims/complex_04_A_b.gif","images/stimuli/spore_stims/complex_06_A_a.gif","forced_long","","11","complex_dissimilar","images/stimuli/spore_stims/complex_06_A_a.gif","","","","",""
"","null","html-keyboard-response","138","528232","0.0-31.0-0.5","SS1619205771711","","","null","","","","","","<p><img src= images/blank.png width =""600"" height = ""600"" style=""position:fixed;top:50%; left:50%; transform: translate(-50%, -50%); border:5px solid black"">","","","","","","","",""
"","1157.9849999997532","sequential-stimulus-presentation-old","139","529896","0.0-31.0-1.5","SS1619205771711","trial","","40","500","1657.9849999997532","images/stimuli/spore_stims/complex_04_A_b.gif","images/stimuli/spore_stims/complex_06_A_a.gif","forced_long","","11","complex_dissimilar","images/stimuli/spore_stims/complex_06_A_a.gif","","","","",""
"[{""page_index"":0,""viewing_time"":4360.1400000007125}]","4360.640000000829","instructions","140","534259","0.0-32.0","SS1619205771711","instructions","","","","","","","","","","","","","","","",""
"","13609.145000000368","survey-likert","141","547872","0.0-33.0","SS1619205771711","similarity_question","","","","","","","","","","","","{""Q0"":1}","[0]","","images/stimuli/spore_stims/complex_04_A_b.gif","images/stimuli/spore_stims/complex_06_A_a.gif"
"","5003.37499999837","survey-likert","142","552878","0.0-34.0","SS1619205771711","similarity_question","","","","","","","","","","","","{""Q0"":4}","[0]","","images/stimuli/spore_stims/simple_05_A_b.gif","images/stimuli/spore_stims/simple_18_A_a.gif"
"","2874.4299999998184","survey-likert","143","555755","0.0-35.0","SS1619205771711","similarity_question","","","","","","","","","","","","{""Q0"":4}","[0]","","images/stimuli/spore_stims/simple_05_A_a.gif","images/stimuli/spore_stims/simple_01_A_b.gif"
"","2470.4199999995762","survey-likert","144","558229","0.0-36.0","SS1619205771711","similarity_question","","","","","","","","","","","","{""Q0"":4}","[0]","","images/stimuli/spore_stims/simple_13_A_b.gif","images/stimuli/spore_stims/simple_11_A_a.gif"
"","5589.410000000498","survey-likert","145","563821","0.0-37.0","SS1619205771711","similarity_question","","","","","","","","","","","","{""Q0"":1}","[0]","","images/stimuli/spore_stims/complex_07_A_b.gif","images/stimuli/spore_stims/complex_10_A_a.gif"
"","6834.1900000014575","survey-likert","146","570658","0.0-38.0","SS1619205771711","similarity_question","","","","","","","","","","","","{""Q0"":2}","[0]","","images/stimuli/spore_stims/complex_08_A_b.gif","images/stimuli/spore_stims/complex_14_A_a.gif"
"","3639.124999999767","survey-likert","147","574300","0.0-39.0","SS1619205771711","similarity_question","","","","","","","","","","","","{""Q0"":4}","[0]","","images/stimuli/spore_stims/complex_13_A_b.gif","images/stimuli/spore_stims/complex_18_A_a.gif"
"","2204.265000000363","survey-likert","148","576507","0.0-40.0","SS1619205771711","similarity_question","","","","","","","","","","","","{""Q0"":4}","[0]","","images/stimuli/spore_stims/simple_19_A_a.gif","images/stimuli/spore_stims/simple_06_A_b.gif"
"","3927.8050000012154","survey-likert","149","580439","0.0-41.0","SS1619205771711","similarity_question","","","","","","","","","","","","{""Q0"":1}","[0]","","images/stimuli/spore_stims/complex_05_A_a.gif","images/stimuli/spore_stims/complex_19_A_b.gif"
"","2530.1450000006007","survey-likert","150","582972","0.0-42.0","SS1619205771711","similarity_question","","","","","","","","","","","","{""Q0"":5}","[0]","","images/stimuli/spore_stims/simple_20_A_a.gif","images/stimuli/spore_stims/simple_03_A_b.gif"
"","7202.505000001052","survey-likert","151","590179","0.0-43.0","SS1619205771711","similarity_question","","","","","","","","","","","","{""Q0"":4}","[0]","","images/stimuli/spore_stims/complex_06_A_b.gif","images/stimuli/spore_stims/complex_02_A_a.gif"
"","2915.559999999474","survey-likert","152","593099","0.0-44.0","SS1619205771711","similarity_question","","","","","","","","","","","","{""Q0"":5}","[0]","","images/stimuli/spore_stims/simple_14_A_b.gif","images/stimuli/spore_stims/simple_06_A_a.gif"
"[{""page_index"":0,""viewing_time"":4629.129999999306}]","4629.349999999278","instructions","153","597732","0.0-45.0","SS1619205771711","instructions","","","","","","","","","","","","","","","",""
"","4370.574999999022","survey-likert","154","602104","0.0-46.0","SS1619205771711","","","","","","","","","images/stimuli/spore_stims/simple_05_A_a.gif","","","","{""Q0"":0}","[0]","","",""
"","7112.264999999781","survey-likert","155","609219","0.0-47.0","SS1619205771711","","","","","","","","","images/stimuli/spore_stims/complex_13_A_b.gif","","","","{""Q0"":5}","[0]","","",""
"","10291.965000000317","survey-likert","156","619515","0.0-48.0","SS1619205771711","","","","","","","","","images/stimuli/spore_stims/complex_04_A_b.gif","","","","{""Q0"":4}","[0]","","",""
"","1940.9850000011502","survey-likert","157","621459","0.0-49.0","SS1619205771711","","","","","","","","","images/stimuli/spore_stims/complex_06_A_b.gif","","","","{""Q0"":3}","[0]","","",""
"","2831.4600000012433","survey-likert","158","624293","0.0-50.0","SS1619205771711","","","","","","","","","images/stimuli/spore_stims/complex_10_A_a.gif","","","","{""Q0"":3}","[0]","","",""
"","1833.0850000001956","survey-likert","159","626129","0.0-51.0","SS1619205771711","","","","","","","","","images/stimuli/spore_stims/simple_03_A_b.gif","","","","{""Q0"":0}","[0]","","",""
"","1564.1649999998044","survey-likert","160","627696","0.0-52.0","SS1619205771711","","","","","","","","","images/stimuli/spore_stims/simple_06_A_b.gif","","","","{""Q0"":0}","[0]","","",""
"","2444.104999998701","survey-likert","161","630143","0.0-53.0","SS1619205771711","","","","","","","","","images/stimuli/spore_stims/complex_05_A_a.gif","","","","{""Q0"":5}","[0]","","",""
"","2513.194999999483","survey-likert","162","632659","0.0-54.0","SS1619205771711","","","","","","","","","images/stimuli/spore_stims/simple_06_A_a.gif","","","","{""Q0"":0}","[0]","","",""
"","3572.544999998994","survey-likert","163","636234","0.0-55.0","SS1619205771711","","","","","","","","","images/stimuli/spore_stims/complex_08_A_b.gif","","","","{""Q0"":5}","[0]","","",""
"","1671.5999999996275","survey-likert","164","637909","0.0-56.0","SS1619205771711","","","","","","","","","images/stimuli/spore_stims/simple_05_A_b.gif","","","","{""Q0"":0}","[0]","","",""
"","1741.6699999994598","survey-likert","165","639653","0.0-57.0","SS1619205771711","","","","","","","","","images/stimuli/spore_stims/simple_11_A_a.gif","","","","{""Q0"":1}","[0]","","",""
"[{""page_index"":0,""viewing_time"":1465.9449999998324}]","1466.119999999064","instructions","166","641122","0.0-58.0","SS1619205771711","instructions","","","","","","","","","","","","","","","",""
"","1930.2050000006566","demog-age","167","643056","0.0-59.0","SS1619205771711","","","","","","","","","","","","","{""age"":""27""}","","","",""
"","20991.505000000005","demog-ethnic-US","168","664052","0.0-60.0","SS1619205771711","","","","","","","","","","","","","{""ethnicity"":[""Hispanic or Latino"",""White""]}","[0]","","",""
"","8846.064999999828","demog-gender-and-education","169","672902","0.0-61.0","SS1619205771711","","","","","","","","","","","","","{""gender"":""Male"",""education"":""Bachelor's Degree""}","[0,1]","","",""
"","18996.010000000708","survey-text","170","691903","0.0-62.0","SS1619205771711","feedback","","","","","","","","","","","","{""Q0"":""Some times i tried go to the next image and it was laggy""}","","","",""
"[{""page_index"":0,""viewing_time"":2561.09500000102}]","2561.2750000000233","instructions","171","694466","0.0-63.0","SS1619205771711","instructions","","","","","","","","","","","","","","","",""
