"view_history","rt","trial_type","trial_index","time_elapsed","internal_node_id","subject","stimulus_type","trial_stimulus","key_press","minimum_viewing_duration","trial_looking_time","block_deviant","block_background","exposure_type","stimulus","block_number","block_type","stimulus_displayed","responses","question_order","math_correct_answer","stimulus_left","stimulus_right"
"[{""page_index"":0,""viewing_time"":9397.909999999683}]","9399.149999999281","instructions","0","9400","0.0-0.0","SS1619205453890","","","","","","","","","","","","","","","","",""
"[{""page_index"":0,""viewing_time"":14091.800000000148},{""page_index"":1,""viewing_time"":6921.654999998282}]","21013.849999999366","instructions","1","32417","0.0-1.0","SS1619205453890","instructions","","","","","","","","","","","","","","","",""
"","5960.589999998774","sequential-stimulus-presentation-old","2","38881","0.0-2.0","SS1619205453890","","","40","500","6460.589999998774","null","null","self_paced","","","","","","","","",""
"","4027.190000000701","sequential-stimulus-presentation-old","3","43411","0.0-3.0","SS1619205453890","","","40","500","4527.190000000701","null","null","self_paced","","","","","","","","",""
"[{""page_index"":0,""viewing_time"":16054.330000000846}]","16054.775000000518","instructions","4","59467","0.0-4.0","SS1619205453890","instructions","","","","","","","","","","","","","","","",""
"","1794.2949999996927","sequential-stimulus-presentation-old","5","71264","0.0-5.0","SS1619205453890","","","40","500","2294.2949999996927","null","null","forced_long","","","","","","","","",""
"","3048.719999998866","sequential-stimulus-presentation-old","6","74415","0.0-6.0","SS1619205453890","","","40","500","3548.719999998866","null","null","forced_long","","","","","","","","",""
"[{""page_index"":0,""viewing_time"":3835.284999999203}]","3835.675000000265","instructions","7","78252","0.0-7.0","SS1619205453890","instructions","","","","","","","","","","","","","","","",""
"[{""page_index"":0,""viewing_time"":9336.229999998977},{""page_index"":1,""viewing_time"":8428.330000000642},{""page_index"":2,""viewing_time"":5981.439999999566},{""page_index"":3,""viewing_time"":1307.795000000624},{""page_index"":4,""viewing_time"":1668.3450000000448}]","26722.51999999935","instructions","8","104976","0.0-8.0","SS1619205453890","instructions","","","","","","","","","","","","","","","",""
"","null","html-keyboard-response","9","105956","0.0-9.0-0.0","SS1619205453890","","","null","","","","","","<p><img src= images/blank.png width =""600"" height = ""600"" style=""position:fixed;top:50%; left:50%; transform: translate(-50%, -50%); border:5px solid black"">","","","","","","","",""
"","3151.510000001508","sequential-stimulus-presentation-old","10","109211","0.0-9.0-1.0","SS1619205453890","trial","","40","500","3651.510000001508","images/stimuli/spore_stims/simple_05_A_a.gif","images/stimuli/spore_stims/simple_03_A_b.gif","forced_short","","0","simple_dissimilar","images/stimuli/spore_stims/simple_03_A_b.gif","","","","",""
"","null","html-keyboard-response","11","110397","0.0-9.0-0.1","SS1619205453890","","","null","","","","","","<p><img src= images/blank.png width =""600"" height = ""600"" style=""position:fixed;top:50%; left:50%; transform: translate(-50%, -50%); border:5px solid black"">","","","","","","","",""
"","6156.245000000126","sequential-stimulus-presentation-old","12","117057","0.0-9.0-1.1","SS1619205453890","trial","","40","500","6656.245000000126","images/stimuli/spore_stims/simple_05_A_a.gif","images/stimuli/spore_stims/simple_03_A_b.gif","forced_short","","0","simple_dissimilar","images/stimuli/spore_stims/simple_03_A_b.gif","","","","",""
"","null","html-keyboard-response","13","118092","0.0-9.0-0.2","SS1619205453890","","","null","","","","","","<p><img src= images/blank.png width =""600"" height = ""600"" style=""position:fixed;top:50%; left:50%; transform: translate(-50%, -50%); border:5px solid black"">","","","","","","","",""
"","2367.0449999990524","sequential-stimulus-presentation-old","14","120963","0.0-9.0-1.2","SS1619205453890","trial","","40","500","2867.0449999990524","images/stimuli/spore_stims/simple_05_A_a.gif","images/stimuli/spore_stims/simple_03_A_b.gif","forced_short","","0","simple_dissimilar","images/stimuli/spore_stims/simple_03_A_b.gif","","","","",""
"","null","html-keyboard-response","15","121782","0.0-9.0-0.3","SS1619205453890","","","null","","","","","","<p><img src= images/blank.png width =""600"" height = ""600"" style=""position:fixed;top:50%; left:50%; transform: translate(-50%, -50%); border:5px solid black"">","","","","","","","",""
"","1329.5150000012654","sequential-stimulus-presentation-old","16","123615","0.0-9.0-1.3","SS1619205453890","trial","","40","500","1829.5150000012654","images/stimuli/spore_stims/simple_05_A_a.gif","images/stimuli/spore_stims/simple_03_A_b.gif","forced_short","","0","simple_dissimilar","images/stimuli/spore_stims/simple_03_A_b.gif","","","","",""
"","null","html-keyboard-response","17","124803","0.0-9.0-0.4","SS1619205453890","","","null","","","","","","<p><img src= images/blank.png width =""600"" height = ""600"" style=""position:fixed;top:50%; left:50%; transform: translate(-50%, -50%); border:5px solid black"">","","","","","","","",""
"","3912.650000000227","sequential-stimulus-presentation-old","18","129219","0.0-9.0-1.4","SS1619205453890","trial","","40","500","4412.650000000227","images/stimuli/spore_stims/simple_05_A_a.gif","images/stimuli/spore_stims/simple_03_A_b.gif","forced_short","","0","simple_dissimilar","images/stimuli/spore_stims/simple_03_A_b.gif","","","","",""
"","null","html-keyboard-response","19","130450","0.0-9.0-0.5","SS1619205453890","","","null","","","","","","<p><img src= images/blank.png width =""600"" height = ""600"" style=""position:fixed;top:50%; left:50%; transform: translate(-50%, -50%); border:5px solid black"">","","","","","","","",""
"","807.3850000000675","sequential-stimulus-presentation-old","20","131761","0.0-9.0-1.5","SS1619205453890","trial","","40","500","1307.3850000000675","images/stimuli/spore_stims/simple_05_A_a.gif","images/stimuli/spore_stims/simple_03_A_b.gif","forced_short","","0","simple_dissimilar","images/stimuli/spore_stims/simple_03_A_b.gif","","","","",""
"","3624.7949999997218","survey-multi-choice","21","135389","0.0-10.0","SS1619205453890","math_question","","","","","","","","","","","","{""Q0"":""9""}","[0]","9","",""
"","null","html-keyboard-response","22","136681","0.0-11.0-0.0","SS1619205453890","","","null","","","","","","<p><img src= images/blank.png width =""600"" height = ""600"" style=""position:fixed;top:50%; left:50%; transform: translate(-50%, -50%); border:5px solid black"">","","","","","","","",""
"","1833.3800000000629","sequential-stimulus-presentation-old","23","148517","0.0-11.0-1.0","SS1619205453890","trial","","40","500","2333.380000000063","images/stimuli/spore_stims/complex_03_A_b.gif","images/stimuli/spore_stims/complex_05_A_a.gif","forced_long","","1","complex_dissimilar","images/stimuli/spore_stims/complex_05_A_a.gif","","","","",""
"","null","html-keyboard-response","24","149536","0.0-11.0-0.1","SS1619205453890","","","null","","","","","","<p><img src= images/blank.png width =""600"" height = ""600"" style=""position:fixed;top:50%; left:50%; transform: translate(-50%, -50%); border:5px solid black"">","","","","","","","",""
"","1025.1899999984598","sequential-stimulus-presentation-old","25","151065","0.0-11.0-1.1","SS1619205453890","trial","","40","500","1525.1899999984598","images/stimuli/spore_stims/complex_03_A_b.gif","images/stimuli/spore_stims/complex_05_A_a.gif","forced_long","","1","complex_dissimilar","images/stimuli/spore_stims/complex_05_A_a.gif","","","","",""
"","null","html-keyboard-response","26","152331","0.0-11.0-0.2","SS1619205453890","","","null","","","","","","<p><img src= images/blank.png width =""600"" height = ""600"" style=""position:fixed;top:50%; left:50%; transform: translate(-50%, -50%); border:5px solid black"">","","","","","","","",""
"","666.4000000000815","sequential-stimulus-presentation-old","27","153501","0.0-11.0-1.2","SS1619205453890","trial","","40","500","1166.4000000000815","images/stimuli/spore_stims/complex_03_A_b.gif","images/stimuli/spore_stims/complex_05_A_a.gif","forced_long","","1","complex_dissimilar","images/stimuli/spore_stims/complex_05_A_a.gif","","","","",""
"","null","html-keyboard-response","28","154350","0.0-11.0-0.3","SS1619205453890","","","null","","","","","","<p><img src= images/blank.png width =""600"" height = ""600"" style=""position:fixed;top:50%; left:50%; transform: translate(-50%, -50%); border:5px solid black"">","","","","","","","",""
"","1177.0149999992864","sequential-stimulus-presentation-old","29","156030","0.0-11.0-1.3","SS1619205453890","trial","","40","500","1677.0149999992864","images/stimuli/spore_stims/complex_03_A_b.gif","images/stimuli/spore_stims/complex_05_A_a.gif","forced_long","","1","complex_dissimilar","images/stimuli/spore_stims/complex_05_A_a.gif","","","","",""
"","null","html-keyboard-response","30","157034","0.0-11.0-0.4","SS1619205453890","","","null","","","","","","<p><img src= images/blank.png width =""600"" height = ""600"" style=""position:fixed;top:50%; left:50%; transform: translate(-50%, -50%); border:5px solid black"">","","","","","","","",""
"","372.8150000006135","sequential-stimulus-presentation-old","31","157911","0.0-11.0-1.4","SS1619205453890","trial","","40","500","872.8150000006135","images/stimuli/spore_stims/complex_03_A_b.gif","images/stimuli/spore_stims/complex_05_A_a.gif","forced_long","","1","complex_dissimilar","images/stimuli/spore_stims/complex_05_A_a.gif","","","","",""
"","2934.6699999987322","survey-multi-choice","32","160847","0.0-12.0","SS1619205453890","math_question","","","","","","","","","","","","{""Q0"":""16""}","[0]","16","",""
"","null","html-keyboard-response","33","161797","0.0-13.0-0.0","SS1619205453890","","","null","","","","","","<p><img src= images/blank.png width =""600"" height = ""600"" style=""position:fixed;top:50%; left:50%; transform: translate(-50%, -50%); border:5px solid black"">","","","","","","","",""
"","3353.2749999994994","sequential-stimulus-presentation-old","34","175154","0.0-13.0-1.0","SS1619205453890","trial","","40","500","3853.2749999994994","images/stimuli/spore_stims/simple_18_A_b.gif","images/stimuli/spore_stims/simple_14_A_a.gif","forced_long","","2","simple_dissimilar","images/stimuli/spore_stims/simple_14_A_a.gif","","","","",""
"","null","html-keyboard-response","35","176050","0.0-13.0-0.1","SS1619205453890","","","null","","","","","","<p><img src= images/blank.png width =""600"" height = ""600"" style=""position:fixed;top:50%; left:50%; transform: translate(-50%, -50%); border:5px solid black"">","","","","","","","",""
"","3318.5000000012224","sequential-stimulus-presentation-old","36","179872","0.0-13.0-1.1","SS1619205453890","trial","","40","500","3818.5000000012224","images/stimuli/spore_stims/simple_18_A_b.gif","images/stimuli/spore_stims/simple_14_A_a.gif","forced_long","","2","simple_dissimilar","images/stimuli/spore_stims/simple_14_A_a.gif","","","","",""
"","null","html-keyboard-response","37","180767","0.0-13.0-0.2","SS1619205453890","","","null","","","","","","<p><img src= images/blank.png width =""600"" height = ""600"" style=""position:fixed;top:50%; left:50%; transform: translate(-50%, -50%); border:5px solid black"">","","","","","","","",""
"","4930.505000000267","sequential-stimulus-presentation-old","38","186201","0.0-13.0-1.2","SS1619205453890","trial","","40","500","5430.505000000267","images/stimuli/spore_stims/simple_18_A_b.gif","images/stimuli/spore_stims/simple_14_A_a.gif","forced_long","","2","simple_dissimilar","images/stimuli/spore_stims/simple_14_A_a.gif","","","","",""
"","null","html-keyboard-response","39","187021","0.0-13.0-0.3","SS1619205453890","","","null","","","","","","<p><img src= images/blank.png width =""600"" height = ""600"" style=""position:fixed;top:50%; left:50%; transform: translate(-50%, -50%); border:5px solid black"">","","","","","","","",""
"","3484.579999998474","sequential-stimulus-presentation-old","40","191010","0.0-13.0-1.3","SS1619205453890","trial","","40","500","3984.579999998474","images/stimuli/spore_stims/simple_18_A_b.gif","images/stimuli/spore_stims/simple_14_A_a.gif","forced_long","","2","simple_dissimilar","images/stimuli/spore_stims/simple_14_A_a.gif","","","","",""
"","null","html-keyboard-response","41","192070","0.0-13.0-0.4","SS1619205453890","","","null","","","","","","<p><img src= images/blank.png width =""600"" height = ""600"" style=""position:fixed;top:50%; left:50%; transform: translate(-50%, -50%); border:5px solid black"">","","","","","","","",""
"","2274.9000000003434","sequential-stimulus-presentation-old","42","194849","0.0-13.0-1.4","SS1619205453890","trial","","40","500","2774.9000000003434","images/stimuli/spore_stims/simple_18_A_b.gif","images/stimuli/spore_stims/simple_14_A_a.gif","forced_long","","2","simple_dissimilar","images/stimuli/spore_stims/simple_14_A_a.gif","","","","",""
"","null","html-keyboard-response","43","195733","0.0-13.0-0.5","SS1619205453890","","","null","","","","","","<p><img src= images/blank.png width =""600"" height = ""600"" style=""position:fixed;top:50%; left:50%; transform: translate(-50%, -50%); border:5px solid black"">","","","","","","","",""
"","28521.985000001237","sequential-stimulus-presentation-old","44","224760","0.0-13.0-1.5","SS1619205453890","trial","","40","500","29021.985000001237","images/stimuli/spore_stims/simple_18_A_b.gif","images/stimuli/spore_stims/simple_14_A_a.gif","forced_long","","2","simple_dissimilar","images/stimuli/spore_stims/simple_14_A_a.gif","","","","",""
"","2199.899999999616","survey-multi-choice","45","226961","0.0-14.0","SS1619205453890","math_question","","","","","","","","","","","","{""Q0"":""8""}","[0]","8","",""
"","null","html-keyboard-response","46","227940","0.0-15.0-0.0","SS1619205453890","","","null","","","","","","<p><img src= images/blank.png width =""600"" height = ""600"" style=""position:fixed;top:50%; left:50%; transform: translate(-50%, -50%); border:5px solid black"">","","","","","","","",""
"","2157.0449999999255","sequential-stimulus-presentation-old","47","230202","0.0-15.0-1.0","SS1619205453890","trial","","40","500","2657.0449999999255","images/stimuli/spore_stims/simple_02_A_a.gif","images/stimuli/spore_stims/simple_13_A_b.gif","forced_short","","3","simple_dissimilar","images/stimuli/spore_stims/simple_13_A_b.gif","","","","",""
"","null","html-keyboard-response","48","231299","0.0-15.0-0.1","SS1619205453890","","","null","","","","","","<p><img src= images/blank.png width =""600"" height = ""600"" style=""position:fixed;top:50%; left:50%; transform: translate(-50%, -50%); border:5px solid black"">","","","","","","","",""
"","1932.039999999688","sequential-stimulus-presentation-old","49","233737","0.0-15.0-1.1","SS1619205453890","trial","","40","500","2432.039999999688","images/stimuli/spore_stims/simple_02_A_a.gif","images/stimuli/spore_stims/simple_13_A_b.gif","forced_short","","3","simple_dissimilar","images/stimuli/spore_stims/simple_13_A_b.gif","","","","",""
"","null","html-keyboard-response","50","234960","0.0-15.0-0.2","SS1619205453890","","","null","","","","","","<p><img src= images/blank.png width =""600"" height = ""600"" style=""position:fixed;top:50%; left:50%; transform: translate(-50%, -50%); border:5px solid black"">","","","","","","","",""
"","2702.4549999987357","sequential-stimulus-presentation-old","51","238171","0.0-15.0-1.2","SS1619205453890","trial","","40","500","3202.4549999987357","images/stimuli/spore_stims/simple_02_A_a.gif","images/stimuli/spore_stims/simple_13_A_b.gif","forced_short","","3","simple_dissimilar","images/stimuli/spore_stims/simple_02_A_a.gif","","","","",""
"","null","html-keyboard-response","52","239354","0.0-15.0-0.3","SS1619205453890","","","null","","","","","","<p><img src= images/blank.png width =""600"" height = ""600"" style=""position:fixed;top:50%; left:50%; transform: translate(-50%, -50%); border:5px solid black"">","","","","","","","",""
"","825.8699999987439","sequential-stimulus-presentation-old","53","240683","0.0-15.0-1.3","SS1619205453890","trial","","40","500","1325.8699999987439","images/stimuli/spore_stims/simple_02_A_a.gif","images/stimuli/spore_stims/simple_13_A_b.gif","forced_short","","3","simple_dissimilar","images/stimuli/spore_stims/simple_02_A_a.gif","","","","",""
"","null","html-keyboard-response","54","241705","0.0-15.0-0.4","SS1619205453890","","","null","","","","","","<p><img src= images/blank.png width =""600"" height = ""600"" style=""position:fixed;top:50%; left:50%; transform: translate(-50%, -50%); border:5px solid black"">","","","","","","","",""
"","453.48999999987427","sequential-stimulus-presentation-old","55","242662","0.0-15.0-1.4","SS1619205453890","trial","","40","500","953.4899999998743","images/stimuli/spore_stims/simple_02_A_a.gif","images/stimuli/spore_stims/simple_13_A_b.gif","forced_short","","3","simple_dissimilar","images/stimuli/spore_stims/simple_13_A_b.gif","","","","",""
"","null","html-keyboard-response","56","243731","0.0-15.0-0.5","SS1619205453890","","","null","","","","","","<p><img src= images/blank.png width =""600"" height = ""600"" style=""position:fixed;top:50%; left:50%; transform: translate(-50%, -50%); border:5px solid black"">","","","","","","","",""
"","902.514999999752","sequential-stimulus-presentation-old","57","245137","0.0-15.0-1.5","SS1619205453890","trial","","40","500","1402.514999999752","images/stimuli/spore_stims/simple_02_A_a.gif","images/stimuli/spore_stims/simple_13_A_b.gif","forced_short","","3","simple_dissimilar","images/stimuli/spore_stims/simple_13_A_b.gif","","","","",""
"","1947.4449999998033","survey-multi-choice","58","247087","0.0-16.0","SS1619205453890","math_question","","","","","","","","","","","","{""Q0"":""9""}","[0]","9","",""
"","null","html-keyboard-response","59","248017","0.0-17.0-0.0","SS1619205453890","","","null","","","","","","<p><img src= images/blank.png width =""600"" height = ""600"" style=""position:fixed;top:50%; left:50%; transform: translate(-50%, -50%); border:5px solid black"">","","","","","","","",""
"","1735.1699999999255","sequential-stimulus-presentation-old","60","259758","0.0-17.0-1.0","SS1619205453890","trial","","40","500","2235.1699999999255","images/stimuli/spore_stims/simple_10_A_b.gif","images/stimuli/spore_stims/simple_20_A_a.gif","forced_long","","4","simple_dissimilar","images/stimuli/spore_stims/simple_20_A_a.gif","","","","",""
"","null","html-keyboard-response","61","261028","0.0-17.0-0.1","SS1619205453890","","","null","","","","","","<p><img src= images/blank.png width =""600"" height = ""600"" style=""position:fixed;top:50%; left:50%; transform: translate(-50%, -50%); border:5px solid black"">","","","","","","","",""
"","13187.239999999292","sequential-stimulus-presentation-old","62","274719","0.0-17.0-1.1","SS1619205453890","trial","","40","500","13687.239999999292","images/stimuli/spore_stims/simple_10_A_b.gif","images/stimuli/spore_stims/simple_20_A_a.gif","forced_long","","4","simple_dissimilar","images/stimuli/spore_stims/simple_20_A_a.gif","","","","",""
"","null","html-keyboard-response","63","275806","0.0-17.0-0.2","SS1619205453890","","","null","","","","","","<p><img src= images/blank.png width =""600"" height = ""600"" style=""position:fixed;top:50%; left:50%; transform: translate(-50%, -50%); border:5px solid black"">","","","","","","","",""
"","5330.905000000726","sequential-stimulus-presentation-old","64","281641","0.0-17.0-1.2","SS1619205453890","trial","","40","500","5830.905000000726","images/stimuli/spore_stims/simple_10_A_b.gif","images/stimuli/spore_stims/simple_20_A_a.gif","forced_long","","4","simple_dissimilar","images/stimuli/spore_stims/simple_20_A_a.gif","","","","",""
"","null","html-keyboard-response","65","282549","0.0-17.0-0.3","SS1619205453890","","","null","","","","","","<p><img src= images/blank.png width =""600"" height = ""600"" style=""position:fixed;top:50%; left:50%; transform: translate(-50%, -50%); border:5px solid black"">","","","","","","","",""
"","104.09999999869615","sequential-stimulus-presentation-old","66","283156","0.0-17.0-1.3","SS1619205453890","trial","","40","500","604.0999999986961","images/stimuli/spore_stims/simple_10_A_b.gif","images/stimuli/spore_stims/simple_20_A_a.gif","forced_long","","4","simple_dissimilar","images/stimuli/spore_stims/simple_20_A_a.gif","","","","",""
"","2762.704999999143","survey-multi-choice","67","285922","0.0-18.0","SS1619205453890","math_question","","","","","","","","","","","","{""Q0"":""12""}","[0]","12","",""
"","null","html-keyboard-response","68","287210","0.0-19.0-0.0","SS1619205453890","","","null","","","","","","<p><img src= images/blank.png width =""600"" height = ""600"" style=""position:fixed;top:50%; left:50%; transform: translate(-50%, -50%); border:5px solid black"">","","","","","","","",""
"","8905.98000000132","sequential-stimulus-presentation-old","69","306121","0.0-19.0-1.0","SS1619205453890","trial","","40","500","9405.98000000132","images/stimuli/spore_stims/complex_12_A_a.gif","images/stimuli/spore_stims/complex_18_A_b.gif","forced_long","","5","complex_dissimilar","images/stimuli/spore_stims/complex_18_A_b.gif","","","","",""
"","null","html-keyboard-response","70","307136","0.0-19.0-0.1","SS1619205453890","","","null","","","","","","<p><img src= images/blank.png width =""600"" height = ""600"" style=""position:fixed;top:50%; left:50%; transform: translate(-50%, -50%); border:5px solid black"">","","","","","","","",""
"","11209.335000001418","sequential-stimulus-presentation-old","71","318850","0.0-19.0-1.1","SS1619205453890","trial","","40","500","11709.335000001418","images/stimuli/spore_stims/complex_12_A_a.gif","images/stimuli/spore_stims/complex_18_A_b.gif","forced_long","","5","complex_dissimilar","images/stimuli/spore_stims/complex_18_A_b.gif","","","","",""
"","null","html-keyboard-response","72","319823","0.0-19.0-0.2","SS1619205453890","","","null","","","","","","<p><img src= images/blank.png width =""600"" height = ""600"" style=""position:fixed;top:50%; left:50%; transform: translate(-50%, -50%); border:5px solid black"">","","","","","","","",""
"","3911.995000000403","sequential-stimulus-presentation-old","73","324240","0.0-19.0-1.2","SS1619205453890","trial","","40","500","4411.995000000403","images/stimuli/spore_stims/complex_12_A_a.gif","images/stimuli/spore_stims/complex_18_A_b.gif","forced_long","","5","complex_dissimilar","images/stimuli/spore_stims/complex_12_A_a.gif","","","","",""
"","null","html-keyboard-response","74","325193","0.0-19.0-0.3","SS1619205453890","","","null","","","","","","<p><img src= images/blank.png width =""600"" height = ""600"" style=""position:fixed;top:50%; left:50%; transform: translate(-50%, -50%); border:5px solid black"">","","","","","","","",""
"","1101.0049999986659","sequential-stimulus-presentation-old","75","326798","0.0-19.0-1.3","SS1619205453890","trial","","40","500","1601.0049999986659","images/stimuli/spore_stims/complex_12_A_a.gif","images/stimuli/spore_stims/complex_18_A_b.gif","forced_long","","5","complex_dissimilar","images/stimuli/spore_stims/complex_12_A_a.gif","","","","",""
"","8311.96499999892","survey-multi-choice","76","335112","0.0-20.0","SS1619205453890","math_question","","","","","","","","","","","","{""Q0"":""8""}","[0]","8","",""
"","null","html-keyboard-response","77","336035","0.0-21.0-0.0","SS1619205453890","","","null","","","","","","<p><img src= images/blank.png width =""600"" height = ""600"" style=""position:fixed;top:50%; left:50%; transform: translate(-50%, -50%); border:5px solid black"">","","","","","","","",""
"","1543.2000000000698","sequential-stimulus-presentation-old","78","338082","0.0-21.0-1.0","SS1619205453890","trial","","40","500","2043.2000000000698","images/stimuli/spore_stims/complex_07_A_b.gif","images/stimuli/spore_stims/complex_02_A_a.gif","self_paced","","6","complex_dissimilar","images/stimuli/spore_stims/complex_02_A_a.gif","","","","",""
"","null","html-keyboard-response","79","338905","0.0-21.0-0.1","SS1619205453890","","","null","","","","","","<p><img src= images/blank.png width =""600"" height = ""600"" style=""position:fixed;top:50%; left:50%; transform: translate(-50%, -50%); border:5px solid black"">","","","","","","","",""
"","2250.519999999611","sequential-stimulus-presentation-old","80","341659","0.0-21.0-1.1","SS1619205453890","trial","","40","500","2750.519999999611","images/stimuli/spore_stims/complex_07_A_b.gif","images/stimuli/spore_stims/complex_02_A_a.gif","self_paced","","6","complex_dissimilar","images/stimuli/spore_stims/complex_02_A_a.gif","","","","",""
"","null","html-keyboard-response","81","342636","0.0-21.0-0.2","SS1619205453890","","","null","","","","","","<p><img src= images/blank.png width =""600"" height = ""600"" style=""position:fixed;top:50%; left:50%; transform: translate(-50%, -50%); border:5px solid black"">","","","","","","","",""
"","1946.9850000004517","sequential-stimulus-presentation-old","82","345091","0.0-21.0-1.2","SS1619205453890","trial","","40","500","2446.9850000004517","images/stimuli/spore_stims/complex_07_A_b.gif","images/stimuli/spore_stims/complex_02_A_a.gif","self_paced","","6","complex_dissimilar","images/stimuli/spore_stims/complex_02_A_a.gif","","","","",""
"","null","html-keyboard-response","83","346044","0.0-21.0-0.3","SS1619205453890","","","null","","","","","","<p><img src= images/blank.png width =""600"" height = ""600"" style=""position:fixed;top:50%; left:50%; transform: translate(-50%, -50%); border:5px solid black"">","","","","","","","",""
"","6365.349999999977","sequential-stimulus-presentation-old","84","352914","0.0-21.0-1.3","SS1619205453890","trial","","40","500","6865.349999999977","images/stimuli/spore_stims/complex_07_A_b.gif","images/stimuli/spore_stims/complex_02_A_a.gif","self_paced","","6","complex_dissimilar","images/stimuli/spore_stims/complex_02_A_a.gif","","","","",""
"","null","html-keyboard-response","85","353775","0.0-21.0-0.4","SS1619205453890","","","null","","","","","","<p><img src= images/blank.png width =""600"" height = ""600"" style=""position:fixed;top:50%; left:50%; transform: translate(-50%, -50%); border:5px solid black"">","","","","","","","",""
"","7912.135000000533","sequential-stimulus-presentation-old","86","362193","0.0-21.0-1.4","SS1619205453890","trial","","40","500","8412.135000000533","images/stimuli/spore_stims/complex_07_A_b.gif","images/stimuli/spore_stims/complex_02_A_a.gif","self_paced","","6","complex_dissimilar","images/stimuli/spore_stims/complex_02_A_a.gif","","","","",""
"","null","html-keyboard-response","87","363165","0.0-21.0-0.5","SS1619205453890","","","null","","","","","","<p><img src= images/blank.png width =""600"" height = ""600"" style=""position:fixed;top:50%; left:50%; transform: translate(-50%, -50%); border:5px solid black"">","","","","","","","",""
"","4942.3850000003","sequential-stimulus-presentation-old","88","368620","0.0-21.0-1.5","SS1619205453890","trial","","40","500","5442.3850000003","images/stimuli/spore_stims/complex_07_A_b.gif","images/stimuli/spore_stims/complex_02_A_a.gif","self_paced","","6","complex_dissimilar","images/stimuli/spore_stims/complex_02_A_a.gif","","","","",""
"","10130.32500000007","survey-multi-choice","89","378755","0.0-22.0","SS1619205453890","math_question","","","","","","","","","","","","{""Q0"":""12""}","[0]","12","",""
"","null","html-keyboard-response","90","379996","0.0-23.0-0.0","SS1619205453890","","","null","","","","","","<p><img src= images/blank.png width =""600"" height = ""600"" style=""position:fixed;top:50%; left:50%; transform: translate(-50%, -50%); border:5px solid black"">","","","","","","","",""
"","8770.920000000857","sequential-stimulus-presentation-old","91","389271","0.0-23.0-1.0","SS1619205453890","trial","","40","500","9270.920000000857","images/stimuli/spore_stims/simple_19_A_a.gif","images/stimuli/spore_stims/simple_16_A_b.gif","self_paced","","7","simple_dissimilar","images/stimuli/spore_stims/simple_16_A_b.gif","","","","",""
"","null","html-keyboard-response","92","390542","0.0-23.0-0.1","SS1619205453890","","","null","","","","","","<p><img src= images/blank.png width =""600"" height = ""600"" style=""position:fixed;top:50%; left:50%; transform: translate(-50%, -50%); border:5px solid black"">","","","","","","","",""
"","689.3600000002771","sequential-stimulus-presentation-old","93","391736","0.0-23.0-1.1","SS1619205453890","trial","","40","500","1189.360000000277","images/stimuli/spore_stims/simple_19_A_a.gif","images/stimuli/spore_stims/simple_16_A_b.gif","self_paced","","7","simple_dissimilar","images/stimuli/spore_stims/simple_16_A_b.gif","","","","",""
"","null","html-keyboard-response","94","392706","0.0-23.0-0.2","SS1619205453890","","","null","","","","","","<p><img src= images/blank.png width =""600"" height = ""600"" style=""position:fixed;top:50%; left:50%; transform: translate(-50%, -50%); border:5px solid black"">","","","","","","","",""
"","409.88500000094064","sequential-stimulus-presentation-old","95","393621","0.0-23.0-1.2","SS1619205453890","trial","","40","500","909.8850000009406","images/stimuli/spore_stims/simple_19_A_a.gif","images/stimuli/spore_stims/simple_16_A_b.gif","self_paced","","7","simple_dissimilar","images/stimuli/spore_stims/simple_16_A_b.gif","","","","",""
"","null","html-keyboard-response","96","394432","0.0-23.0-0.3","SS1619205453890","","","null","","","","","","<p><img src= images/blank.png width =""600"" height = ""600"" style=""position:fixed;top:50%; left:50%; transform: translate(-50%, -50%); border:5px solid black"">","","","","","","","",""
"","266.37999999907333","sequential-stimulus-presentation-old","97","395204","0.0-23.0-1.3","SS1619205453890","trial","","40","500","766.3799999990733","images/stimuli/spore_stims/simple_19_A_a.gif","images/stimuli/spore_stims/simple_16_A_b.gif","self_paced","","7","simple_dissimilar","images/stimuli/spore_stims/simple_16_A_b.gif","","","","",""
"","1950.2999999986496","survey-multi-choice","98","397157","0.0-24.0","SS1619205453890","math_question","","","","","","","","","","","","{""Q0"":""9""}","[0]","9","",""
"","null","html-keyboard-response","99","398117","0.0-25.0-0.0","SS1619205453890","","","null","","","","","","<p><img src= images/blank.png width =""600"" height = ""600"" style=""position:fixed;top:50%; left:50%; transform: translate(-50%, -50%); border:5px solid black"">","","","","","","","",""
"","2781.0850000004866","sequential-stimulus-presentation-old","100","401003","0.0-25.0-1.0","SS1619205453890","trial","","40","500","3281.0850000004866","images/stimuli/spore_stims/complex_19_A_b.gif","images/stimuli/spore_stims/complex_17_A_a.gif","forced_short","","8","complex_dissimilar","images/stimuli/spore_stims/complex_17_A_a.gif","","","","",""
"","null","html-keyboard-response","101","402179","0.0-25.0-0.1","SS1619205453890","","","null","","","","","","<p><img src= images/blank.png width =""600"" height = ""600"" style=""position:fixed;top:50%; left:50%; transform: translate(-50%, -50%); border:5px solid black"">","","","","","","","",""
"","1350.7000000008848","sequential-stimulus-presentation-old","102","404035","0.0-25.0-1.1","SS1619205453890","trial","","40","500","1850.7000000008848","images/stimuli/spore_stims/complex_19_A_b.gif","images/stimuli/spore_stims/complex_17_A_a.gif","forced_short","","8","complex_dissimilar","images/stimuli/spore_stims/complex_17_A_a.gif","","","","",""
"","null","html-keyboard-response","103","405303","0.0-25.0-0.2","SS1619205453890","","","null","","","","","","<p><img src= images/blank.png width =""600"" height = ""600"" style=""position:fixed;top:50%; left:50%; transform: translate(-50%, -50%); border:5px solid black"">","","","","","","","",""
"","1035.4299999999348","sequential-stimulus-presentation-old","104","406844","0.0-25.0-1.2","SS1619205453890","trial","","40","500","1535.4299999999348","images/stimuli/spore_stims/complex_19_A_b.gif","images/stimuli/spore_stims/complex_17_A_a.gif","forced_short","","8","complex_dissimilar","images/stimuli/spore_stims/complex_17_A_a.gif","","","","",""
"","null","html-keyboard-response","105","407713","0.0-25.0-0.3","SS1619205453890","","","null","","","","","","<p><img src= images/blank.png width =""600"" height = ""600"" style=""position:fixed;top:50%; left:50%; transform: translate(-50%, -50%); border:5px solid black"">","","","","","","","",""
"","771.1749999998719","sequential-stimulus-presentation-old","106","408988","0.0-25.0-1.3","SS1619205453890","trial","","40","500","1271.174999999872","images/stimuli/spore_stims/complex_19_A_b.gif","images/stimuli/spore_stims/complex_17_A_a.gif","forced_short","","8","complex_dissimilar","images/stimuli/spore_stims/complex_19_A_b.gif","","","","",""
"","null","html-keyboard-response","107","410112","0.0-25.0-0.4","SS1619205453890","","","null","","","","","","<p><img src= images/blank.png width =""600"" height = ""600"" style=""position:fixed;top:50%; left:50%; transform: translate(-50%, -50%); border:5px solid black"">","","","","","","","",""
"","378.03499999974156","sequential-stimulus-presentation-old","108","410994","0.0-25.0-1.4","SS1619205453890","trial","","40","500","878.0349999997416","images/stimuli/spore_stims/complex_19_A_b.gif","images/stimuli/spore_stims/complex_17_A_a.gif","forced_short","","8","complex_dissimilar","images/stimuli/spore_stims/complex_19_A_b.gif","","","","",""
"","null","html-keyboard-response","109","412061","0.0-25.0-0.5","SS1619205453890","","","null","","","","","","<p><img src= images/blank.png width =""600"" height = ""600"" style=""position:fixed;top:50%; left:50%; transform: translate(-50%, -50%); border:5px solid black"">","","","","","","","",""
"","439.73999999975786","sequential-stimulus-presentation-old","110","413006","0.0-25.0-1.5","SS1619205453890","trial","","40","500","939.7399999997579","images/stimuli/spore_stims/complex_19_A_b.gif","images/stimuli/spore_stims/complex_17_A_a.gif","forced_short","","8","complex_dissimilar","images/stimuli/spore_stims/complex_17_A_a.gif","","","","",""
"","2788.4349999985425","survey-multi-choice","111","415798","0.0-26.0","SS1619205453890","math_question","","","","","","","","","","","","{""Q0"":""12""}","[0]","12","",""
"","null","html-keyboard-response","112","416613","0.0-27.0-0.0","SS1619205453890","","","null","","","","","","<p><img src= images/blank.png width =""600"" height = ""600"" style=""position:fixed;top:50%; left:50%; transform: translate(-50%, -50%); border:5px solid black"">","","","","","","","",""
"","8779.964999999735","sequential-stimulus-presentation-old","113","425498","0.0-27.0-1.0","SS1619205453890","trial","","40","500","9279.964999999735","images/stimuli/spore_stims/complex_18_A_a.gif","images/stimuli/spore_stims/complex_17_A_b.gif","forced_short","","9","complex_dissimilar","images/stimuli/spore_stims/complex_17_A_b.gif","","","","",""
"","null","html-keyboard-response","114","426603","0.0-27.0-0.1","SS1619205453890","","","null","","","","","","<p><img src= images/blank.png width =""600"" height = ""600"" style=""position:fixed;top:50%; left:50%; transform: translate(-50%, -50%); border:5px solid black"">","","","","","","","",""
"","1157.0600000013947","sequential-stimulus-presentation-old","115","428265","0.0-27.0-1.1","SS1619205453890","trial","","40","500","1657.0600000013947","images/stimuli/spore_stims/complex_18_A_a.gif","images/stimuli/spore_stims/complex_17_A_b.gif","forced_short","","9","complex_dissimilar","images/stimuli/spore_stims/complex_17_A_b.gif","","","","",""
"","null","html-keyboard-response","116","429326","0.0-27.0-0.2","SS1619205453890","","","null","","","","","","<p><img src= images/blank.png width =""600"" height = ""600"" style=""position:fixed;top:50%; left:50%; transform: translate(-50%, -50%); border:5px solid black"">","","","","","","","",""
"","128.10499999974854","sequential-stimulus-presentation-old","117","429957","0.0-27.0-1.2","SS1619205453890","trial","","40","500","628.1049999997485","images/stimuli/spore_stims/complex_18_A_a.gif","images/stimuli/spore_stims/complex_17_A_b.gif","forced_short","","9","complex_dissimilar","images/stimuli/spore_stims/complex_17_A_b.gif","","","","",""
"","null","html-keyboard-response","118","430859","0.0-27.0-0.3","SS1619205453890","","","null","","","","","","<p><img src= images/blank.png width =""600"" height = ""600"" style=""position:fixed;top:50%; left:50%; transform: translate(-50%, -50%); border:5px solid black"">","","","","","","","",""
"","119.61999999947147","sequential-stimulus-presentation-old","119","431482","0.0-27.0-1.3","SS1619205453890","trial","","40","500","619.6199999994715","images/stimuli/spore_stims/complex_18_A_a.gif","images/stimuli/spore_stims/complex_17_A_b.gif","forced_short","","9","complex_dissimilar","images/stimuli/spore_stims/complex_17_A_b.gif","","","","",""
"","null","html-keyboard-response","120","432293","0.0-27.0-0.4","SS1619205453890","","","null","","","","","","<p><img src= images/blank.png width =""600"" height = ""600"" style=""position:fixed;top:50%; left:50%; transform: translate(-50%, -50%); border:5px solid black"">","","","","","","","",""
"","416.0350000002072","sequential-stimulus-presentation-old","121","433214","0.0-27.0-1.4","SS1619205453890","trial","","40","500","916.0350000002072","images/stimuli/spore_stims/complex_18_A_a.gif","images/stimuli/spore_stims/complex_17_A_b.gif","forced_short","","9","complex_dissimilar","images/stimuli/spore_stims/complex_18_A_a.gif","","","","",""
"","2634.479999998817","survey-multi-choice","122","435851","0.0-28.0","SS1619205453890","math_question","","","","","","","","","","","","{""Q0"":""9""}","[0]","9","",""
"","null","html-keyboard-response","123","437004","0.0-29.0-0.0","SS1619205453890","","","null","","","","","","<p><img src= images/blank.png width =""600"" height = ""600"" style=""position:fixed;top:50%; left:50%; transform: translate(-50%, -50%); border:5px solid black"">","","","","","","","",""
"","45.109999999112915","sequential-stimulus-presentation-old","124","437553","0.0-29.0-1.0","SS1619205453890","trial","","40","500","545.1099999991129","images/stimuli/spore_stims/complex_16_A_a.gif","images/stimuli/spore_stims/complex_14_A_b.gif","self_paced","","10","complex_dissimilar","images/stimuli/spore_stims/complex_14_A_b.gif","","","","",""
"","null","html-keyboard-response","125","438691","0.0-29.0-0.1","SS1619205453890","","","null","","","","","","<p><img src= images/blank.png width =""600"" height = ""600"" style=""position:fixed;top:50%; left:50%; transform: translate(-50%, -50%); border:5px solid black"">","","","","","","","",""
"","5.300000000745058","sequential-stimulus-presentation-old","126","439201","0.0-29.0-1.1","SS1619205453890","trial","","40","500","505.30000000074506","images/stimuli/spore_stims/complex_16_A_a.gif","images/stimuli/spore_stims/complex_14_A_b.gif","self_paced","","10","complex_dissimilar","images/stimuli/spore_stims/complex_14_A_b.gif","","","","",""
"","null","html-keyboard-response","127","440006","0.0-29.0-0.2","SS1619205453890","","","null","","","","","","<p><img src= images/blank.png width =""600"" height = ""600"" style=""position:fixed;top:50%; left:50%; transform: translate(-50%, -50%); border:5px solid black"">","","","","","","","",""
"","343.37999999837484","sequential-stimulus-presentation-old","128","440853","0.0-29.0-1.2","SS1619205453890","trial","","40","500","843.3799999983748","images/stimuli/spore_stims/complex_16_A_a.gif","images/stimuli/spore_stims/complex_14_A_b.gif","self_paced","","10","complex_dissimilar","images/stimuli/spore_stims/complex_14_A_b.gif","","","","",""
"","null","html-keyboard-response","129","441970","0.0-29.0-0.3","SS1619205453890","","","null","","","","","","<p><img src= images/blank.png width =""600"" height = ""600"" style=""position:fixed;top:50%; left:50%; transform: translate(-50%, -50%); border:5px solid black"">","","","","","","","",""
"","1916.630000001518","sequential-stimulus-presentation-old","130","444393","0.0-29.0-1.3","SS1619205453890","trial","","40","500","2416.630000001518","images/stimuli/spore_stims/complex_16_A_a.gif","images/stimuli/spore_stims/complex_14_A_b.gif","self_paced","","10","complex_dissimilar","images/stimuli/spore_stims/complex_16_A_a.gif","","","","",""
"","null","html-keyboard-response","131","445279","0.0-29.0-0.4","SS1619205453890","","","null","","","","","","<p><img src= images/blank.png width =""600"" height = ""600"" style=""position:fixed;top:50%; left:50%; transform: translate(-50%, -50%); border:5px solid black"">","","","","","","","",""
"","18.160000001487788","sequential-stimulus-presentation-old","132","445802","0.0-29.0-1.4","SS1619205453890","trial","","40","500","518.1600000014878","images/stimuli/spore_stims/complex_16_A_a.gif","images/stimuli/spore_stims/complex_14_A_b.gif","self_paced","","10","complex_dissimilar","images/stimuli/spore_stims/complex_14_A_b.gif","","","","",""
"","null","html-keyboard-response","133","446738","0.0-29.0-0.5","SS1619205453890","","","null","","","","","","<p><img src= images/blank.png width =""600"" height = ""600"" style=""position:fixed;top:50%; left:50%; transform: translate(-50%, -50%); border:5px solid black"">","","","","","","","",""
"","1345.6849999983679","sequential-stimulus-presentation-old","134","448589","0.0-29.0-1.5","SS1619205453890","trial","","40","500","1845.6849999983679","images/stimuli/spore_stims/complex_16_A_a.gif","images/stimuli/spore_stims/complex_14_A_b.gif","self_paced","","10","complex_dissimilar","images/stimuli/spore_stims/complex_14_A_b.gif","","","","",""
"","4703.26500000013","survey-multi-choice","135","453295","0.0-30.0","SS1619205453890","math_question","","","","","","","","","","","","{""Q0"":""12""}","[0]","12","",""
"","null","html-keyboard-response","136","454215","0.0-31.0-0.0","SS1619205453890","","","null","","","","","","<p><img src= images/blank.png width =""600"" height = ""600"" style=""position:fixed;top:50%; left:50%; transform: translate(-50%, -50%); border:5px solid black"">","","","","","","","",""
"","4554.685000000987","sequential-stimulus-presentation-old","137","459275","0.0-31.0-1.0","SS1619205453890","trial","","40","500","5054.685000000987","images/stimuli/spore_stims/simple_08_A_a.gif","images/stimuli/spore_stims/simple_14_A_b.gif","self_paced","","11","simple_dissimilar","images/stimuli/spore_stims/simple_14_A_b.gif","","","","",""
"","null","html-keyboard-response","138","460261","0.0-31.0-0.1","SS1619205453890","","","null","","","","","","<p><img src= images/blank.png width =""600"" height = ""600"" style=""position:fixed;top:50%; left:50%; transform: translate(-50%, -50%); border:5px solid black"">","","","","","","","",""
"","1895.8800000000047","sequential-stimulus-presentation-old","139","462661","0.0-31.0-1.1","SS1619205453890","trial","","40","500","2395.8800000000047","images/stimuli/spore_stims/simple_08_A_a.gif","images/stimuli/spore_stims/simple_14_A_b.gif","self_paced","","11","simple_dissimilar","images/stimuli/spore_stims/simple_14_A_b.gif","","","","",""
"","null","html-keyboard-response","140","463954","0.0-31.0-0.2","SS1619205453890","","","null","","","","","","<p><img src= images/blank.png width =""600"" height = ""600"" style=""position:fixed;top:50%; left:50%; transform: translate(-50%, -50%); border:5px solid black"">","","","","","","","",""
"","1058.3400000014226","sequential-stimulus-presentation-old","141","465516","0.0-31.0-1.2","SS1619205453890","trial","","40","500","1558.3400000014226","images/stimuli/spore_stims/simple_08_A_a.gif","images/stimuli/spore_stims/simple_14_A_b.gif","self_paced","","11","simple_dissimilar","images/stimuli/spore_stims/simple_14_A_b.gif","","","","",""
"","null","html-keyboard-response","142","466551","0.0-31.0-0.3","SS1619205453890","","","null","","","","","","<p><img src= images/blank.png width =""600"" height = ""600"" style=""position:fixed;top:50%; left:50%; transform: translate(-50%, -50%); border:5px solid black"">","","","","","","","",""
"","2172.134999998845","sequential-stimulus-presentation-old","143","469228","0.0-31.0-1.3","SS1619205453890","trial","","40","500","2672.134999998845","images/stimuli/spore_stims/simple_08_A_a.gif","images/stimuli/spore_stims/simple_14_A_b.gif","self_paced","","11","simple_dissimilar","images/stimuli/spore_stims/simple_08_A_a.gif","","","","",""
"[{""page_index"":0,""viewing_time"":4973.835000000719}]","4974.175000001211","instructions","144","474204","0.0-32.0","SS1619205453890","instructions","","","","","","","","","","","","","","","",""
"","5239.424999999697","survey-likert","145","479448","0.0-33.0","SS1619205453890","similarity_question","","","","","","","","","","","","{""Q0"":1}","[0]","","images/stimuli/spore_stims/complex_03_A_b.gif","images/stimuli/spore_stims/complex_05_A_a.gif"
"","4700.7150000008405","survey-likert","146","484154","0.0-34.0","SS1619205453890","similarity_question","","","","","","","","","","","","{""Q0"":4}","[0]","","images/stimuli/spore_stims/simple_19_A_a.gif","images/stimuli/spore_stims/simple_16_A_b.gif"
"","1418.1150000003981","survey-likert","147","485576","0.0-35.0","SS1619205453890","similarity_question","","","","","","","","","","","","{""Q0"":4}","[0]","","images/stimuli/spore_stims/simple_05_A_a.gif","images/stimuli/spore_stims/simple_03_A_b.gif"
"","5710.8100000005215","survey-likert","148","491291","0.0-36.0","SS1619205453890","similarity_question","","","","","","","","","","","","{""Q0"":4}","[0]","","images/stimuli/spore_stims/complex_18_A_a.gif","images/stimuli/spore_stims/complex_17_A_b.gif"
"","3085.010000000708","survey-likert","149","494382","0.0-37.0","SS1619205453890","similarity_question","","","","","","","","","","","","{""Q0"":1}","[0]","","images/stimuli/spore_stims/complex_14_A_b.gif","images/stimuli/spore_stims/complex_16_A_a.gif"
"","2683.9200000013225","survey-likert","150","497071","0.0-38.0","SS1619205453890","similarity_question","","","","","","","","","","","","{""Q0"":4}","[0]","","images/stimuli/spore_stims/complex_18_A_b.gif","images/stimuli/spore_stims/complex_12_A_a.gif"
"","2603.955000000482","survey-likert","151","499679","0.0-39.0","SS1619205453890","similarity_question","","","","","","","","","","","","{""Q0"":5}","[0]","","images/stimuli/spore_stims/simple_14_A_b.gif","images/stimuli/spore_stims/simple_08_A_a.gif"
"","3400.385000000824","survey-likert","152","503084","0.0-40.0","SS1619205453890","similarity_question","","","","","","","","","","","","{""Q0"":2}","[0]","","images/stimuli/spore_stims/complex_07_A_b.gif","images/stimuli/spore_stims/complex_02_A_a.gif"
"","2666.9600000004866","survey-likert","153","505755","0.0-41.0","SS1619205453890","similarity_question","","","","","","","","","","","","{""Q0"":2}","[0]","","images/stimuli/spore_stims/simple_18_A_b.gif","images/stimuli/spore_stims/simple_14_A_a.gif"
"","1717.4049999993877","survey-likert","154","507477","0.0-42.0","SS1619205453890","similarity_question","","","","","","","","","","","","{""Q0"":4}","[0]","","images/stimuli/spore_stims/simple_20_A_a.gif","images/stimuli/spore_stims/simple_10_A_b.gif"
"","2362.8149999986053","survey-likert","155","509843","0.0-43.0","SS1619205453890","similarity_question","","","","","","","","","","","","{""Q0"":3}","[0]","","images/stimuli/spore_stims/complex_19_A_b.gif","images/stimuli/spore_stims/complex_17_A_a.gif"
"","4378.590000000258","survey-likert","156","514226","0.0-44.0","SS1619205453890","similarity_question","","","","","","","","","","","","{""Q0"":5}","[0]","","images/stimuli/spore_stims/simple_13_A_b.gif","images/stimuli/spore_stims/simple_02_A_a.gif"
"[{""page_index"":0,""viewing_time"":8776.245000000868}]","8776.745000000985","instructions","157","523007","0.0-45.0","SS1619205453890","instructions","","","","","","","","","","","","","","","",""
"","3333.254999999539","survey-likert","158","526344","0.0-46.0","SS1619205453890","","","","","","","","","images/stimuli/spore_stims/complex_05_A_a.gif","","","","{""Q0"":4}","[0]","","",""
"","2616.0799999998417","survey-likert","159","528965","0.0-47.0","SS1619205453890","","","","","","","","","images/stimuli/spore_stims/complex_12_A_a.gif","","","","{""Q0"":5}","[0]","","",""
"","3220.960000000545","survey-likert","160","532191","0.0-48.0","SS1619205453890","","","","","","","","","images/stimuli/spore_stims/complex_18_A_a.gif","","","","{""Q0"":5}","[0]","","",""
"","1853.1700000002747","survey-likert","161","534049","0.0-49.0","SS1619205453890","","","","","","","","","images/stimuli/spore_stims/simple_14_A_b.gif","","","","{""Q0"":0}","[0]","","",""
"","2137.894999999786","survey-likert","162","536191","0.0-50.0","SS1619205453890","","","","","","","","","images/stimuli/spore_stims/simple_02_A_a.gif","","","","{""Q0"":0}","[0]","","",""
"","2634.775000000489","survey-likert","163","538831","0.0-51.0","SS1619205453890","","","","","","","","","images/stimuli/spore_stims/simple_20_A_a.gif","","","","{""Q0"":1}","[0]","","",""
"","3252.8800000000047","survey-likert","164","542088","0.0-52.0","SS1619205453890","","","","","","","","","images/stimuli/spore_stims/complex_16_A_a.gif","","","","{""Q0"":6}","[0]","","",""
"","1672.2650000010617","survey-likert","165","543765","0.0-53.0","SS1619205453890","","","","","","","","","images/stimuli/spore_stims/complex_02_A_a.gif","","","","{""Q0"":5}","[0]","","",""
"","2665.2800000010757","survey-likert","166","546435","0.0-54.0","SS1619205453890","","","","","","","","","images/stimuli/spore_stims/complex_19_A_b.gif","","","","{""Q0"":6}","[0]","","",""
"","1969.259999999893","survey-likert","167","548408","0.0-55.0","SS1619205453890","","","","","","","","","images/stimuli/spore_stims/simple_03_A_b.gif","","","","{""Q0"":1}","[0]","","",""
"","1818.9899999997579","survey-likert","168","550231","0.0-56.0","SS1619205453890","","","","","","","","","images/stimuli/spore_stims/simple_19_A_a.gif","","","","{""Q0"":1}","[0]","","",""
"","1684.7550000002375","survey-likert","169","551920","0.0-57.0","SS1619205453890","","","","","","","","","images/stimuli/spore_stims/simple_14_A_a.gif","","","","{""Q0"":0}","[0]","","",""
"[{""page_index"":0,""viewing_time"":2278.045000000857}]","2278.389999999432","instructions","170","554202","0.0-58.0","SS1619205453890","instructions","","","","","","","","","","","","","","","",""
"","2541.970000000205","demog-age","171","556750","0.0-59.0","SS1619205453890","","","","","","","","","","","","","{""age"":""21""}","","","",""
"","2882.4150000000373","demog-ethnic-US","172","559640","0.0-60.0","SS1619205453890","","","","","","","","","","","","","{""ethnicity"":[""White""]}","[0]","","",""
"","10995.985000001383","demog-gender-and-education","173","570644","0.0-61.0","SS1619205453890","","","","","","","","","","","","","{""gender"":""Male"",""education"":""High school diploma""}","[0,1]","","",""
"","6405.220000000554","survey-text","174","577057","0.0-62.0","SS1619205453890","feedback","","","","","","","","","","","","{""Q0"":""Nothing""}","","","",""
"[{""page_index"":0,""viewing_time"":2364.524999999092}]","2364.920000000042","instructions","175","579425","0.0-63.0","SS1619205453890","instructions","","","","","","","","","","","","","","","",""
