"view_history","rt","trial_type","trial_index","time_elapsed","internal_node_id","subject","stimulus_type","trial_stimulus","key_press","minimum_viewing_duration","trial_looking_time","block_deviant","block_background","exposure_type","stimulus","block_number","block_type","stimulus_displayed","responses","question_order","math_correct_answer","stimulus_left","stimulus_right"
"[{""page_index"":0,""viewing_time"":36431.02499999986}]","36431.430000000546","instructions","0","36435","0.0-0.0","SS1619204991008","","","","","","","","","","","","","","","","",""
"[{""page_index"":0,""viewing_time"":6442.409999999654},{""page_index"":1,""viewing_time"":4303.164999999353}]","10745.864999998958","instructions","1","49188","0.0-1.0","SS1619204991008","instructions","","","","","","","","","","","","","","","",""
"","4794.4749999987835","sequential-stimulus-presentation-old","2","54487","0.0-2.0","SS1619204991008","","","40","500","5294.4749999987835","null","null","self_paced","","","","","","","","",""
"","3771.020000000135","sequential-stimulus-presentation-old","3","58761","0.0-3.0","SS1619204991008","","","40","500","4271.020000000135","null","null","self_paced","","","","","","","","",""
"[{""page_index"":0,""viewing_time"":9642.61500000066}]","9642.900000000736","instructions","4","68405","0.0-4.0","SS1619204991008","instructions","","","","","","","","","","","","","","","",""
"","506.88499999887426","sequential-stimulus-presentation-old","5","78916","0.0-5.0","SS1619204991008","","","40","500","1006.8849999988743","null","null","forced_long","","","","","","","","",""
"","5100.669999999809","sequential-stimulus-presentation-old","6","84121","0.0-6.0","SS1619204991008","","","40","500","5600.669999999809","null","null","forced_long","","","","","","","","",""
"[{""page_index"":0,""viewing_time"":2136.564999998882}]","2136.9199999990087","instructions","7","86259","0.0-7.0","SS1619204991008","instructions","","","","","","","","","","","","","","","",""
"[{""page_index"":0,""viewing_time"":7822.619999999006},{""page_index"":1,""viewing_time"":6701.0450000016135},{""page_index"":2,""viewing_time"":5705.564999998387},{""page_index"":3,""viewing_time"":1319.4149999999354},{""page_index"":4,""viewing_time"":978.3350000016071}]","22527.25499999906","instructions","8","108789","0.0-8.0","SS1619204991008","instructions","","","","","","","","","","","","","","","",""
"","null","html-keyboard-response","9","110077","0.0-9.0-0.0","SS1619204991008","","","null","","","","","","<p><img src= images/blank.png width =""600"" height = ""600"" style=""position:fixed;top:50%; left:50%; transform: translate(-50%, -50%); border:5px solid black"">","","","","","","","",""
"","799.1799999999785","sequential-stimulus-presentation-old","10","120885","0.0-9.0-1.0","SS1619204991008","trial","","40","500","1299.1799999999785","images/stimuli/spore_stims/complex_14_A_b.gif","images/stimuli/spore_stims/complex_15_A_a.gif","forced_long","","0","complex_dissimilar","images/stimuli/spore_stims/complex_15_A_a.gif","","","","",""
"","null","html-keyboard-response","11","121865","0.0-9.0-0.1","SS1619204991008","","","null","","","","","","<p><img src= images/blank.png width =""600"" height = ""600"" style=""position:fixed;top:50%; left:50%; transform: translate(-50%, -50%); border:5px solid black"">","","","","","","","",""
"","19711.749999998603","sequential-stimulus-presentation-old","12","142081","0.0-9.0-1.1","SS1619204991008","trial","","40","500","20211.749999998603","images/stimuli/spore_stims/complex_14_A_b.gif","images/stimuli/spore_stims/complex_15_A_a.gif","forced_long","","0","complex_dissimilar","images/stimuli/spore_stims/complex_15_A_a.gif","","","","",""
"","null","html-keyboard-response","13","142993","0.0-9.0-0.2","SS1619204991008","","","null","","","","","","<p><img src= images/blank.png width =""600"" height = ""600"" style=""position:fixed;top:50%; left:50%; transform: translate(-50%, -50%); border:5px solid black"">","","","","","","","",""
"","3153.409999998985","sequential-stimulus-presentation-old","14","146653","0.0-9.0-1.2","SS1619204991008","trial","","40","500","3653.409999998985","images/stimuli/spore_stims/complex_14_A_b.gif","images/stimuli/spore_stims/complex_15_A_a.gif","forced_long","","0","complex_dissimilar","images/stimuli/spore_stims/complex_15_A_a.gif","","","","",""
"","null","html-keyboard-response","15","147899","0.0-9.0-0.3","SS1619204991008","","","null","","","","","","<p><img src= images/blank.png width =""600"" height = ""600"" style=""position:fixed;top:50%; left:50%; transform: translate(-50%, -50%); border:5px solid black"">","","","","","","","",""
"","5822.079999999929","sequential-stimulus-presentation-old","16","154225","0.0-9.0-1.3","SS1619204991008","trial","","40","500","6322.079999999929","images/stimuli/spore_stims/complex_14_A_b.gif","images/stimuli/spore_stims/complex_15_A_a.gif","forced_long","","0","complex_dissimilar","images/stimuli/spore_stims/complex_14_A_b.gif","","","","",""
"","null","html-keyboard-response","17","155294","0.0-9.0-0.4","SS1619204991008","","","null","","","","","","<p><img src= images/blank.png width =""600"" height = ""600"" style=""position:fixed;top:50%; left:50%; transform: translate(-50%, -50%); border:5px solid black"">","","","","","","","",""
"","2412.420000000566","sequential-stimulus-presentation-old","18","158213","0.0-9.0-1.4","SS1619204991008","trial","","40","500","2912.420000000566","images/stimuli/spore_stims/complex_14_A_b.gif","images/stimuli/spore_stims/complex_15_A_a.gif","forced_long","","0","complex_dissimilar","images/stimuli/spore_stims/complex_14_A_b.gif","","","","",""
"","null","html-keyboard-response","19","159345","0.0-9.0-0.5","SS1619204991008","","","null","","","","","","<p><img src= images/blank.png width =""600"" height = ""600"" style=""position:fixed;top:50%; left:50%; transform: translate(-50%, -50%); border:5px solid black"">","","","","","","","",""
"","2638.590000000462","sequential-stimulus-presentation-old","20","162488","0.0-9.0-1.5","SS1619204991008","trial","","40","500","3138.590000000462","images/stimuli/spore_stims/complex_14_A_b.gif","images/stimuli/spore_stims/complex_15_A_a.gif","forced_long","","0","complex_dissimilar","images/stimuli/spore_stims/complex_15_A_a.gif","","","","",""
"","3053.4950000001118","survey-multi-choice","21","165547","0.0-10.0","SS1619204991008","math_question","","","","","","","","","","","","{""Q0"":""10""}","[0]","10","",""
"","null","html-keyboard-response","22","166534","0.0-11.0-0.0","SS1619204991008","","","null","","","","","","<p><img src= images/blank.png width =""600"" height = ""600"" style=""position:fixed;top:50%; left:50%; transform: translate(-50%, -50%); border:5px solid black"">","","","","","","","",""
"","2719.7699999996985","sequential-stimulus-presentation-old","23","169758","0.0-11.0-1.0","SS1619204991008","trial","","40","500","3219.7699999996985","images/stimuli/spore_stims/simple_10_A_b.gif","images/stimuli/spore_stims/simple_15_A_a.gif","self_paced","","1","simple_dissimilar","images/stimuli/spore_stims/simple_15_A_a.gif","","","","",""
"","null","html-keyboard-response","24","170853","0.0-11.0-0.1","SS1619204991008","","","null","","","","","","<p><img src= images/blank.png width =""600"" height = ""600"" style=""position:fixed;top:50%; left:50%; transform: translate(-50%, -50%); border:5px solid black"">","","","","","","","",""
"","3705.5749999999534","sequential-stimulus-presentation-old","25","175063","0.0-11.0-1.1","SS1619204991008","trial","","40","500","4205.574999999953","images/stimuli/spore_stims/simple_10_A_b.gif","images/stimuli/spore_stims/simple_15_A_a.gif","self_paced","","1","simple_dissimilar","images/stimuli/spore_stims/simple_15_A_a.gif","","","","",""
"","null","html-keyboard-response","26","176148","0.0-11.0-0.2","SS1619204991008","","","null","","","","","","<p><img src= images/blank.png width =""600"" height = ""600"" style=""position:fixed;top:50%; left:50%; transform: translate(-50%, -50%); border:5px solid black"">","","","","","","","",""
"","1021.7300000003888","sequential-stimulus-presentation-old","27","177673","0.0-11.0-1.2","SS1619204991008","trial","","40","500","1521.7300000003888","images/stimuli/spore_stims/simple_10_A_b.gif","images/stimuli/spore_stims/simple_15_A_a.gif","self_paced","","1","simple_dissimilar","images/stimuli/spore_stims/simple_15_A_a.gif","","","","",""
"","null","html-keyboard-response","28","178769","0.0-11.0-0.3","SS1619204991008","","","null","","","","","","<p><img src= images/blank.png width =""600"" height = ""600"" style=""position:fixed;top:50%; left:50%; transform: translate(-50%, -50%); border:5px solid black"">","","","","","","","",""
"","3857.9950000003155","sequential-stimulus-presentation-old","29","183134","0.0-11.0-1.3","SS1619204991008","trial","","40","500","4357.9950000003155","images/stimuli/spore_stims/simple_10_A_b.gif","images/stimuli/spore_stims/simple_15_A_a.gif","self_paced","","1","simple_dissimilar","images/stimuli/spore_stims/simple_15_A_a.gif","","","","",""
"","null","html-keyboard-response","30","184342","0.0-11.0-0.4","SS1619204991008","","","null","","","","","","<p><img src= images/blank.png width =""600"" height = ""600"" style=""position:fixed;top:50%; left:50%; transform: translate(-50%, -50%); border:5px solid black"">","","","","","","","",""
"","5841.940000000235","sequential-stimulus-presentation-old","31","190688","0.0-11.0-1.4","SS1619204991008","trial","","40","500","6341.940000000235","images/stimuli/spore_stims/simple_10_A_b.gif","images/stimuli/spore_stims/simple_15_A_a.gif","self_paced","","1","simple_dissimilar","images/stimuli/spore_stims/simple_10_A_b.gif","","","","",""
"","2367.9300000003423","survey-multi-choice","32","193058","0.0-12.0","SS1619204991008","math_question","","","","","","","","","","","","{""Q0"":""6""}","[0]","6","",""
"","null","html-keyboard-response","33","194254","0.0-13.0-0.0","SS1619204991008","","","null","","","","","","<p><img src= images/blank.png width =""600"" height = ""600"" style=""position:fixed;top:50%; left:50%; transform: translate(-50%, -50%); border:5px solid black"">","","","","","","","",""
"","4334.719999998924","sequential-stimulus-presentation-old","34","199093","0.0-13.0-1.0","SS1619204991008","trial","","40","500","4834.719999998924","images/stimuli/spore_stims/simple_05_A_b.gif","images/stimuli/spore_stims/simple_12_A_a.gif","self_paced","","2","simple_dissimilar","images/stimuli/spore_stims/simple_12_A_a.gif","","","","",""
"","null","html-keyboard-response","35","200148","0.0-13.0-0.1","SS1619204991008","","","null","","","","","","<p><img src= images/blank.png width =""600"" height = ""600"" style=""position:fixed;top:50%; left:50%; transform: translate(-50%, -50%); border:5px solid black"">","","","","","","","",""
"","2464.825000000914","sequential-stimulus-presentation-old","36","203117","0.0-13.0-1.1","SS1619204991008","trial","","40","500","2964.825000000914","images/stimuli/spore_stims/simple_05_A_b.gif","images/stimuli/spore_stims/simple_12_A_a.gif","self_paced","","2","simple_dissimilar","images/stimuli/spore_stims/simple_12_A_a.gif","","","","",""
"","null","html-keyboard-response","37","204195","0.0-13.0-0.2","SS1619204991008","","","null","","","","","","<p><img src= images/blank.png width =""600"" height = ""600"" style=""position:fixed;top:50%; left:50%; transform: translate(-50%, -50%); border:5px solid black"">","","","","","","","",""
"","2588.980000000447","sequential-stimulus-presentation-old","38","207289","0.0-13.0-1.2","SS1619204991008","trial","","40","500","3088.980000000447","images/stimuli/spore_stims/simple_05_A_b.gif","images/stimuli/spore_stims/simple_12_A_a.gif","self_paced","","2","simple_dissimilar","images/stimuli/spore_stims/simple_12_A_a.gif","","","","",""
"","null","html-keyboard-response","39","208454","0.0-13.0-0.3","SS1619204991008","","","null","","","","","","<p><img src= images/blank.png width =""600"" height = ""600"" style=""position:fixed;top:50%; left:50%; transform: translate(-50%, -50%); border:5px solid black"">","","","","","","","",""
"","307.0049999987532","sequential-stimulus-presentation-old","40","209265","0.0-13.0-1.3","SS1619204991008","trial","","40","500","807.0049999987532","images/stimuli/spore_stims/simple_05_A_b.gif","images/stimuli/spore_stims/simple_12_A_a.gif","self_paced","","2","simple_dissimilar","images/stimuli/spore_stims/simple_12_A_a.gif","","","","",""
"","null","html-keyboard-response","41","210462","0.0-13.0-0.4","SS1619204991008","","","null","","","","","","<p><img src= images/blank.png width =""600"" height = ""600"" style=""position:fixed;top:50%; left:50%; transform: translate(-50%, -50%); border:5px solid black"">","","","","","","","",""
"","387.91499999933876","sequential-stimulus-presentation-old","42","211357","0.0-13.0-1.4","SS1619204991008","trial","","40","500","887.9149999993388","images/stimuli/spore_stims/simple_05_A_b.gif","images/stimuli/spore_stims/simple_12_A_a.gif","self_paced","","2","simple_dissimilar","images/stimuli/spore_stims/simple_05_A_b.gif","","","","",""
"","2237.7649999998685","survey-multi-choice","43","213597","0.0-14.0","SS1619204991008","math_question","","","","","","","","","","","","{""Q0"":""11""}","[0]","11","",""
"","null","html-keyboard-response","44","214881","0.0-15.0-0.0","SS1619204991008","","","null","","","","","","<p><img src= images/blank.png width =""600"" height = ""600"" style=""position:fixed;top:50%; left:50%; transform: translate(-50%, -50%); border:5px solid black"">","","","","","","","",""
"","5415.934999999066","sequential-stimulus-presentation-old","45","221266","0.0-15.0-1.0","SS1619204991008","trial","","40","500","5915.934999999066","images/stimuli/spore_stims/simple_14_A_b.gif","images/stimuli/spore_stims/simple_13_A_a.gif","forced_short","","3","simple_dissimilar","images/stimuli/spore_stims/simple_13_A_a.gif","","","","",""
"","null","html-keyboard-response","46","222455","0.0-15.0-0.1","SS1619204991008","","","null","","","","","","<p><img src= images/blank.png width =""600"" height = ""600"" style=""position:fixed;top:50%; left:50%; transform: translate(-50%, -50%); border:5px solid black"">","","","","","","","",""
"","3025.360000001441","sequential-stimulus-presentation-old","47","225983","0.0-15.0-1.1","SS1619204991008","trial","","40","500","3525.360000001441","images/stimuli/spore_stims/simple_14_A_b.gif","images/stimuli/spore_stims/simple_13_A_a.gif","forced_short","","3","simple_dissimilar","images/stimuli/spore_stims/simple_13_A_a.gif","","","","",""
"","null","html-keyboard-response","48","227164","0.0-15.0-0.2","SS1619204991008","","","null","","","","","","<p><img src= images/blank.png width =""600"" height = ""600"" style=""position:fixed;top:50%; left:50%; transform: translate(-50%, -50%); border:5px solid black"">","","","","","","","",""
"","748.8400000002002","sequential-stimulus-presentation-old","49","228420","0.0-15.0-1.2","SS1619204991008","trial","","40","500","1248.8400000002002","images/stimuli/spore_stims/simple_14_A_b.gif","images/stimuli/spore_stims/simple_13_A_a.gif","forced_short","","3","simple_dissimilar","images/stimuli/spore_stims/simple_13_A_a.gif","","","","",""
"","null","html-keyboard-response","50","229438","0.0-15.0-0.3","SS1619204991008","","","null","","","","","","<p><img src= images/blank.png width =""600"" height = ""600"" style=""position:fixed;top:50%; left:50%; transform: translate(-50%, -50%); border:5px solid black"">","","","","","","","",""
"","3346.824999998702","sequential-stimulus-presentation-old","51","233289","0.0-15.0-1.3","SS1619204991008","trial","","40","500","3846.824999998702","images/stimuli/spore_stims/simple_14_A_b.gif","images/stimuli/spore_stims/simple_13_A_a.gif","forced_short","","3","simple_dissimilar","images/stimuli/spore_stims/simple_14_A_b.gif","","","","",""
"","null","html-keyboard-response","52","234339","0.0-15.0-0.4","SS1619204991008","","","null","","","","","","<p><img src= images/blank.png width =""600"" height = ""600"" style=""position:fixed;top:50%; left:50%; transform: translate(-50%, -50%); border:5px solid black"">","","","","","","","",""
"","2713.595000001078","sequential-stimulus-presentation-old","53","237559","0.0-15.0-1.4","SS1619204991008","trial","","40","500","3213.595000001078","images/stimuli/spore_stims/simple_14_A_b.gif","images/stimuli/spore_stims/simple_13_A_a.gif","forced_short","","3","simple_dissimilar","images/stimuli/spore_stims/simple_13_A_a.gif","","","","",""
"","null","html-keyboard-response","54","238663","0.0-15.0-0.5","SS1619204991008","","","null","","","","","","<p><img src= images/blank.png width =""600"" height = ""600"" style=""position:fixed;top:50%; left:50%; transform: translate(-50%, -50%); border:5px solid black"">","","","","","","","",""
"","4156.97499999986","sequential-stimulus-presentation-old","55","243329","0.0-15.0-1.5","SS1619204991008","trial","","40","500","4656.97499999986","images/stimuli/spore_stims/simple_14_A_b.gif","images/stimuli/spore_stims/simple_13_A_a.gif","forced_short","","3","simple_dissimilar","images/stimuli/spore_stims/simple_13_A_a.gif","","","","",""
"","2767.859999999928","survey-multi-choice","56","246099","0.0-16.0","SS1619204991008","math_question","","","","","","","","","","","","{""Q0"":""9""}","[0]","9","",""
"","null","html-keyboard-response","57","246977","0.0-17.0-0.0","SS1619204991008","","","null","","","","","","<p><img src= images/blank.png width =""600"" height = ""600"" style=""position:fixed;top:50%; left:50%; transform: translate(-50%, -50%); border:5px solid black"">","","","","","","","",""
"","18017.929999999993","sequential-stimulus-presentation-old","58","265100","0.0-17.0-1.0","SS1619204991008","trial","","40","500","18517.929999999993","images/stimuli/spore_stims/simple_03_A_b.gif","images/stimuli/spore_stims/simple_16_A_a.gif","forced_short","","4","simple_dissimilar","images/stimuli/spore_stims/simple_16_A_a.gif","","","","",""
"","null","html-keyboard-response","59","266293","0.0-17.0-0.1","SS1619204991008","","","null","","","","","","<p><img src= images/blank.png width =""600"" height = ""600"" style=""position:fixed;top:50%; left:50%; transform: translate(-50%, -50%); border:5px solid black"">","","","","","","","",""
"","3066.4099999994505","sequential-stimulus-presentation-old","60","269863","0.0-17.0-1.1","SS1619204991008","trial","","40","500","3566.4099999994505","images/stimuli/spore_stims/simple_03_A_b.gif","images/stimuli/spore_stims/simple_16_A_a.gif","forced_short","","4","simple_dissimilar","images/stimuli/spore_stims/simple_16_A_a.gif","","","","",""
"","null","html-keyboard-response","61","272020","0.0-17.0-0.2","SS1619204991008","","","null","","","","","","<p><img src= images/blank.png width =""600"" height = ""600"" style=""position:fixed;top:50%; left:50%; transform: translate(-50%, -50%); border:5px solid black"">","","","","","","","",""
"","3124.239999999176","sequential-stimulus-presentation-old","62","276196","0.0-17.0-1.2","SS1619204991008","trial","","40","500","3624.239999999176","images/stimuli/spore_stims/simple_03_A_b.gif","images/stimuli/spore_stims/simple_16_A_a.gif","forced_short","","4","simple_dissimilar","images/stimuli/spore_stims/simple_16_A_a.gif","","","","",""
"","null","html-keyboard-response","63","277207","0.0-17.0-0.3","SS1619204991008","","","null","","","","","","<p><img src= images/blank.png width =""600"" height = ""600"" style=""position:fixed;top:50%; left:50%; transform: translate(-50%, -50%); border:5px solid black"">","","","","","","","",""
"","764.909999999858","sequential-stimulus-presentation-old","64","278476","0.0-17.0-1.3","SS1619204991008","trial","","40","500","1264.909999999858","images/stimuli/spore_stims/simple_03_A_b.gif","images/stimuli/spore_stims/simple_16_A_a.gif","forced_short","","4","simple_dissimilar","images/stimuli/spore_stims/simple_16_A_a.gif","","","","",""
"","null","html-keyboard-response","65","279663","0.0-17.0-0.4","SS1619204991008","","","null","","","","","","<p><img src= images/blank.png width =""600"" height = ""600"" style=""position:fixed;top:50%; left:50%; transform: translate(-50%, -50%); border:5px solid black"">","","","","","","","",""
"","2175.670000000566","sequential-stimulus-presentation-old","66","282343","0.0-17.0-1.4","SS1619204991008","trial","","40","500","2675.670000000566","images/stimuli/spore_stims/simple_03_A_b.gif","images/stimuli/spore_stims/simple_16_A_a.gif","forced_short","","4","simple_dissimilar","images/stimuli/spore_stims/simple_16_A_a.gif","","","","",""
"","null","html-keyboard-response","67","283287","0.0-17.0-0.5","SS1619204991008","","","null","","","","","","<p><img src= images/blank.png width =""600"" height = ""600"" style=""position:fixed;top:50%; left:50%; transform: translate(-50%, -50%); border:5px solid black"">","","","","","","","",""
"","2175.699999999837","sequential-stimulus-presentation-old","68","285971","0.0-17.0-1.5","SS1619204991008","trial","","40","500","2675.699999999837","images/stimuli/spore_stims/simple_03_A_b.gif","images/stimuli/spore_stims/simple_16_A_a.gif","forced_short","","4","simple_dissimilar","images/stimuli/spore_stims/simple_16_A_a.gif","","","","",""
"","2371.3200000001816","survey-multi-choice","69","288345","0.0-18.0","SS1619204991008","math_question","","","","","","","","","","","","{""Q0"":""8""}","[0]","8","",""
"","null","html-keyboard-response","70","289651","0.0-19.0-0.0","SS1619204991008","","","null","","","","","","<p><img src= images/blank.png width =""600"" height = ""600"" style=""position:fixed;top:50%; left:50%; transform: translate(-50%, -50%); border:5px solid black"">","","","","","","","",""
"","710.914999999688","sequential-stimulus-presentation-old","71","300370","0.0-19.0-1.0","SS1619204991008","trial","","40","500","1210.914999999688","images/stimuli/spore_stims/complex_07_A_a.gif","images/stimuli/spore_stims/complex_17_A_b.gif","forced_long","","5","complex_dissimilar","images/stimuli/spore_stims/complex_17_A_b.gif","","","","",""
"","null","html-keyboard-response","72","301594","0.0-19.0-0.1","SS1619204991008","","","null","","","","","","<p><img src= images/blank.png width =""600"" height = ""600"" style=""position:fixed;top:50%; left:50%; transform: translate(-50%, -50%); border:5px solid black"">","","","","","","","",""
"","3795.9150000006193","sequential-stimulus-presentation-old","73","305894","0.0-19.0-1.1","SS1619204991008","trial","","40","500","4295.915000000619","images/stimuli/spore_stims/complex_07_A_a.gif","images/stimuli/spore_stims/complex_17_A_b.gif","forced_long","","5","complex_dissimilar","images/stimuli/spore_stims/complex_07_A_a.gif","","","","",""
"","null","html-keyboard-response","74","307063","0.0-19.0-0.2","SS1619204991008","","","null","","","","","","<p><img src= images/blank.png width =""600"" height = ""600"" style=""position:fixed;top:50%; left:50%; transform: translate(-50%, -50%); border:5px solid black"">","","","","","","","",""
"","4170.009999999835","sequential-stimulus-presentation-old","75","311737","0.0-19.0-1.2","SS1619204991008","trial","","40","500","4670.009999999835","images/stimuli/spore_stims/complex_07_A_a.gif","images/stimuli/spore_stims/complex_17_A_b.gif","forced_long","","5","complex_dissimilar","images/stimuli/spore_stims/complex_17_A_b.gif","","","","",""
"","null","html-keyboard-response","76","312615","0.0-19.0-0.3","SS1619204991008","","","null","","","","","","<p><img src= images/blank.png width =""600"" height = ""600"" style=""position:fixed;top:50%; left:50%; transform: translate(-50%, -50%); border:5px solid black"">","","","","","","","",""
"","1127.1099999994622","sequential-stimulus-presentation-old","77","314252","0.0-19.0-1.3","SS1619204991008","trial","","40","500","1627.1099999994622","images/stimuli/spore_stims/complex_07_A_a.gif","images/stimuli/spore_stims/complex_17_A_b.gif","forced_long","","5","complex_dissimilar","images/stimuli/spore_stims/complex_07_A_a.gif","","","","",""
"","2759.0749999999534","survey-multi-choice","78","317013","0.0-20.0","SS1619204991008","math_question","","","","","","","","","","","","{""Q0"":""16""}","[0]","16","",""
"","null","html-keyboard-response","79","318000","0.0-21.0-0.0","SS1619204991008","","","null","","","","","","<p><img src= images/blank.png width =""600"" height = ""600"" style=""position:fixed;top:50%; left:50%; transform: translate(-50%, -50%); border:5px solid black"">","","","","","","","",""
"","958.1099999995786","sequential-stimulus-presentation-old","80","328968","0.0-21.0-1.0","SS1619204991008","trial","","40","500","1458.1099999995786","images/stimuli/spore_stims/simple_05_A_a.gif","images/stimuli/spore_stims/simple_04_A_b.gif","forced_long","","6","simple_dissimilar","images/stimuli/spore_stims/simple_04_A_b.gif","","","","",""
"","null","html-keyboard-response","81","330262","0.0-21.0-0.1","SS1619204991008","","","null","","","","","","<p><img src= images/blank.png width =""600"" height = ""600"" style=""position:fixed;top:50%; left:50%; transform: translate(-50%, -50%); border:5px solid black"">","","","","","","","",""
"","2437.930000000051","sequential-stimulus-presentation-old","82","333209","0.0-21.0-1.1","SS1619204991008","trial","","40","500","2937.930000000051","images/stimuli/spore_stims/simple_05_A_a.gif","images/stimuli/spore_stims/simple_04_A_b.gif","forced_long","","6","simple_dissimilar","images/stimuli/spore_stims/simple_04_A_b.gif","","","","",""
"","null","html-keyboard-response","83","334899","0.0-21.0-0.2","SS1619204991008","","","null","","","","","","<p><img src= images/blank.png width =""600"" height = ""600"" style=""position:fixed;top:50%; left:50%; transform: translate(-50%, -50%); border:5px solid black"">","","","","","","","",""
"","2587.3599999995786","sequential-stimulus-presentation-old","84","338596","0.0-21.0-1.2","SS1619204991008","trial","","40","500","3087.3599999995786","images/stimuli/spore_stims/simple_05_A_a.gif","images/stimuli/spore_stims/simple_04_A_b.gif","forced_long","","6","simple_dissimilar","images/stimuli/spore_stims/simple_05_A_a.gif","","","","",""
"","null","html-keyboard-response","85","339599","0.0-21.0-0.3","SS1619204991008","","","null","","","","","","<p><img src= images/blank.png width =""600"" height = ""600"" style=""position:fixed;top:50%; left:50%; transform: translate(-50%, -50%); border:5px solid black"">","","","","","","","",""
"","496.11000000004424","sequential-stimulus-presentation-old","86","340605","0.0-21.0-1.3","SS1619204991008","trial","","40","500","996.1100000000442","images/stimuli/spore_stims/simple_05_A_a.gif","images/stimuli/spore_stims/simple_04_A_b.gif","forced_long","","6","simple_dissimilar","images/stimuli/spore_stims/simple_04_A_b.gif","","","","",""
"","2038.8050000001676","survey-multi-choice","87","342646","0.0-22.0","SS1619204991008","math_question","","","","","","","","","","","","{""Q0"":""10""}","[0]","10","",""
"","null","html-keyboard-response","88","343902","0.0-23.0-0.0","SS1619204991008","","","null","","","","","","<p><img src= images/blank.png width =""600"" height = ""600"" style=""position:fixed;top:50%; left:50%; transform: translate(-50%, -50%); border:5px solid black"">","","","","","","","",""
"","1596.8499999998603","sequential-stimulus-presentation-old","89","346003","0.0-23.0-1.0","SS1619204991008","trial","","40","500","2096.8499999998603","images/stimuli/spore_stims/complex_16_A_a.gif","images/stimuli/spore_stims/complex_09_A_b.gif","self_paced","","7","complex_dissimilar","images/stimuli/spore_stims/complex_09_A_b.gif","","","","",""
"","null","html-keyboard-response","90","347116","0.0-23.0-0.1","SS1619204991008","","","null","","","","","","<p><img src= images/blank.png width =""600"" height = ""600"" style=""position:fixed;top:50%; left:50%; transform: translate(-50%, -50%); border:5px solid black"">","","","","","","","",""
"","1520.7599999994272","sequential-stimulus-presentation-old","91","349140","0.0-23.0-1.1","SS1619204991008","trial","","40","500","2020.7599999994272","images/stimuli/spore_stims/complex_16_A_a.gif","images/stimuli/spore_stims/complex_09_A_b.gif","self_paced","","7","complex_dissimilar","images/stimuli/spore_stims/complex_09_A_b.gif","","","","",""
"","null","html-keyboard-response","92","350112","0.0-23.0-0.2","SS1619204991008","","","null","","","","","","<p><img src= images/blank.png width =""600"" height = ""600"" style=""position:fixed;top:50%; left:50%; transform: translate(-50%, -50%); border:5px solid black"">","","","","","","","",""
"","1316.559999999241","sequential-stimulus-presentation-old","93","351935","0.0-23.0-1.2","SS1619204991008","trial","","40","500","1816.559999999241","images/stimuli/spore_stims/complex_16_A_a.gif","images/stimuli/spore_stims/complex_09_A_b.gif","self_paced","","7","complex_dissimilar","images/stimuli/spore_stims/complex_09_A_b.gif","","","","",""
"","null","html-keyboard-response","94","352777","0.0-23.0-0.3","SS1619204991008","","","null","","","","","","<p><img src= images/blank.png width =""600"" height = ""600"" style=""position:fixed;top:50%; left:50%; transform: translate(-50%, -50%); border:5px solid black"">","","","","","","","",""
"","1294.7499999990687","sequential-stimulus-presentation-old","95","354578","0.0-23.0-1.3","SS1619204991008","trial","","40","500","1794.7499999990687","images/stimuli/spore_stims/complex_16_A_a.gif","images/stimuli/spore_stims/complex_09_A_b.gif","self_paced","","7","complex_dissimilar","images/stimuli/spore_stims/complex_09_A_b.gif","","","","",""
"","2387.5050000005867","survey-multi-choice","96","356968","0.0-24.0","SS1619204991008","math_question","","","","","","","","","","","","{""Q0"":""12""}","[0]","12","",""
"","null","html-keyboard-response","97","358090","0.0-25.0-0.0","SS1619204991008","","","null","","","","","","<p><img src= images/blank.png width =""600"" height = ""600"" style=""position:fixed;top:50%; left:50%; transform: translate(-50%, -50%); border:5px solid black"">","","","","","","","",""
"","2189.3700000000536","sequential-stimulus-presentation-old","98","371263","0.0-25.0-1.0","SS1619204991008","trial","","40","500","2689.3700000000536","images/stimuli/spore_stims/simple_18_A_a.gif","images/stimuli/spore_stims/simple_07_A_b.gif","forced_long","","8","simple_dissimilar","images/stimuli/spore_stims/simple_07_A_b.gif","","","","",""
"","null","html-keyboard-response","99","372454","0.0-25.0-0.1","SS1619204991008","","","null","","","","","","<p><img src= images/blank.png width =""600"" height = ""600"" style=""position:fixed;top:50%; left:50%; transform: translate(-50%, -50%); border:5px solid black"">","","","","","","","",""
"","6739.84500000003","sequential-stimulus-presentation-old","100","379701","0.0-25.0-1.1","SS1619204991008","trial","","40","500","7239.84500000003","images/stimuli/spore_stims/simple_18_A_a.gif","images/stimuli/spore_stims/simple_07_A_b.gif","forced_long","","8","simple_dissimilar","images/stimuli/spore_stims/simple_07_A_b.gif","","","","",""
"","null","html-keyboard-response","101","380750","0.0-25.0-0.2","SS1619204991008","","","null","","","","","","<p><img src= images/blank.png width =""600"" height = ""600"" style=""position:fixed;top:50%; left:50%; transform: translate(-50%, -50%); border:5px solid black"">","","","","","","","",""
"","567.6800000001676","sequential-stimulus-presentation-old","102","381823","0.0-25.0-1.2","SS1619204991008","trial","","40","500","1067.6800000001676","images/stimuli/spore_stims/simple_18_A_a.gif","images/stimuli/spore_stims/simple_07_A_b.gif","forced_long","","8","simple_dissimilar","images/stimuli/spore_stims/simple_07_A_b.gif","","","","",""
"","null","html-keyboard-response","103","383059","0.0-25.0-0.3","SS1619204991008","","","null","","","","","","<p><img src= images/blank.png width =""600"" height = ""600"" style=""position:fixed;top:50%; left:50%; transform: translate(-50%, -50%); border:5px solid black"">","","","","","","","",""
"","50119.91999999917","sequential-stimulus-presentation-old","104","433684","0.0-25.0-1.3","SS1619204991008","trial","","40","500","50619.91999999917","images/stimuli/spore_stims/simple_18_A_a.gif","images/stimuli/spore_stims/simple_07_A_b.gif","forced_long","","8","simple_dissimilar","images/stimuli/spore_stims/simple_07_A_b.gif","","","","",""
"","null","html-keyboard-response","105","434782","0.0-25.0-0.4","SS1619204991008","","","null","","","","","","<p><img src= images/blank.png width =""600"" height = ""600"" style=""position:fixed;top:50%; left:50%; transform: translate(-50%, -50%); border:5px solid black"">","","","","","","","",""
"","537.2399999996414","sequential-stimulus-presentation-old","106","435824","0.0-25.0-1.4","SS1619204991008","trial","","40","500","1037.2399999996414","images/stimuli/spore_stims/simple_18_A_a.gif","images/stimuli/spore_stims/simple_07_A_b.gif","forced_long","","8","simple_dissimilar","images/stimuli/spore_stims/simple_07_A_b.gif","","","","",""
"","2029.6099999995786","survey-multi-choice","107","437858","0.0-26.0","SS1619204991008","math_question","","","","","","","","","","","","{""Q0"":""11""}","[0]","11","",""
"","null","html-keyboard-response","108","439090","0.0-27.0-0.0","SS1619204991008","","","null","","","","","","<p><img src= images/blank.png width =""600"" height = ""600"" style=""position:fixed;top:50%; left:50%; transform: translate(-50%, -50%); border:5px solid black"">","","","","","","","",""
"","494.41499999922235","sequential-stimulus-presentation-old","109","440090","0.0-27.0-1.0","SS1619204991008","trial","","40","500","994.4149999992223","images/stimuli/spore_stims/complex_04_A_a.gif","images/stimuli/spore_stims/complex_20_A_b.gif","self_paced","","9","complex_dissimilar","images/stimuli/spore_stims/complex_20_A_b.gif","","","","",""
"","null","html-keyboard-response","110","440944","0.0-27.0-0.1","SS1619204991008","","","null","","","","","","<p><img src= images/blank.png width =""600"" height = ""600"" style=""position:fixed;top:50%; left:50%; transform: translate(-50%, -50%); border:5px solid black"">","","","","","","","",""
"","2003.0899999983376","sequential-stimulus-presentation-old","111","443454","0.0-27.0-1.1","SS1619204991008","trial","","40","500","2503.0899999983376","images/stimuli/spore_stims/complex_04_A_a.gif","images/stimuli/spore_stims/complex_20_A_b.gif","self_paced","","9","complex_dissimilar","images/stimuli/spore_stims/complex_20_A_b.gif","","","","",""
"","null","html-keyboard-response","112","444523","0.0-27.0-0.2","SS1619204991008","","","null","","","","","","<p><img src= images/blank.png width =""600"" height = ""600"" style=""position:fixed;top:50%; left:50%; transform: translate(-50%, -50%); border:5px solid black"">","","","","","","","",""
"","341.2949999983539","sequential-stimulus-presentation-old","113","445369","0.0-27.0-1.2","SS1619204991008","trial","","40","500","841.2949999983539","images/stimuli/spore_stims/complex_04_A_a.gif","images/stimuli/spore_stims/complex_20_A_b.gif","self_paced","","9","complex_dissimilar","images/stimuli/spore_stims/complex_20_A_b.gif","","","","",""
"","null","html-keyboard-response","114","446276","0.0-27.0-0.3","SS1619204991008","","","null","","","","","","<p><img src= images/blank.png width =""600"" height = ""600"" style=""position:fixed;top:50%; left:50%; transform: translate(-50%, -50%); border:5px solid black"">","","","","","","","",""
"","916.6999999997788","sequential-stimulus-presentation-old","115","447698","0.0-27.0-1.3","SS1619204991008","trial","","40","500","1416.6999999997788","images/stimuli/spore_stims/complex_04_A_a.gif","images/stimuli/spore_stims/complex_20_A_b.gif","self_paced","","9","complex_dissimilar","images/stimuli/spore_stims/complex_20_A_b.gif","","","","",""
"","2051.300000000978","survey-multi-choice","116","449752","0.0-28.0","SS1619204991008","math_question","","","","","","","","","","","","{""Q0"":""10""}","[0]","10","",""
"","null","html-keyboard-response","117","450618","0.0-29.0-0.0","SS1619204991008","","","null","","","","","","<p><img src= images/blank.png width =""600"" height = ""600"" style=""position:fixed;top:50%; left:50%; transform: translate(-50%, -50%); border:5px solid black"">","","","","","","","",""
"","4088.5600000001723","sequential-stimulus-presentation-old","118","454817","0.0-29.0-1.0","SS1619204991008","trial","","40","500","4588.560000000172","images/stimuli/spore_stims/complex_04_A_b.gif","images/stimuli/spore_stims/complex_14_A_a.gif","forced_short","","10","complex_dissimilar","images/stimuli/spore_stims/complex_14_A_a.gif","","","","",""
"","null","html-keyboard-response","119","455966","0.0-29.0-0.1","SS1619204991008","","","null","","","","","","<p><img src= images/blank.png width =""600"" height = ""600"" style=""position:fixed;top:50%; left:50%; transform: translate(-50%, -50%); border:5px solid black"">","","","","","","","",""
"","735.2800000007846","sequential-stimulus-presentation-old","120","457206","0.0-29.0-1.1","SS1619204991008","trial","","40","500","1235.2800000007846","images/stimuli/spore_stims/complex_04_A_b.gif","images/stimuli/spore_stims/complex_14_A_a.gif","forced_short","","10","complex_dissimilar","images/stimuli/spore_stims/complex_14_A_a.gif","","","","",""
"","null","html-keyboard-response","121","458467","0.0-29.0-0.2","SS1619204991008","","","null","","","","","","<p><img src= images/blank.png width =""600"" height = ""600"" style=""position:fixed;top:50%; left:50%; transform: translate(-50%, -50%); border:5px solid black"">","","","","","","","",""
"","1602.9899999994086","sequential-stimulus-presentation-old","122","460577","0.0-29.0-1.2","SS1619204991008","trial","","40","500","2102.9899999994086","images/stimuli/spore_stims/complex_04_A_b.gif","images/stimuli/spore_stims/complex_14_A_a.gif","forced_short","","10","complex_dissimilar","images/stimuli/spore_stims/complex_04_A_b.gif","","","","",""
"","null","html-keyboard-response","123","461737","0.0-29.0-0.3","SS1619204991008","","","null","","","","","","<p><img src= images/blank.png width =""600"" height = ""600"" style=""position:fixed;top:50%; left:50%; transform: translate(-50%, -50%); border:5px solid black"">","","","","","","","",""
"","1308.829999999958","sequential-stimulus-presentation-old","124","463554","0.0-29.0-1.3","SS1619204991008","trial","","40","500","1808.829999999958","images/stimuli/spore_stims/complex_04_A_b.gif","images/stimuli/spore_stims/complex_14_A_a.gif","forced_short","","10","complex_dissimilar","images/stimuli/spore_stims/complex_14_A_a.gif","","","","",""
"","null","html-keyboard-response","125","464374","0.0-29.0-0.4","SS1619204991008","","","null","","","","","","<p><img src= images/blank.png width =""600"" height = ""600"" style=""position:fixed;top:50%; left:50%; transform: translate(-50%, -50%); border:5px solid black"">","","","","","","","",""
"","621.9849999998114","sequential-stimulus-presentation-old","126","465503","0.0-29.0-1.4","SS1619204991008","trial","","40","500","1121.9849999998114","images/stimuli/spore_stims/complex_04_A_b.gif","images/stimuli/spore_stims/complex_14_A_a.gif","forced_short","","10","complex_dissimilar","images/stimuli/spore_stims/complex_04_A_b.gif","","","","",""
"","2507.2199999995064","survey-multi-choice","127","468024","0.0-30.0","SS1619204991008","math_question","","","","","","","","","","","","{""Q0"":""8""}","[0]","8","",""
"","null","html-keyboard-response","128","469022","0.0-31.0-0.0","SS1619204991008","","","null","","","","","","<p><img src= images/blank.png width =""600"" height = ""600"" style=""position:fixed;top:50%; left:50%; transform: translate(-50%, -50%); border:5px solid black"">","","","","","","","",""
"","2606.975000000559","sequential-stimulus-presentation-old","129","471736","0.0-31.0-1.0","SS1619204991008","trial","","40","500","3106.975000000559","images/stimuli/spore_stims/complex_11_A_b.gif","images/stimuli/spore_stims/complex_01_A_a.gif","forced_short","","11","complex_dissimilar","images/stimuli/spore_stims/complex_01_A_a.gif","","","","",""
"","null","html-keyboard-response","130","472856","0.0-31.0-0.1","SS1619204991008","","","null","","","","","","<p><img src= images/blank.png width =""600"" height = ""600"" style=""position:fixed;top:50%; left:50%; transform: translate(-50%, -50%); border:5px solid black"">","","","","","","","",""
"","1443.859999999404","sequential-stimulus-presentation-old","131","474804","0.0-31.0-1.1","SS1619204991008","trial","","40","500","1943.859999999404","images/stimuli/spore_stims/complex_11_A_b.gif","images/stimuli/spore_stims/complex_01_A_a.gif","forced_short","","11","complex_dissimilar","images/stimuli/spore_stims/complex_01_A_a.gif","","","","",""
"","null","html-keyboard-response","132","475680","0.0-31.0-0.2","SS1619204991008","","","null","","","","","","<p><img src= images/blank.png width =""600"" height = ""600"" style=""position:fixed;top:50%; left:50%; transform: translate(-50%, -50%); border:5px solid black"">","","","","","","","",""
"","1567.2549999999464","sequential-stimulus-presentation-old","133","477752","0.0-31.0-1.2","SS1619204991008","trial","","40","500","2067.2549999999464","images/stimuli/spore_stims/complex_11_A_b.gif","images/stimuli/spore_stims/complex_01_A_a.gif","forced_short","","11","complex_dissimilar","images/stimuli/spore_stims/complex_11_A_b.gif","","","","",""
"","null","html-keyboard-response","134","478906","0.0-31.0-0.3","SS1619204991008","","","null","","","","","","<p><img src= images/blank.png width =""600"" height = ""600"" style=""position:fixed;top:50%; left:50%; transform: translate(-50%, -50%); border:5px solid black"">","","","","","","","",""
"","1079.9999999999418","sequential-stimulus-presentation-old","135","480494","0.0-31.0-1.3","SS1619204991008","trial","","40","500","1579.9999999999418","images/stimuli/spore_stims/complex_11_A_b.gif","images/stimuli/spore_stims/complex_01_A_a.gif","forced_short","","11","complex_dissimilar","images/stimuli/spore_stims/complex_01_A_a.gif","","","","",""
"","null","html-keyboard-response","136","481493","0.0-31.0-0.4","SS1619204991008","","","null","","","","","","<p><img src= images/blank.png width =""600"" height = ""600"" style=""position:fixed;top:50%; left:50%; transform: translate(-50%, -50%); border:5px solid black"">","","","","","","","",""
"","1113.245000000461","sequential-stimulus-presentation-old","137","483112","0.0-31.0-1.4","SS1619204991008","trial","","40","500","1613.245000000461","images/stimuli/spore_stims/complex_11_A_b.gif","images/stimuli/spore_stims/complex_01_A_a.gif","forced_short","","11","complex_dissimilar","images/stimuli/spore_stims/complex_01_A_a.gif","","","","",""
"","null","html-keyboard-response","138","484117","0.0-31.0-0.5","SS1619204991008","","","null","","","","","","<p><img src= images/blank.png width =""600"" height = ""600"" style=""position:fixed;top:50%; left:50%; transform: translate(-50%, -50%); border:5px solid black"">","","","","","","","",""
"","1191.909999999567","sequential-stimulus-presentation-old","139","485816","0.0-31.0-1.5","SS1619204991008","trial","","40","500","1691.909999999567","images/stimuli/spore_stims/complex_11_A_b.gif","images/stimuli/spore_stims/complex_01_A_a.gif","forced_short","","11","complex_dissimilar","images/stimuli/spore_stims/complex_01_A_a.gif","","","","",""
"[{""page_index"":0,""viewing_time"":5182.4349999988335}]","5182.820000000007","instructions","140","491003","0.0-32.0","SS1619204991008","instructions","","","","","","","","","","","","","","","",""
"","5017.170000000973","survey-likert","141","496027","0.0-33.0","SS1619204991008","similarity_question","","","","","","","","","","","","{""Q0"":4}","[0]","","images/stimuli/spore_stims/complex_16_A_a.gif","images/stimuli/spore_stims/complex_09_A_b.gif"
"","3789.375000000291","survey-likert","142","499825","0.0-34.0","SS1619204991008","similarity_question","","","","","","","","","","","","{""Q0"":4}","[0]","","images/stimuli/spore_stims/complex_04_A_b.gif","images/stimuli/spore_stims/complex_14_A_a.gif"
"","5061.884999999194","survey-likert","143","504898","0.0-35.0","SS1619204991008","similarity_question","","","","","","","","","","","","{""Q0"":4}","[0]","","images/stimuli/spore_stims/complex_04_A_a.gif","images/stimuli/spore_stims/complex_20_A_b.gif"
"","4976.27999999898","survey-likert","144","509885","0.0-36.0","SS1619204991008","similarity_question","","","","","","","","","","","","{""Q0"":4}","[0]","","images/stimuli/spore_stims/simple_18_A_a.gif","images/stimuli/spore_stims/simple_07_A_b.gif"
"","4854.124999999825","survey-likert","145","514749","0.0-37.0","SS1619204991008","similarity_question","","","","","","","","","","","","{""Q0"":2}","[0]","","images/stimuli/spore_stims/complex_01_A_a.gif","images/stimuli/spore_stims/complex_11_A_b.gif"
"","4432.89499999996","survey-likert","146","519194","0.0-38.0","SS1619204991008","similarity_question","","","","","","","","","","","","{""Q0"":4}","[0]","","images/stimuli/spore_stims/simple_12_A_a.gif","images/stimuli/spore_stims/simple_05_A_b.gif"
"","3409.4400000012247","survey-likert","147","522613","0.0-39.0","SS1619204991008","similarity_question","","","","","","","","","","","","{""Q0"":4}","[0]","","images/stimuli/spore_stims/simple_13_A_a.gif","images/stimuli/spore_stims/simple_14_A_b.gif"
"","3290.6600000004983","survey-likert","148","525913","0.0-40.0","SS1619204991008","similarity_question","","","","","","","","","","","","{""Q0"":3}","[0]","","images/stimuli/spore_stims/simple_03_A_b.gif","images/stimuli/spore_stims/simple_16_A_a.gif"
"","2788.8050000001676","survey-likert","149","528715","0.0-41.0","SS1619204991008","similarity_question","","","","","","","","","","","","{""Q0"":5}","[0]","","images/stimuli/spore_stims/simple_04_A_b.gif","images/stimuli/spore_stims/simple_05_A_a.gif"
"","4383.319999999017","survey-likert","150","533113","0.0-42.0","SS1619204991008","similarity_question","","","","","","","","","","","","{""Q0"":1}","[0]","","images/stimuli/spore_stims/complex_14_A_b.gif","images/stimuli/spore_stims/complex_15_A_a.gif"
"","6227.064999999129","survey-likert","151","539351","0.0-43.0","SS1619204991008","similarity_question","","","","","","","","","","","","{""Q0"":3}","[0]","","images/stimuli/spore_stims/simple_15_A_a.gif","images/stimuli/spore_stims/simple_10_A_b.gif"
"","4986.310000000289","survey-likert","152","544348","0.0-44.0","SS1619204991008","similarity_question","","","","","","","","","","","","{""Q0"":1}","[0]","","images/stimuli/spore_stims/complex_17_A_b.gif","images/stimuli/spore_stims/complex_07_A_a.gif"
"[{""page_index"":0,""viewing_time"":3604.2649999998976}]","3604.5300000004936","instructions","153","547960","0.0-45.0","SS1619204991008","instructions","","","","","","","","","","","","","","","",""
"","3851.339999999269","survey-likert","154","551816","0.0-46.0","SS1619204991008","","","","","","","","","images/stimuli/spore_stims/complex_14_A_b.gif","","","","{""Q0"":4}","[0]","","",""
"","3484.164999999921","survey-likert","155","555312","0.0-47.0","SS1619204991008","","","","","","","","","images/stimuli/spore_stims/complex_20_A_b.gif","","","","{""Q0"":4}","[0]","","",""
"","4535.069999999949","survey-likert","156","559856","0.0-48.0","SS1619204991008","","","","","","","","","images/stimuli/spore_stims/complex_04_A_b.gif","","","","{""Q0"":5}","[0]","","",""
"","3317.3249999999534","survey-likert","157","563181","0.0-49.0","SS1619204991008","","","","","","","","","images/stimuli/spore_stims/simple_18_A_a.gif","","","","{""Q0"":1}","[0]","","",""
"","2873.8300000004238","survey-likert","158","566065","0.0-50.0","SS1619204991008","","","","","","","","","images/stimuli/spore_stims/simple_04_A_b.gif","","","","{""Q0"":0}","[0]","","",""
"","4524.834999998333","survey-likert","159","570601","0.0-51.0","SS1619204991008","","","","","","","","","images/stimuli/spore_stims/complex_17_A_b.gif","","","","{""Q0"":5}","[0]","","",""
"","2482.595000001369","survey-likert","160","573095","0.0-52.0","SS1619204991008","","","","","","","","","images/stimuli/spore_stims/simple_05_A_b.gif","","","","{""Q0"":0}","[0]","","",""
"","3122.9999999996508","survey-likert","161","576226","0.0-53.0","SS1619204991008","","","","","","","","","images/stimuli/spore_stims/complex_01_A_a.gif","","","","{""Q0"":4}","[0]","","",""
"","2915.940000000759","survey-likert","162","579151","0.0-54.0","SS1619204991008","","","","","","","","","images/stimuli/spore_stims/complex_16_A_a.gif","","","","{""Q0"":5}","[0]","","",""
"","2284.169999998994","survey-likert","163","581445","0.0-55.0","SS1619204991008","","","","","","","","","images/stimuli/spore_stims/simple_10_A_b.gif","","","","{""Q0"":0}","[0]","","",""
"","2453.269999999902","survey-likert","164","583912","0.0-56.0","SS1619204991008","","","","","","","","","images/stimuli/spore_stims/simple_13_A_a.gif","","","","{""Q0"":1}","[0]","","",""
"","2076.8750000006985","survey-likert","165","585998","0.0-57.0","SS1619204991008","","","","","","","","","images/stimuli/spore_stims/simple_03_A_b.gif","","","","{""Q0"":2}","[0]","","",""
"[{""page_index"":0,""viewing_time"":1733.0549999987707}]","1733.419999998645","instructions","166","587742","0.0-58.0","SS1619204991008","instructions","","","","","","","","","","","","","","","",""
"","2517.7450000009267","demog-age","167","590269","0.0-59.0","SS1619204991008","","","","","","","","","","","","","{""age"":""19""}","","","",""
"","3100.0750000003027","demog-ethnic-US","168","593378","0.0-60.0","SS1619204991008","","","","","","","","","","","","","{""ethnicity"":[""White""]}","[0]","","",""
"","13240.939999999711","demog-gender-and-education","169","606632","0.0-61.0","SS1619204991008","","","","","","","","","","","","","{""gender"":""Male"",""education"":""High school diploma""}","[0,1]","","",""
"","5857.889999999432","survey-text","170","612504","0.0-62.0","SS1619204991008","feedback","","","","","","","","","","","","{""Q0"":""No""}","","","",""
"[{""page_index"":0,""viewing_time"":1323.9350000004051}]","1324.2950000003912","instructions","171","613835","0.0-63.0","SS1619204991008","instructions","","","","","","","","","","","","","","","",""
