"view_history","rt","trial_type","trial_index","time_elapsed","internal_node_id","subject","stimulus_type","trial_stimulus","key_press","minimum_viewing_duration","trial_looking_time","block_deviant","block_background","exposure_type","stimulus","block_number","block_type","stimulus_displayed","responses","question_order","math_correct_answer","stimulus_left","stimulus_right"
"[{""page_index"":0,""viewing_time"":30986.1149999997}]","30987.209999999322","instructions","0","30989","0.0-0.0","SS1619205453897","","","","","","","","","","","","","","","","",""
"[{""page_index"":0,""viewing_time"":26313.999999998487},{""page_index"":1,""viewing_time"":18790.094999996654}]","45105.539999996836","instructions","1","78098","0.0-1.0","SS1619205453897","instructions","","","","","","","","","","","","","","","",""
"","11761.314999996102","sequential-stimulus-presentation-old","2","90365","0.0-2.0","SS1619205453897","","","40","500","12261.314999996102","null","null","self_paced","","","","","","","","",""
"","5302.539999996952","sequential-stimulus-presentation-old","3","96170","0.0-3.0","SS1619205453897","","","40","500","5802.539999996952","null","null","self_paced","","","","","","","","",""
"[{""page_index"":0,""viewing_time"":13297.135000000708}]","13297.385000005306","instructions","4","109468","0.0-4.0","SS1619205453897","instructions","","","","","","","","","","","","","","","",""
"","1047.1449999968172","sequential-stimulus-presentation-old","5","120520","0.0-5.0","SS1619205453897","","","40","500","1547.1449999968172","null","null","forced_long","","","","","","","","",""
"","3376.2600000045495","sequential-stimulus-presentation-old","6","124002","0.0-6.0","SS1619205453897","","","40","500","3876.2600000045495","null","null","forced_long","","","","","","","","",""
"[{""page_index"":0,""viewing_time"":4514.755000003788}]","4514.9900000033085","instructions","7","128518","0.0-7.0","SS1619205453897","instructions","","","","","","","","","","","","","","","",""
"[{""page_index"":0,""viewing_time"":8603.99999999936},{""page_index"":1,""viewing_time"":10796.849999998813},{""page_index"":2,""viewing_time"":8415.010000004258},{""page_index"":3,""viewing_time"":1019.5000000021537},{""page_index"":4,""viewing_time"":1945.1199999966775}]","30781.04500000336","instructions","8","159299","0.0-8.0","SS1619205453897","instructions","","","","","","","","","","","","","","","",""
"","null","html-keyboard-response","9","160224","0.0-9.0-0.0","SS1619205453897","","","null","","","","","","<p><img src= images/blank.png width =""600"" height = ""600"" style=""position:fixed;top:50%; left:50%; transform: translate(-50%, -50%); border:5px solid black"">","","","","","","","",""
"","578.7799999961862","sequential-stimulus-presentation-old","10","161308","0.0-9.0-1.0","SS1619205453897","trial","","40","500","1078.7799999961862","images/stimuli/spore_stims/simple_19_A_a.gif","images/stimuli/spore_stims/simple_07_A_b.gif","self_paced","","0","simple_dissimilar","images/stimuli/spore_stims/simple_07_A_b.gif","","","","",""
"","null","html-keyboard-response","11","162528","0.0-9.0-0.1","SS1619205453897","","","null","","","","","","<p><img src= images/blank.png width =""600"" height = ""600"" style=""position:fixed;top:50%; left:50%; transform: translate(-50%, -50%); border:5px solid black"">","","","","","","","",""
"","210.85000000311993","sequential-stimulus-presentation-old","12","163243","0.0-9.0-1.1","SS1619205453897","trial","","40","500","710.8500000031199","images/stimuli/spore_stims/simple_19_A_a.gif","images/stimuli/spore_stims/simple_07_A_b.gif","self_paced","","0","simple_dissimilar","images/stimuli/spore_stims/simple_07_A_b.gif","","","","",""
"","null","html-keyboard-response","13","164531","0.0-9.0-0.2","SS1619205453897","","","null","","","","","","<p><img src= images/blank.png width =""600"" height = ""600"" style=""position:fixed;top:50%; left:50%; transform: translate(-50%, -50%); border:5px solid black"">","","","","","","","",""
"","627.9799999974784","sequential-stimulus-presentation-old","14","165662","0.0-9.0-1.2","SS1619205453897","trial","","40","500","1127.9799999974784","images/stimuli/spore_stims/simple_19_A_a.gif","images/stimuli/spore_stims/simple_07_A_b.gif","self_paced","","0","simple_dissimilar","images/stimuli/spore_stims/simple_07_A_b.gif","","","","",""
"","null","html-keyboard-response","15","166726","0.0-9.0-0.3","SS1619205453897","","","null","","","","","","<p><img src= images/blank.png width =""600"" height = ""600"" style=""position:fixed;top:50%; left:50%; transform: translate(-50%, -50%); border:5px solid black"">","","","","","","","",""
"","26.8800000048941","sequential-stimulus-presentation-old","16","167259","0.0-9.0-1.3","SS1619205453897","trial","","40","500","526.8800000048941","images/stimuli/spore_stims/simple_19_A_a.gif","images/stimuli/spore_stims/simple_07_A_b.gif","self_paced","","0","simple_dissimilar","images/stimuli/spore_stims/simple_19_A_a.gif","","","","",""
"","5810.1800000004005","survey-multi-choice","17","173073","0.0-10.0","SS1619205453897","math_question","","","","","","","","","","","","{""Q0"":""9""}","[0]","9","",""
"","null","html-keyboard-response","18","173920","0.0-11.0-0.0","SS1619205453897","","","null","","","","","","<p><img src= images/blank.png width =""600"" height = ""600"" style=""position:fixed;top:50%; left:50%; transform: translate(-50%, -50%); border:5px solid black"">","","","","","","","",""
"","950.619999995979","sequential-stimulus-presentation-old","19","174977","0.0-11.0-1.0","SS1619205453897","trial","","40","500","1450.619999995979","images/stimuli/spore_stims/simple_06_A_a.gif","images/stimuli/spore_stims/simple_18_A_b.gif","forced_short","","1","simple_dissimilar","images/stimuli/spore_stims/simple_18_A_b.gif","","","","",""
"","null","html-keyboard-response","20","176169","0.0-11.0-0.1","SS1619205453897","","","null","","","","","","<p><img src= images/blank.png width =""600"" height = ""600"" style=""position:fixed;top:50%; left:50%; transform: translate(-50%, -50%); border:5px solid black"">","","","","","","","",""
"","682.9649999999674","sequential-stimulus-presentation-old","21","177358","0.0-11.0-1.1","SS1619205453897","trial","","40","500","1182.9649999999674","images/stimuli/spore_stims/simple_06_A_a.gif","images/stimuli/spore_stims/simple_18_A_b.gif","forced_short","","1","simple_dissimilar","images/stimuli/spore_stims/simple_18_A_b.gif","","","","",""
"","null","html-keyboard-response","22","178658","0.0-11.0-0.2","SS1619205453897","","","null","","","","","","<p><img src= images/blank.png width =""600"" height = ""600"" style=""position:fixed;top:50%; left:50%; transform: translate(-50%, -50%); border:5px solid black"">","","","","","","","",""
"","165.17999999632593","sequential-stimulus-presentation-old","23","179330","0.0-11.0-1.2","SS1619205453897","trial","","40","500","665.1799999963259","images/stimuli/spore_stims/simple_06_A_a.gif","images/stimuli/spore_stims/simple_18_A_b.gif","forced_short","","1","simple_dissimilar","images/stimuli/spore_stims/simple_06_A_a.gif","","","","",""
"","null","html-keyboard-response","24","180342","0.0-11.0-0.3","SS1619205453897","","","null","","","","","","<p><img src= images/blank.png width =""600"" height = ""600"" style=""position:fixed;top:50%; left:50%; transform: translate(-50%, -50%); border:5px solid black"">","","","","","","","",""
"","13.875000004190952","sequential-stimulus-presentation-old","25","180864","0.0-11.0-1.3","SS1619205453897","trial","","40","500","513.875000004191","images/stimuli/spore_stims/simple_06_A_a.gif","images/stimuli/spore_stims/simple_18_A_b.gif","forced_short","","1","simple_dissimilar","images/stimuli/spore_stims/simple_18_A_b.gif","","","","",""
"","null","html-keyboard-response","26","181775","0.0-11.0-0.4","SS1619205453897","","","null","","","","","","<p><img src= images/blank.png width =""600"" height = ""600"" style=""position:fixed;top:50%; left:50%; transform: translate(-50%, -50%); border:5px solid black"">","","","","","","","",""
"","4051.9750000021304","sequential-stimulus-presentation-old","27","186335","0.0-11.0-1.4","SS1619205453897","trial","","40","500","4551.97500000213","images/stimuli/spore_stims/simple_06_A_a.gif","images/stimuli/spore_stims/simple_18_A_b.gif","forced_short","","1","simple_dissimilar","images/stimuli/spore_stims/simple_18_A_b.gif","","","","",""
"","null","html-keyboard-response","28","187262","0.0-11.0-0.5","SS1619205453897","","","null","","","","","","<p><img src= images/blank.png width =""600"" height = ""600"" style=""position:fixed;top:50%; left:50%; transform: translate(-50%, -50%); border:5px solid black"">","","","","","","","",""
"","102.85499999736203","sequential-stimulus-presentation-old","29","187871","0.0-11.0-1.5","SS1619205453897","trial","","40","500","602.854999997362","images/stimuli/spore_stims/simple_06_A_a.gif","images/stimuli/spore_stims/simple_18_A_b.gif","forced_short","","1","simple_dissimilar","images/stimuli/spore_stims/simple_06_A_a.gif","","","","",""
"","4230.615000000398","survey-multi-choice","30","192105","0.0-12.0","SS1619205453897","math_question","","","","","","","","","","","","{""Q0"":""8""}","[0]","8","",""
"","null","html-keyboard-response","31","193242","0.0-13.0-0.0","SS1619205453897","","","null","","","","","","<p><img src= images/blank.png width =""600"" height = ""600"" style=""position:fixed;top:50%; left:50%; transform: translate(-50%, -50%); border:5px solid black"">","","","","","","","",""
"","326.53999999456573","sequential-stimulus-presentation-old","32","194076","0.0-13.0-1.0","SS1619205453897","trial","","40","500","826.5399999945657","images/stimuli/spore_stims/simple_02_A_b.gif","images/stimuli/spore_stims/simple_07_A_a.gif","self_paced","","2","simple_dissimilar","images/stimuli/spore_stims/simple_07_A_a.gif","","","","",""
"","null","html-keyboard-response","33","195059","0.0-13.0-0.1","SS1619205453897","","","null","","","","","","<p><img src= images/blank.png width =""600"" height = ""600"" style=""position:fixed;top:50%; left:50%; transform: translate(-50%, -50%); border:5px solid black"">","","","","","","","",""
"","392.8599999999278","sequential-stimulus-presentation-old","34","195956","0.0-13.0-1.1","SS1619205453897","trial","","40","500","892.8599999999278","images/stimuli/spore_stims/simple_02_A_b.gif","images/stimuli/spore_stims/simple_07_A_a.gif","self_paced","","2","simple_dissimilar","images/stimuli/spore_stims/simple_07_A_a.gif","","","","",""
"","null","html-keyboard-response","35","197076","0.0-13.0-0.2","SS1619205453897","","","null","","","","","","<p><img src= images/blank.png width =""600"" height = ""600"" style=""position:fixed;top:50%; left:50%; transform: translate(-50%, -50%); border:5px solid black"">","","","","","","","",""
"","383.52499999746215","sequential-stimulus-presentation-old","36","197964","0.0-13.0-1.2","SS1619205453897","trial","","40","500","883.5249999974621","images/stimuli/spore_stims/simple_02_A_b.gif","images/stimuli/spore_stims/simple_07_A_a.gif","self_paced","","2","simple_dissimilar","images/stimuli/spore_stims/simple_02_A_b.gif","","","","",""
"","null","html-keyboard-response","37","198953","0.0-13.0-0.3","SS1619205453897","","","null","","","","","","<p><img src= images/blank.png width =""600"" height = ""600"" style=""position:fixed;top:50%; left:50%; transform: translate(-50%, -50%); border:5px solid black"">","","","","","","","",""
"","269.56000000063796","sequential-stimulus-presentation-old","38","199729","0.0-13.0-1.3","SS1619205453897","trial","","40","500","769.560000000638","images/stimuli/spore_stims/simple_02_A_b.gif","images/stimuli/spore_stims/simple_07_A_a.gif","self_paced","","2","simple_dissimilar","images/stimuli/spore_stims/simple_02_A_b.gif","","","","",""
"","null","html-keyboard-response","39","200874","0.0-13.0-0.4","SS1619205453897","","","null","","","","","","<p><img src= images/blank.png width =""600"" height = ""600"" style=""position:fixed;top:50%; left:50%; transform: translate(-50%, -50%); border:5px solid black"">","","","","","","","",""
"","492.10499999753665","sequential-stimulus-presentation-old","40","201872","0.0-13.0-1.4","SS1619205453897","trial","","40","500","992.1049999975367","images/stimuli/spore_stims/simple_02_A_b.gif","images/stimuli/spore_stims/simple_07_A_a.gif","self_paced","","2","simple_dissimilar","images/stimuli/spore_stims/simple_07_A_a.gif","","","","",""
"","null","html-keyboard-response","41","203116","0.0-13.0-0.5","SS1619205453897","","","null","","","","","","<p><img src= images/blank.png width =""600"" height = ""600"" style=""position:fixed;top:50%; left:50%; transform: translate(-50%, -50%); border:5px solid black"">","","","","","","","",""
"","338.0800000013551","sequential-stimulus-presentation-old","42","203959","0.0-13.0-1.5","SS1619205453897","trial","","40","500","838.0800000013551","images/stimuli/spore_stims/simple_02_A_b.gif","images/stimuli/spore_stims/simple_07_A_a.gif","self_paced","","2","simple_dissimilar","images/stimuli/spore_stims/simple_07_A_a.gif","","","","",""
"","2853.5899999988033","survey-multi-choice","43","206816","0.0-14.0","SS1619205453897","math_question","","","","","","","","","","","","{""Q0"":""9""}","[0]","9","",""
"","null","html-keyboard-response","44","208021","0.0-15.0-0.0","SS1619205453897","","","null","","","","","","<p><img src= images/blank.png width =""600"" height = ""600"" style=""position:fixed;top:50%; left:50%; transform: translate(-50%, -50%); border:5px solid black"">","","","","","","","",""
"","320.6449999997858","sequential-stimulus-presentation-old","45","208447","0.0-15.0-1.0","SS1619205453897","trial","","40","500","820.6449999997858","images/stimuli/spore_stims/complex_01_A_a.gif","images/stimuli/spore_stims/complex_19_A_b.gif","forced_short","","3","complex_dissimilar","images/stimuli/spore_stims/complex_19_A_b.gif","","","","",""
"","null","html-keyboard-response","46","209691","0.0-15.0-0.1","SS1619205453897","","","null","","","","","","<p><img src= images/blank.png width =""600"" height = ""600"" style=""position:fixed;top:50%; left:50%; transform: translate(-50%, -50%); border:5px solid black"">","","","","","","","",""
"","721.5700000015204","sequential-stimulus-presentation-old","47","210921","0.0-15.0-1.1","SS1619205453897","trial","","40","500","1221.5700000015204","images/stimuli/spore_stims/complex_01_A_a.gif","images/stimuli/spore_stims/complex_19_A_b.gif","forced_short","","3","complex_dissimilar","images/stimuli/spore_stims/complex_19_A_b.gif","","","","",""
"","null","html-keyboard-response","48","212076","0.0-15.0-0.2","SS1619205453897","","","null","","","","","","<p><img src= images/blank.png width =""600"" height = ""600"" style=""position:fixed;top:50%; left:50%; transform: translate(-50%, -50%); border:5px solid black"">","","","","","","","",""
"","432.18999999953667","sequential-stimulus-presentation-old","49","213014","0.0-15.0-1.2","SS1619205453897","trial","","40","500","932.1899999995367","images/stimuli/spore_stims/complex_01_A_a.gif","images/stimuli/spore_stims/complex_19_A_b.gif","forced_short","","3","complex_dissimilar","images/stimuli/spore_stims/complex_19_A_b.gif","","","","",""
"","null","html-keyboard-response","50","214260","0.0-15.0-0.3","SS1619205453897","","","null","","","","","","<p><img src= images/blank.png width =""600"" height = ""600"" style=""position:fixed;top:50%; left:50%; transform: translate(-50%, -50%); border:5px solid black"">","","","","","","","",""
"","343.1549999950221","sequential-stimulus-presentation-old","51","215109","0.0-15.0-1.3","SS1619205453897","trial","","40","500","843.1549999950221","images/stimuli/spore_stims/complex_01_A_a.gif","images/stimuli/spore_stims/complex_19_A_b.gif","forced_short","","3","complex_dissimilar","images/stimuli/spore_stims/complex_19_A_b.gif","","","","",""
"","null","html-keyboard-response","52","216102","0.0-15.0-0.4","SS1619205453897","","","null","","","","","","<p><img src= images/blank.png width =""600"" height = ""600"" style=""position:fixed;top:50%; left:50%; transform: translate(-50%, -50%); border:5px solid black"">","","","","","","","",""
"","509.21000000380445","sequential-stimulus-presentation-old","53","217119","0.0-15.0-1.4","SS1619205453897","trial","","40","500","1009.2100000038045","images/stimuli/spore_stims/complex_01_A_a.gif","images/stimuli/spore_stims/complex_19_A_b.gif","forced_short","","3","complex_dissimilar","images/stimuli/spore_stims/complex_19_A_b.gif","","","","",""
"","2867.144999996526","survey-multi-choice","54","219990","0.0-16.0","SS1619205453897","math_question","","","","","","","","","","","","{""Q0"":""9""}","[0]","9","",""
"","null","html-keyboard-response","55","221205","0.0-17.0-0.0","SS1619205453897","","","null","","","","","","<p><img src= images/blank.png width =""600"" height = ""600"" style=""position:fixed;top:50%; left:50%; transform: translate(-50%, -50%); border:5px solid black"">","","","","","","","",""
"","160.42000000015832","sequential-stimulus-presentation-old","56","231376","0.0-17.0-1.0","SS1619205453897","trial","","40","500","660.4200000001583","images/stimuli/spore_stims/simple_15_A_a.gif","images/stimuli/spore_stims/simple_11_A_b.gif","forced_long","","4","simple_dissimilar","images/stimuli/spore_stims/simple_11_A_b.gif","","","","",""
"","null","html-keyboard-response","57","232627","0.0-17.0-0.1","SS1619205453897","","","null","","","","","","<p><img src= images/blank.png width =""600"" height = ""600"" style=""position:fixed;top:50%; left:50%; transform: translate(-50%, -50%); border:5px solid black"">","","","","","","","",""
"","387.78000000456814","sequential-stimulus-presentation-old","58","233523","0.0-17.0-1.1","SS1619205453897","trial","","40","500","887.7800000045681","images/stimuli/spore_stims/simple_15_A_a.gif","images/stimuli/spore_stims/simple_11_A_b.gif","forced_long","","4","simple_dissimilar","images/stimuli/spore_stims/simple_11_A_b.gif","","","","",""
"","null","html-keyboard-response","59","234391","0.0-17.0-0.2","SS1619205453897","","","null","","","","","","<p><img src= images/blank.png width =""600"" height = ""600"" style=""position:fixed;top:50%; left:50%; transform: translate(-50%, -50%); border:5px solid black"">","","","","","","","",""
"","379.0249999947264","sequential-stimulus-presentation-old","60","235276","0.0-17.0-1.2","SS1619205453897","trial","","40","500","879.0249999947264","images/stimuli/spore_stims/simple_15_A_a.gif","images/stimuli/spore_stims/simple_11_A_b.gif","forced_long","","4","simple_dissimilar","images/stimuli/spore_stims/simple_11_A_b.gif","","","","",""
"","null","html-keyboard-response","61","236577","0.0-17.0-0.3","SS1619205453897","","","null","","","","","","<p><img src= images/blank.png width =""600"" height = ""600"" style=""position:fixed;top:50%; left:50%; transform: translate(-50%, -50%); border:5px solid black"">","","","","","","","",""
"","315.2699999991455","sequential-stimulus-presentation-old","62","237399","0.0-17.0-1.3","SS1619205453897","trial","","40","500","815.2699999991455","images/stimuli/spore_stims/simple_15_A_a.gif","images/stimuli/spore_stims/simple_11_A_b.gif","forced_long","","4","simple_dissimilar","images/stimuli/spore_stims/simple_11_A_b.gif","","","","",""
"","null","html-keyboard-response","63","238352","0.0-17.0-0.4","SS1619205453897","","","null","","","","","","<p><img src= images/blank.png width =""600"" height = ""600"" style=""position:fixed;top:50%; left:50%; transform: translate(-50%, -50%); border:5px solid black"">","","","","","","","",""
"","638.4649999963585","sequential-stimulus-presentation-old","64","239495","0.0-17.0-1.4","SS1619205453897","trial","","40","500","1138.4649999963585","images/stimuli/spore_stims/simple_15_A_a.gif","images/stimuli/spore_stims/simple_11_A_b.gif","forced_long","","4","simple_dissimilar","images/stimuli/spore_stims/simple_15_A_a.gif","","","","",""
"","null","html-keyboard-response","65","240461","0.0-17.0-0.5","SS1619205453897","","","null","","","","","","<p><img src= images/blank.png width =""600"" height = ""600"" style=""position:fixed;top:50%; left:50%; transform: translate(-50%, -50%); border:5px solid black"">","","","","","","","",""
"","351.3149999998859","sequential-stimulus-presentation-old","66","241320","0.0-17.0-1.5","SS1619205453897","trial","","40","500","851.3149999998859","images/stimuli/spore_stims/simple_15_A_a.gif","images/stimuli/spore_stims/simple_11_A_b.gif","forced_long","","4","simple_dissimilar","images/stimuli/spore_stims/simple_15_A_a.gif","","","","",""
"","3600.4249999969034","survey-multi-choice","67","244923","0.0-18.0","SS1619205453897","math_question","","","","","","","","","","","","{""Q0"":""11""}","[0]","11","",""
"","null","html-keyboard-response","68","245907","0.0-19.0-0.0","SS1619205453897","","","null","","","","","","<p><img src= images/blank.png width =""600"" height = ""600"" style=""position:fixed;top:50%; left:50%; transform: translate(-50%, -50%); border:5px solid black"">","","","","","","","",""
"","4275.759999996808","sequential-stimulus-presentation-old","69","250295","0.0-19.0-1.0","SS1619205453897","trial","","40","500","4775.759999996808","images/stimuli/spore_stims/simple_16_A_b.gif","images/stimuli/spore_stims/simple_11_A_a.gif","forced_short","","5","simple_dissimilar","images/stimuli/spore_stims/simple_11_A_a.gif","","","","",""
"","null","html-keyboard-response","70","251320","0.0-19.0-0.1","SS1619205453897","","","null","","","","","","<p><img src= images/blank.png width =""600"" height = ""600"" style=""position:fixed;top:50%; left:50%; transform: translate(-50%, -50%); border:5px solid black"">","","","","","","","",""
"","534.4750000003842","sequential-stimulus-presentation-old","71","252361","0.0-19.0-1.1","SS1619205453897","trial","","40","500","1034.4750000003842","images/stimuli/spore_stims/simple_16_A_b.gif","images/stimuli/spore_stims/simple_11_A_a.gif","forced_short","","5","simple_dissimilar","images/stimuli/spore_stims/simple_16_A_b.gif","","","","",""
"","null","html-keyboard-response","72","253261","0.0-19.0-0.2","SS1619205453897","","","null","","","","","","<p><img src= images/blank.png width =""600"" height = ""600"" style=""position:fixed;top:50%; left:50%; transform: translate(-50%, -50%); border:5px solid black"">","","","","","","","",""
"","12.725000000500586","sequential-stimulus-presentation-old","73","253781","0.0-19.0-1.2","SS1619205453897","trial","","40","500","512.7250000005006","images/stimuli/spore_stims/simple_16_A_b.gif","images/stimuli/spore_stims/simple_11_A_a.gif","forced_short","","5","simple_dissimilar","images/stimuli/spore_stims/simple_11_A_a.gif","","","","",""
"","null","html-keyboard-response","74","254974","0.0-19.0-0.3","SS1619205453897","","","null","","","","","","<p><img src= images/blank.png width =""600"" height = ""600"" style=""position:fixed;top:50%; left:50%; transform: translate(-50%, -50%); border:5px solid black"">","","","","","","","",""
"","680.8799999998882","sequential-stimulus-presentation-old","75","256164","0.0-19.0-1.3","SS1619205453897","trial","","40","500","1180.8799999998882","images/stimuli/spore_stims/simple_16_A_b.gif","images/stimuli/spore_stims/simple_11_A_a.gif","forced_short","","5","simple_dissimilar","images/stimuli/spore_stims/simple_11_A_a.gif","","","","",""
"","null","html-keyboard-response","76","257359","0.0-19.0-0.4","SS1619205453897","","","null","","","","","","<p><img src= images/blank.png width =""600"" height = ""600"" style=""position:fixed;top:50%; left:50%; transform: translate(-50%, -50%); border:5px solid black"">","","","","","","","",""
"","163.2099999987986","sequential-stimulus-presentation-old","77","258030","0.0-19.0-1.4","SS1619205453897","trial","","40","500","663.2099999987986","images/stimuli/spore_stims/simple_16_A_b.gif","images/stimuli/spore_stims/simple_11_A_a.gif","forced_short","","5","simple_dissimilar","images/stimuli/spore_stims/simple_16_A_b.gif","","","","",""
"","5334.48500000668","survey-multi-choice","78","263368","0.0-20.0","SS1619205453897","math_question","","","","","","","","","","","","{""Q0"":""12""}","[0]","12","",""
"","null","html-keyboard-response","79","264325","0.0-21.0-0.0","SS1619205453897","","","null","","","","","","<p><img src= images/blank.png width =""600"" height = ""600"" style=""position:fixed;top:50%; left:50%; transform: translate(-50%, -50%); border:5px solid black"">","","","","","","","",""
"","921.0850000017672","sequential-stimulus-presentation-old","80","265357","0.0-21.0-1.0","SS1619205453897","trial","","40","500","1421.0850000017672","images/stimuli/spore_stims/complex_14_A_b.gif","images/stimuli/spore_stims/complex_10_A_a.gif","forced_short","","6","complex_dissimilar","images/stimuli/spore_stims/complex_10_A_a.gif","","","","",""
"","null","html-keyboard-response","81","266654","0.0-21.0-0.1","SS1619205453897","","","null","","","","","","<p><img src= images/blank.png width =""600"" height = ""600"" style=""position:fixed;top:50%; left:50%; transform: translate(-50%, -50%); border:5px solid black"">","","","","","","","",""
"","166.3849999968079","sequential-stimulus-presentation-old","82","267328","0.0-21.0-1.1","SS1619205453897","trial","","40","500","666.3849999968079","images/stimuli/spore_stims/complex_14_A_b.gif","images/stimuli/spore_stims/complex_10_A_a.gif","forced_short","","6","complex_dissimilar","images/stimuli/spore_stims/complex_10_A_a.gif","","","","",""
"","null","html-keyboard-response","83","268347","0.0-21.0-0.2","SS1619205453897","","","null","","","","","","<p><img src= images/blank.png width =""600"" height = ""600"" style=""position:fixed;top:50%; left:50%; transform: translate(-50%, -50%); border:5px solid black"">","","","","","","","",""
"","606.8449999947916","sequential-stimulus-presentation-old","84","269458","0.0-21.0-1.2","SS1619205453897","trial","","40","500","1106.8449999947916","images/stimuli/spore_stims/complex_14_A_b.gif","images/stimuli/spore_stims/complex_10_A_a.gif","forced_short","","6","complex_dissimilar","images/stimuli/spore_stims/complex_14_A_b.gif","","","","",""
"","null","html-keyboard-response","85","270695","0.0-21.0-0.3","SS1619205453897","","","null","","","","","","<p><img src= images/blank.png width =""600"" height = ""600"" style=""position:fixed;top:50%; left:50%; transform: translate(-50%, -50%); border:5px solid black"">","","","","","","","",""
"","25.09999999892898","sequential-stimulus-presentation-old","86","271228","0.0-21.0-1.3","SS1619205453897","trial","","40","500","525.099999998929","images/stimuli/spore_stims/complex_14_A_b.gif","images/stimuli/spore_stims/complex_10_A_a.gif","forced_short","","6","complex_dissimilar","images/stimuli/spore_stims/complex_10_A_a.gif","","","","",""
"","null","html-keyboard-response","87","272144","0.0-21.0-0.4","SS1619205453897","","","null","","","","","","<p><img src= images/blank.png width =""600"" height = ""600"" style=""position:fixed;top:50%; left:50%; transform: translate(-50%, -50%); border:5px solid black"">","","","","","","","",""
"","50.90999999811174","sequential-stimulus-presentation-old","88","272704","0.0-21.0-1.4","SS1619205453897","trial","","40","500","550.9099999981117","images/stimuli/spore_stims/complex_14_A_b.gif","images/stimuli/spore_stims/complex_10_A_a.gif","forced_short","","6","complex_dissimilar","images/stimuli/spore_stims/complex_10_A_a.gif","","","","",""
"","null","html-keyboard-response","89","273590","0.0-21.0-0.5","SS1619205453897","","","null","","","","","","<p><img src= images/blank.png width =""600"" height = ""600"" style=""position:fixed;top:50%; left:50%; transform: translate(-50%, -50%); border:5px solid black"">","","","","","","","",""
"","10.620000000926666","sequential-stimulus-presentation-old","90","274106","0.0-21.0-1.5","SS1619205453897","trial","","40","500","510.62000000092667","images/stimuli/spore_stims/complex_14_A_b.gif","images/stimuli/spore_stims/complex_10_A_a.gif","forced_short","","6","complex_dissimilar","images/stimuli/spore_stims/complex_10_A_a.gif","","","","",""
"","2923.275000001013","survey-multi-choice","91","277033","0.0-22.0","SS1619205453897","math_question","","","","","","","","","","","","{""Q0"":""12""}","[0]","12","",""
"","null","html-keyboard-response","92","278021","0.0-23.0-0.0","SS1619205453897","","","null","","","","","","<p><img src= images/blank.png width =""600"" height = ""600"" style=""position:fixed;top:50%; left:50%; transform: translate(-50%, -50%); border:5px solid black"">","","","","","","","",""
"","149.5599999980186","sequential-stimulus-presentation-old","93","278676","0.0-23.0-1.0","SS1619205453897","trial","","40","500","649.5599999980186","images/stimuli/spore_stims/complex_06_A_b.gif","images/stimuli/spore_stims/complex_18_A_a.gif","self_paced","","7","complex_dissimilar","images/stimuli/spore_stims/complex_18_A_a.gif","","","","",""
"","null","html-keyboard-response","94","279912","0.0-23.0-0.1","SS1619205453897","","","null","","","","","","<p><img src= images/blank.png width =""600"" height = ""600"" style=""position:fixed;top:50%; left:50%; transform: translate(-50%, -50%); border:5px solid black"">","","","","","","","",""
"","0.415000002249144","sequential-stimulus-presentation-old","95","280419","0.0-23.0-1.1","SS1619205453897","trial","","40","500","500.41500000224914","images/stimuli/spore_stims/complex_06_A_b.gif","images/stimuli/spore_stims/complex_18_A_a.gif","self_paced","","7","complex_dissimilar","images/stimuli/spore_stims/complex_18_A_a.gif","","","","",""
"","null","html-keyboard-response","96","281629","0.0-23.0-0.2","SS1619205453897","","","null","","","","","","<p><img src= images/blank.png width =""600"" height = ""600"" style=""position:fixed;top:50%; left:50%; transform: translate(-50%, -50%); border:5px solid black"">","","","","","","","",""
"","592.1050000033574","sequential-stimulus-presentation-old","97","282729","0.0-23.0-1.2","SS1619205453897","trial","","40","500","1092.1050000033574","images/stimuli/spore_stims/complex_06_A_b.gif","images/stimuli/spore_stims/complex_18_A_a.gif","self_paced","","7","complex_dissimilar","images/stimuli/spore_stims/complex_18_A_a.gif","","","","",""
"","null","html-keyboard-response","98","283809","0.0-23.0-0.3","SS1619205453897","","","null","","","","","","<p><img src= images/blank.png width =""600"" height = ""600"" style=""position:fixed;top:50%; left:50%; transform: translate(-50%, -50%); border:5px solid black"">","","","","","","","",""
"","5.810000002384186","sequential-stimulus-presentation-old","99","284320","0.0-23.0-1.3","SS1619205453897","trial","","40","500","505.8100000023842","images/stimuli/spore_stims/complex_06_A_b.gif","images/stimuli/spore_stims/complex_18_A_a.gif","self_paced","","7","complex_dissimilar","images/stimuli/spore_stims/complex_18_A_a.gif","","","","",""
"","null","html-keyboard-response","100","285136","0.0-23.0-0.4","SS1619205453897","","","null","","","","","","<p><img src= images/blank.png width =""600"" height = ""600"" style=""position:fixed;top:50%; left:50%; transform: translate(-50%, -50%); border:5px solid black"">","","","","","","","",""
"","460.30000000610016","sequential-stimulus-presentation-old","101","286101","0.0-23.0-1.4","SS1619205453897","trial","","40","500","960.3000000061002","images/stimuli/spore_stims/complex_06_A_b.gif","images/stimuli/spore_stims/complex_18_A_a.gif","self_paced","","7","complex_dissimilar","images/stimuli/spore_stims/complex_06_A_b.gif","","","","",""
"","5673.5849999968195","survey-multi-choice","102","291779","0.0-24.0","SS1619205453897","math_question","","","","","","","","","","","","{""Q0"":""10""}","[0]","10","",""
"","null","html-keyboard-response","103","292758","0.0-25.0-0.0","SS1619205453897","","","null","","","","","","<p><img src= images/blank.png width =""600"" height = ""600"" style=""position:fixed;top:50%; left:50%; transform: translate(-50%, -50%); border:5px solid black"">","","","","","","","",""
"","4541.860000004817","sequential-stimulus-presentation-old","104","307305","0.0-25.0-1.0","SS1619205453897","trial","","40","500","5041.860000004817","images/stimuli/spore_stims/complex_05_A_b.gif","images/stimuli/spore_stims/complex_11_A_a.gif","forced_long","","8","complex_dissimilar","images/stimuli/spore_stims/complex_11_A_a.gif","","","","",""
"","null","html-keyboard-response","105","308172","0.0-25.0-0.1","SS1619205453897","","","null","","","","","","<p><img src= images/blank.png width =""600"" height = ""600"" style=""position:fixed;top:50%; left:50%; transform: translate(-50%, -50%); border:5px solid black"">","","","","","","","",""
"","199.86999999673571","sequential-stimulus-presentation-old","106","308878","0.0-25.0-1.1","SS1619205453897","trial","","40","500","699.8699999967357","images/stimuli/spore_stims/complex_05_A_b.gif","images/stimuli/spore_stims/complex_11_A_a.gif","forced_long","","8","complex_dissimilar","images/stimuli/spore_stims/complex_05_A_b.gif","","","","",""
"","null","html-keyboard-response","107","310028","0.0-25.0-0.2","SS1619205453897","","","null","","","","","","<p><img src= images/blank.png width =""600"" height = ""600"" style=""position:fixed;top:50%; left:50%; transform: translate(-50%, -50%); border:5px solid black"">","","","","","","","",""
"","333.55000000301516","sequential-stimulus-presentation-old","108","310871","0.0-25.0-1.2","SS1619205453897","trial","","40","500","833.5500000030152","images/stimuli/spore_stims/complex_05_A_b.gif","images/stimuli/spore_stims/complex_11_A_a.gif","forced_long","","8","complex_dissimilar","images/stimuli/spore_stims/complex_11_A_a.gif","","","","",""
"","null","html-keyboard-response","109","312114","0.0-25.0-0.3","SS1619205453897","","","null","","","","","","<p><img src= images/blank.png width =""600"" height = ""600"" style=""position:fixed;top:50%; left:50%; transform: translate(-50%, -50%); border:5px solid black"">","","","","","","","",""
"","100.29500000382541","sequential-stimulus-presentation-old","110","312723","0.0-25.0-1.3","SS1619205453897","trial","","40","500","600.2950000038254","images/stimuli/spore_stims/complex_05_A_b.gif","images/stimuli/spore_stims/complex_11_A_a.gif","forced_long","","8","complex_dissimilar","images/stimuli/spore_stims/complex_11_A_a.gif","","","","",""
"","null","html-keyboard-response","111","313811","0.0-25.0-0.4","SS1619205453897","","","null","","","","","","<p><img src= images/blank.png width =""600"" height = ""600"" style=""position:fixed;top:50%; left:50%; transform: translate(-50%, -50%); border:5px solid black"">","","","","","","","",""
"","168.50500000145985","sequential-stimulus-presentation-old","112","314489","0.0-25.0-1.4","SS1619205453897","trial","","40","500","668.5050000014598","images/stimuli/spore_stims/complex_05_A_b.gif","images/stimuli/spore_stims/complex_11_A_a.gif","forced_long","","8","complex_dissimilar","images/stimuli/spore_stims/complex_11_A_a.gif","","","","",""
"","4249.340000002121","survey-multi-choice","113","318742","0.0-26.0","SS1619205453897","math_question","","","","","","","","","","","","{""Q0"":""14""}","[0]","14","",""
"","null","html-keyboard-response","114","319612","0.0-27.0-0.0","SS1619205453897","","","null","","","","","","<p><img src= images/blank.png width =""600"" height = ""600"" style=""position:fixed;top:50%; left:50%; transform: translate(-50%, -50%); border:5px solid black"">","","","","","","","",""
"","5231.265000002168","sequential-stimulus-presentation-old","115","334851","0.0-27.0-1.0","SS1619205453897","trial","","40","500","5731.265000002168","images/stimuli/spore_stims/simple_16_A_a.gif","images/stimuli/spore_stims/simple_20_A_b.gif","forced_long","","9","simple_dissimilar","images/stimuli/spore_stims/simple_20_A_b.gif","","","","",""
"","null","html-keyboard-response","116","336013","0.0-27.0-0.1","SS1619205453897","","","null","","","","","","<p><img src= images/blank.png width =""600"" height = ""600"" style=""position:fixed;top:50%; left:50%; transform: translate(-50%, -50%); border:5px solid black"">","","","","","","","",""
"","204.21999999962281","sequential-stimulus-presentation-old","117","336727","0.0-27.0-1.1","SS1619205453897","trial","","40","500","704.2199999996228","images/stimuli/spore_stims/simple_16_A_a.gif","images/stimuli/spore_stims/simple_20_A_b.gif","forced_long","","9","simple_dissimilar","images/stimuli/spore_stims/simple_20_A_b.gif","","","","",""
"","null","html-keyboard-response","118","337558","0.0-27.0-0.2","SS1619205453897","","","null","","","","","","<p><img src= images/blank.png width =""600"" height = ""600"" style=""position:fixed;top:50%; left:50%; transform: translate(-50%, -50%); border:5px solid black"">","","","","","","","",""
"","413.2099999987986","sequential-stimulus-presentation-old","119","338478","0.0-27.0-1.2","SS1619205453897","trial","","40","500","913.2099999987986","images/stimuli/spore_stims/simple_16_A_a.gif","images/stimuli/spore_stims/simple_20_A_b.gif","forced_long","","9","simple_dissimilar","images/stimuli/spore_stims/simple_20_A_b.gif","","","","",""
"","null","html-keyboard-response","120","339399","0.0-27.0-0.3","SS1619205453897","","","null","","","","","","<p><img src= images/blank.png width =""600"" height = ""600"" style=""position:fixed;top:50%; left:50%; transform: translate(-50%, -50%); border:5px solid black"">","","","","","","","",""
"","106.51500000676606","sequential-stimulus-presentation-old","121","340014","0.0-27.0-1.3","SS1619205453897","trial","","40","500","606.5150000067661","images/stimuli/spore_stims/simple_16_A_a.gif","images/stimuli/spore_stims/simple_20_A_b.gif","forced_long","","9","simple_dissimilar","images/stimuli/spore_stims/simple_16_A_a.gif","","","","",""
"","null","html-keyboard-response","122","341180","0.0-27.0-0.4","SS1619205453897","","","null","","","","","","<p><img src= images/blank.png width =""600"" height = ""600"" style=""position:fixed;top:50%; left:50%; transform: translate(-50%, -50%); border:5px solid black"">","","","","","","","",""
"","139.50499999918975","sequential-stimulus-presentation-old","123","341829","0.0-27.0-1.4","SS1619205453897","trial","","40","500","639.5049999991897","images/stimuli/spore_stims/simple_16_A_a.gif","images/stimuli/spore_stims/simple_20_A_b.gif","forced_long","","9","simple_dissimilar","images/stimuli/spore_stims/simple_16_A_a.gif","","","","",""
"","8244.58500000037","survey-multi-choice","124","350077","0.0-28.0","SS1619205453897","math_question","","","","","","","","","","","","{""Q0"":""9""}","[0]","9","",""
"","null","html-keyboard-response","125","351184","0.0-29.0-0.0","SS1619205453897","","","null","","","","","","<p><img src= images/blank.png width =""600"" height = ""600"" style=""position:fixed;top:50%; left:50%; transform: translate(-50%, -50%); border:5px solid black"">","","","","","","","",""
"","641.7050000018207","sequential-stimulus-presentation-old","126","352331","0.0-29.0-1.0","SS1619205453897","trial","","40","500","1141.7050000018207","images/stimuli/spore_stims/complex_06_A_a.gif","images/stimuli/spore_stims/complex_18_A_b.gif","self_paced","","10","complex_dissimilar","images/stimuli/spore_stims/complex_18_A_b.gif","","","","",""
"","null","html-keyboard-response","127","353240","0.0-29.0-0.1","SS1619205453897","","","null","","","","","","<p><img src= images/blank.png width =""600"" height = ""600"" style=""position:fixed;top:50%; left:50%; transform: translate(-50%, -50%); border:5px solid black"">","","","","","","","",""
"","51.97000000043772","sequential-stimulus-presentation-old","128","353799","0.0-29.0-1.1","SS1619205453897","trial","","40","500","551.9700000004377","images/stimuli/spore_stims/complex_06_A_a.gif","images/stimuli/spore_stims/complex_18_A_b.gif","self_paced","","10","complex_dissimilar","images/stimuli/spore_stims/complex_18_A_b.gif","","","","",""
"","null","html-keyboard-response","129","354765","0.0-29.0-0.2","SS1619205453897","","","null","","","","","","<p><img src= images/blank.png width =""600"" height = ""600"" style=""position:fixed;top:50%; left:50%; transform: translate(-50%, -50%); border:5px solid black"">","","","","","","","",""
"","421.44000000553206","sequential-stimulus-presentation-old","130","355694","0.0-29.0-1.2","SS1619205453897","trial","","40","500","921.440000005532","images/stimuli/spore_stims/complex_06_A_a.gif","images/stimuli/spore_stims/complex_18_A_b.gif","self_paced","","10","complex_dissimilar","images/stimuli/spore_stims/complex_18_A_b.gif","","","","",""
"","null","html-keyboard-response","131","356574","0.0-29.0-0.3","SS1619205453897","","","null","","","","","","<p><img src= images/blank.png width =""600"" height = ""600"" style=""position:fixed;top:50%; left:50%; transform: translate(-50%, -50%); border:5px solid black"">","","","","","","","",""
"","50.004999997327104","sequential-stimulus-presentation-old","132","357129","0.0-29.0-1.3","SS1619205453897","trial","","40","500","550.0049999973271","images/stimuli/spore_stims/complex_06_A_a.gif","images/stimuli/spore_stims/complex_18_A_b.gif","self_paced","","10","complex_dissimilar","images/stimuli/spore_stims/complex_18_A_b.gif","","","","",""
"","null","html-keyboard-response","133","358282","0.0-29.0-0.4","SS1619205453897","","","null","","","","","","<p><img src= images/blank.png width =""600"" height = ""600"" style=""position:fixed;top:50%; left:50%; transform: translate(-50%, -50%); border:5px solid black"">","","","","","","","",""
"","423.9400000005844","sequential-stimulus-presentation-old","134","359216","0.0-29.0-1.4","SS1619205453897","trial","","40","500","923.9400000005844","images/stimuli/spore_stims/complex_06_A_a.gif","images/stimuli/spore_stims/complex_18_A_b.gif","self_paced","","10","complex_dissimilar","images/stimuli/spore_stims/complex_18_A_b.gif","","","","",""
"","null","html-keyboard-response","135","360478","0.0-29.0-0.5","SS1619205453897","","","null","","","","","","<p><img src= images/blank.png width =""600"" height = ""600"" style=""position:fixed;top:50%; left:50%; transform: translate(-50%, -50%); border:5px solid black"">","","","","","","","",""
"","346.40500000386965","sequential-stimulus-presentation-old","136","361330","0.0-29.0-1.5","SS1619205453897","trial","","40","500","846.4050000038696","images/stimuli/spore_stims/complex_06_A_a.gif","images/stimuli/spore_stims/complex_18_A_b.gif","self_paced","","10","complex_dissimilar","images/stimuli/spore_stims/complex_06_A_a.gif","","","","",""
"","3287.3949999993783","survey-multi-choice","137","364621","0.0-30.0","SS1619205453897","math_question","","","","","","","","","","","","{""Q0"":""11""}","[0]","11","",""
"","null","html-keyboard-response","138","365437","0.0-31.0-0.0","SS1619205453897","","","null","","","","","","<p><img src= images/blank.png width =""600"" height = ""600"" style=""position:fixed;top:50%; left:50%; transform: translate(-50%, -50%); border:5px solid black"">","","","","","","","",""
"","5005.95500000054","sequential-stimulus-presentation-old","139","380448","0.0-31.0-1.0","SS1619205453897","trial","","40","500","5505.95500000054","images/stimuli/spore_stims/complex_19_A_a.gif","images/stimuli/spore_stims/complex_15_A_b.gif","forced_long","","11","complex_dissimilar","images/stimuli/spore_stims/complex_15_A_b.gif","","","","",""
"","null","html-keyboard-response","140","381750","0.0-31.0-0.1","SS1619205453897","","","null","","","","","","<p><img src= images/blank.png width =""600"" height = ""600"" style=""position:fixed;top:50%; left:50%; transform: translate(-50%, -50%); border:5px solid black"">","","","","","","","",""
"","130.67999999475433","sequential-stimulus-presentation-old","141","382388","0.0-31.0-1.1","SS1619205453897","trial","","40","500","630.6799999947543","images/stimuli/spore_stims/complex_19_A_a.gif","images/stimuli/spore_stims/complex_15_A_b.gif","forced_long","","11","complex_dissimilar","images/stimuli/spore_stims/complex_15_A_b.gif","","","","",""
"","null","html-keyboard-response","142","383639","0.0-31.0-0.2","SS1619205453897","","","null","","","","","","<p><img src= images/blank.png width =""600"" height = ""600"" style=""position:fixed;top:50%; left:50%; transform: translate(-50%, -50%); border:5px solid black"">","","","","","","","",""
"","516.8750000011642","sequential-stimulus-presentation-old","143","384662","0.0-31.0-1.2","SS1619205453897","trial","","40","500","1016.8750000011642","images/stimuli/spore_stims/complex_19_A_a.gif","images/stimuli/spore_stims/complex_15_A_b.gif","forced_long","","11","complex_dissimilar","images/stimuli/spore_stims/complex_15_A_b.gif","","","","",""
"","null","html-keyboard-response","144","385783","0.0-31.0-0.3","SS1619205453897","","","null","","","","","","<p><img src= images/blank.png width =""600"" height = ""600"" style=""position:fixed;top:50%; left:50%; transform: translate(-50%, -50%); border:5px solid black"">","","","","","","","",""
"","76.97000000189291","sequential-stimulus-presentation-old","145","386367","0.0-31.0-1.3","SS1619205453897","trial","","40","500","576.9700000018929","images/stimuli/spore_stims/complex_19_A_a.gif","images/stimuli/spore_stims/complex_15_A_b.gif","forced_long","","11","complex_dissimilar","images/stimuli/spore_stims/complex_15_A_b.gif","","","","",""
"","null","html-keyboard-response","146","387493","0.0-31.0-0.4","SS1619205453897","","","null","","","","","","<p><img src= images/blank.png width =""600"" height = ""600"" style=""position:fixed;top:50%; left:50%; transform: translate(-50%, -50%); border:5px solid black"">","","","","","","","",""
"","94.03000000020256","sequential-stimulus-presentation-old","147","388094","0.0-31.0-1.4","SS1619205453897","trial","","40","500","594.0300000002026","images/stimuli/spore_stims/complex_19_A_a.gif","images/stimuli/spore_stims/complex_15_A_b.gif","forced_long","","11","complex_dissimilar","images/stimuli/spore_stims/complex_15_A_b.gif","","","","",""
"","null","html-keyboard-response","148","389146","0.0-31.0-0.5","SS1619205453897","","","null","","","","","","<p><img src= images/blank.png width =""600"" height = ""600"" style=""position:fixed;top:50%; left:50%; transform: translate(-50%, -50%); border:5px solid black"">","","","","","","","",""
"","126.7599999991944","sequential-stimulus-presentation-old","149","389784","0.0-31.0-1.5","SS1619205453897","trial","","40","500","626.7599999991944","images/stimuli/spore_stims/complex_19_A_a.gif","images/stimuli/spore_stims/complex_15_A_b.gif","forced_long","","11","complex_dissimilar","images/stimuli/spore_stims/complex_15_A_b.gif","","","","",""
"[{""page_index"":0,""viewing_time"":1760.3849999941303}]","1760.709999995015","instructions","150","391550","0.0-32.0","SS1619205453897","instructions","","","","","","","","","","","","","","","",""
"","8697.715000002063","survey-likert","151","400252","0.0-33.0","SS1619205453897","similarity_question","","","","","","","","","","","","{""Q0"":4}","[0]","","images/stimuli/spore_stims/simple_06_A_a.gif","images/stimuli/spore_stims/simple_18_A_b.gif"
"","4866.974999997183","survey-likert","152","405129","0.0-34.0","SS1619205453897","similarity_question","","","","","","","","","","","","{""Q0"":4}","[0]","","images/stimuli/spore_stims/simple_19_A_a.gif","images/stimuli/spore_stims/simple_07_A_b.gif"
"","3862.5299999985145","survey-likert","153","409002","0.0-35.0","SS1619205453897","similarity_question","","","","","","","","","","","","{""Q0"":5}","[0]","","images/stimuli/spore_stims/complex_18_A_a.gif","images/stimuli/spore_stims/complex_06_A_b.gif"
"","5274.355000001378","survey-likert","154","414284","0.0-36.0","SS1619205453897","similarity_question","","","","","","","","","","","","{""Q0"":2}","[0]","","images/stimuli/spore_stims/simple_02_A_b.gif","images/stimuli/spore_stims/simple_07_A_a.gif"
"","5300.445000000764","survey-likert","155","419594","0.0-37.0","SS1619205453897","similarity_question","","","","","","","","","","","","{""Q0"":4}","[0]","","images/stimuli/spore_stims/complex_01_A_a.gif","images/stimuli/spore_stims/complex_19_A_b.gif"
"","3262.705000001006","survey-likert","156","422868","0.0-38.0","SS1619205453897","similarity_question","","","","","","","","","","","","{""Q0"":6}","[0]","","images/stimuli/spore_stims/simple_16_A_b.gif","images/stimuli/spore_stims/simple_11_A_a.gif"
"","3604.5650000014575","survey-likert","157","426483","0.0-39.0","SS1619205453897","similarity_question","","","","","","","","","","","","{""Q0"":4}","[0]","","images/stimuli/spore_stims/complex_18_A_b.gif","images/stimuli/spore_stims/complex_06_A_a.gif"
"","3319.3000000028405","survey-likert","158","429810","0.0-40.0","SS1619205453897","similarity_question","","","","","","","","","","","","{""Q0"":4}","[0]","","images/stimuli/spore_stims/simple_15_A_a.gif","images/stimuli/spore_stims/simple_11_A_b.gif"
"","3742.1549999999115","survey-likert","159","433564","0.0-41.0","SS1619205453897","similarity_question","","","","","","","","","","","","{""Q0"":4}","[0]","","images/stimuli/spore_stims/complex_10_A_a.gif","images/stimuli/spore_stims/complex_14_A_b.gif"
"","4713.0249999972875","survey-likert","160","438286","0.0-42.0","SS1619205453897","similarity_question","","","","","","","","","","","","{""Q0"":4}","[0]","","images/stimuli/spore_stims/complex_11_A_a.gif","images/stimuli/spore_stims/complex_05_A_b.gif"
"","4472.959999999148","survey-likert","161","442767","0.0-43.0","SS1619205453897","similarity_question","","","","","","","","","","","","{""Q0"":2}","[0]","","images/stimuli/spore_stims/simple_16_A_a.gif","images/stimuli/spore_stims/simple_20_A_b.gif"
"","4523.609999996552","survey-likert","162","447300","0.0-44.0","SS1619205453897","similarity_question","","","","","","","","","","","","{""Q0"":2}","[0]","","images/stimuli/spore_stims/complex_19_A_a.gif","images/stimuli/spore_stims/complex_15_A_b.gif"
"[{""page_index"":0,""viewing_time"":1425.7649999999558}]","1426.1249999981374","instructions","163","448733","0.0-45.0","SS1619205453897","instructions","","","","","","","","","","","","","","","",""
"","6737.1299999940675","survey-likert","164","455475","0.0-46.0","SS1619205453897","","","","","","","","","images/stimuli/spore_stims/simple_15_A_a.gif","","","","{""Q0"":2}","[0]","","",""
"","6767.990000000282","survey-likert","165","462253","0.0-47.0","SS1619205453897","","","","","","","","","images/stimuli/spore_stims/complex_14_A_b.gif","","","","{""Q0"":4}","[0]","","",""
"","2464.1350000019884","survey-likert","166","464725","0.0-48.0","SS1619205453897","","","","","","","","","images/stimuli/spore_stims/simple_02_A_b.gif","","","","{""Q0"":2}","[0]","","",""
"","5266.459999998915","survey-likert","167","470002","0.0-49.0","SS1619205453897","","","","","","","","","images/stimuli/spore_stims/simple_11_A_a.gif","","","","{""Q0"":2}","[0]","","",""
"","2483.5200000015902","survey-likert","168","472495","0.0-50.0","SS1619205453897","","","","","","","","","images/stimuli/spore_stims/simple_18_A_b.gif","","","","{""Q0"":2}","[0]","","",""
"","2948.0250000051456","survey-likert","169","475455","0.0-51.0","SS1619205453897","","","","","","","","","images/stimuli/spore_stims/complex_18_A_a.gif","","","","{""Q0"":5}","[0]","","",""
"","2861.2900000007357","survey-likert","170","478323","0.0-52.0","SS1619205453897","","","","","","","","","images/stimuli/spore_stims/complex_19_A_b.gif","","","","{""Q0"":5}","[0]","","",""
"","3139.1849999999977","survey-likert","171","481474","0.0-53.0","SS1619205453897","","","","","","","","","images/stimuli/spore_stims/simple_07_A_b.gif","","","","{""Q0"":2}","[0]","","",""
"","6581.050000000687","survey-likert","172","488066","0.0-54.0","SS1619205453897","","","","","","","","","images/stimuli/spore_stims/simple_20_A_b.gif","","","","{""Q0"":2}","[0]","","",""
"","2761.4900000044145","survey-likert","173","490839","0.0-55.0","SS1619205453897","","","","","","","","","images/stimuli/spore_stims/complex_18_A_b.gif","","","","{""Q0"":4}","[0]","","",""
"","2673.1399999989662","survey-likert","174","493521","0.0-56.0","SS1619205453897","","","","","","","","","images/stimuli/spore_stims/complex_11_A_a.gif","","","","{""Q0"":4}","[0]","","",""
"","2599.769999993441","survey-likert","175","496131","0.0-57.0","SS1619205453897","","","","","","","","","images/stimuli/spore_stims/complex_19_A_a.gif","","","","{""Q0"":4}","[0]","","",""
"[{""page_index"":0,""viewing_time"":1366.474999995262}]","1366.7500000010477","instructions","176","497508","0.0-58.0","SS1619205453897","instructions","","","","","","","","","","","","","","","",""
"","3762.220000004163","demog-age","177","501283","0.0-59.0","SS1619205453897","","","","","","","","","","","","","{""age"":""23""}","","","",""
"","5142.470000006142","demog-ethnic-US","178","506432","0.0-60.0","SS1619205453897","","","","","","","","","","","","","{""ethnicity"":[""White""]}","[0]","","",""
"","5601.399999999558","demog-gender-and-education","179","512043","0.0-61.0","SS1619205453897","","","","","","","","","","","","","{""gender"":""Female"",""education"":""Master's Degree""}","[0,1]","","",""
"","5219.105000003823","survey-text","180","517275","0.0-62.0","SS1619205453897","feedback","","","","","","","","","","","","{""Q0"":""no""}","","","",""
"[{""page_index"":0,""viewing_time"":987.0599999994738}]","987.3499999957858","instructions","181","518268","0.0-63.0","SS1619205453897","instructions","","","","","","","","","","","","","","","",""
