"view_history","rt","trial_type","trial_index","time_elapsed","internal_node_id","subject","stimulus_type","trial_stimulus","key_press","minimum_viewing_duration","trial_looking_time","block_deviant","block_background","exposure_type","stimulus","block_number","block_type","stimulus_displayed","responses","question_order","math_correct_answer","stimulus_left","stimulus_right"
"[{""page_index"":0,""viewing_time"":10396.999999997206}]","10397.464999987278","instructions","0","10398","0.0-0.0","SS1619125619115","","","","","","","","","","","","","","","","",""
"[{""page_index"":0,""viewing_time"":56433.26999997953},{""page_index"":1,""viewing_time"":7733.2900000037625}]","64166.70499998145","instructions","1","76566","0.0-1.0","SS1619125619115","instructions","","","","","","","","","","","","","","","",""
"","5302.474999974947","sequential-stimulus-presentation-old","2","82371","0.0-2.0","SS1619125619115","","","40","500","5802.474999974947","null","null","self_paced","","","","","","","","",""
"","5562.504999979865","sequential-stimulus-presentation-old","3","88435","0.0-3.0","SS1619125619115","","","40","500","6062.504999979865","null","null","self_paced","","","","","","","","",""
"[{""page_index"":0,""viewing_time"":20400.445000006584}]","20400.59000000474","instructions","4","108836","0.0-4.0","SS1619125619115","instructions","","","","","","","","","","","","","","","",""
"","421.65999999269843","sequential-stimulus-presentation-old","5","119260","0.0-5.0","SS1619125619115","","","40","500","921.6599999926984","null","null","forced_long","","","","","","","","",""
"","1963.545000005979","sequential-stimulus-presentation-old","6","121325","0.0-6.0","SS1619125619115","","","40","500","2463.545000005979","null","null","forced_long","","","","","","","","",""
"[{""page_index"":0,""viewing_time"":2714.354999974603}]","2714.4899999839254","instructions","7","124040","0.0-7.0","SS1619125619115","instructions","","","","","","","","","","","","","","","",""
"[{""page_index"":0,""viewing_time"":11452.30000000447},{""page_index"":1,""viewing_time"":7532.9449999844655},{""page_index"":2,""viewing_time"":5731.2500000116415},{""page_index"":3,""viewing_time"":1771.8799999856856},{""page_index"":4,""viewing_time"":1554.9200000241399}]","28043.44000000856","instructions","8","152084","0.0-8.0","SS1619125619115","instructions","","","","","","","","","","","","","","","",""
"","null","html-keyboard-response","9","152929","0.0-9.0-0.0","SS1619125619115","","","null","","","","","","<p><img src= images/blank.png width =""600"" height = ""600"" style=""position:fixed;top:50%; left:50%; transform: translate(-50%, -50%); border:5px solid black"">","","","","","","","",""
"","145352.84999999567","sequential-stimulus-presentation-old","10","298785","0.0-9.0-1.0","SS1619125619115","trial","","40","500","145852.84999999567","images/stimuli/spore_stims/simple_02_A_a.gif","images/stimuli/spore_stims/simple_19_A_b.gif","self_paced","","0","simple_dissimilar","images/stimuli/spore_stims/simple_19_A_b.gif","","","","",""
"","null","html-keyboard-response","11","299830","0.0-9.0-0.1","SS1619125619115","","","null","","","","","","<p><img src= images/blank.png width =""600"" height = ""600"" style=""position:fixed;top:50%; left:50%; transform: translate(-50%, -50%); border:5px solid black"">","","","","","","","",""
"","17853.040000016335","sequential-stimulus-presentation-old","12","318185","0.0-9.0-1.1","SS1619125619115","trial","","40","500","18353.040000016335","images/stimuli/spore_stims/simple_02_A_a.gif","images/stimuli/spore_stims/simple_19_A_b.gif","self_paced","","0","simple_dissimilar","images/stimuli/spore_stims/simple_19_A_b.gif","","","","",""
"","null","html-keyboard-response","13","319264","0.0-9.0-0.2","SS1619125619115","","","null","","","","","","<p><img src= images/blank.png width =""600"" height = ""600"" style=""position:fixed;top:50%; left:50%; transform: translate(-50%, -50%); border:5px solid black"">","","","","","","","",""
"","14590.720000007423","sequential-stimulus-presentation-old","14","334356","0.0-9.0-1.2","SS1619125619115","trial","","40","500","15090.720000007423","images/stimuli/spore_stims/simple_02_A_a.gif","images/stimuli/spore_stims/simple_19_A_b.gif","self_paced","","0","simple_dissimilar","images/stimuli/spore_stims/simple_19_A_b.gif","","","","",""
"","null","html-keyboard-response","15","335343","0.0-9.0-0.3","SS1619125619115","","","null","","","","","","<p><img src= images/blank.png width =""600"" height = ""600"" style=""position:fixed;top:50%; left:50%; transform: translate(-50%, -50%); border:5px solid black"">","","","","","","","",""
"","93362.24499999662","sequential-stimulus-presentation-old","16","429208","0.0-9.0-1.3","SS1619125619115","trial","","40","500","93862.24499999662","images/stimuli/spore_stims/simple_02_A_a.gif","images/stimuli/spore_stims/simple_19_A_b.gif","self_paced","","0","simple_dissimilar","images/stimuli/spore_stims/simple_02_A_a.gif","","","","",""
"","null","html-keyboard-response","17","430409","0.0-9.0-0.4","SS1619125619115","","","null","","","","","","<p><img src= images/blank.png width =""600"" height = ""600"" style=""position:fixed;top:50%; left:50%; transform: translate(-50%, -50%); border:5px solid black"">","","","","","","","",""
"","1703.0650000087917","sequential-stimulus-presentation-old","18","432613","0.0-9.0-1.4","SS1619125619115","trial","","40","500","2203.0650000087917","images/stimuli/spore_stims/simple_02_A_a.gif","images/stimuli/spore_stims/simple_19_A_b.gif","self_paced","","0","simple_dissimilar","images/stimuli/spore_stims/simple_19_A_b.gif","","","","",""
"","6907.37000000081","survey-multi-choice","19","439523","0.0-10.0","SS1619125619115","math_question","","","","","","","","","","","","{""Q0"":""7""}","[0]","7","",""
"","null","html-keyboard-response","20","440551","0.0-11.0-0.0","SS1619125619115","","","null","","","","","","<p><img src= images/blank.png width =""600"" height = ""600"" style=""position:fixed;top:50%; left:50%; transform: translate(-50%, -50%); border:5px solid black"">","","","","","","","",""
"","7485.4599999962375","sequential-stimulus-presentation-old","21","448540","0.0-11.0-1.0","SS1619125619115","trial","","40","500","7985.4599999962375","images/stimuli/spore_stims/complex_07_A_b.gif","images/stimuli/spore_stims/complex_13_A_a.gif","self_paced","","1","complex_dissimilar","images/stimuli/spore_stims/complex_13_A_a.gif","","","","",""
"","null","html-keyboard-response","22","449656","0.0-11.0-0.1","SS1619125619115","","","null","","","","","","<p><img src= images/blank.png width =""600"" height = ""600"" style=""position:fixed;top:50%; left:50%; transform: translate(-50%, -50%); border:5px solid black"">","","","","","","","",""
"","7349.244999990333","sequential-stimulus-presentation-old","23","457508","0.0-11.0-1.1","SS1619125619115","trial","","40","500","7849.244999990333","images/stimuli/spore_stims/complex_07_A_b.gif","images/stimuli/spore_stims/complex_13_A_a.gif","self_paced","","1","complex_dissimilar","images/stimuli/spore_stims/complex_13_A_a.gif","","","","",""
"","null","html-keyboard-response","24","458741","0.0-11.0-0.2","SS1619125619115","","","null","","","","","","<p><img src= images/blank.png width =""600"" height = ""600"" style=""position:fixed;top:50%; left:50%; transform: translate(-50%, -50%); border:5px solid black"">","","","","","","","",""
"","3078.110000002198","sequential-stimulus-presentation-old","25","462322","0.0-11.0-1.2","SS1619125619115","trial","","40","500","3578.110000002198","images/stimuli/spore_stims/complex_07_A_b.gif","images/stimuli/spore_stims/complex_13_A_a.gif","self_paced","","1","complex_dissimilar","images/stimuli/spore_stims/complex_13_A_a.gif","","","","",""
"","null","html-keyboard-response","26","463376","0.0-11.0-0.3","SS1619125619115","","","null","","","","","","<p><img src= images/blank.png width =""600"" height = ""600"" style=""position:fixed;top:50%; left:50%; transform: translate(-50%, -50%); border:5px solid black"">","","","","","","","",""
"","1804.119999986142","sequential-stimulus-presentation-old","27","465682","0.0-11.0-1.3","SS1619125619115","trial","","40","500","2304.119999986142","images/stimuli/spore_stims/complex_07_A_b.gif","images/stimuli/spore_stims/complex_13_A_a.gif","self_paced","","1","complex_dissimilar","images/stimuli/spore_stims/complex_13_A_a.gif","","","","",""
"","null","html-keyboard-response","28","466755","0.0-11.0-0.4","SS1619125619115","","","null","","","","","","<p><img src= images/blank.png width =""600"" height = ""600"" style=""position:fixed;top:50%; left:50%; transform: translate(-50%, -50%); border:5px solid black"">","","","","","","","",""
"","1339.3050000013318","sequential-stimulus-presentation-old","29","468597","0.0-11.0-1.4","SS1619125619115","trial","","40","500","1839.3050000013318","images/stimuli/spore_stims/complex_07_A_b.gif","images/stimuli/spore_stims/complex_13_A_a.gif","self_paced","","1","complex_dissimilar","images/stimuli/spore_stims/complex_13_A_a.gif","","","","",""
"","null","html-keyboard-response","30","469584","0.0-11.0-0.5","SS1619125619115","","","null","","","","","","<p><img src= images/blank.png width =""600"" height = ""600"" style=""position:fixed;top:50%; left:50%; transform: translate(-50%, -50%); border:5px solid black"">","","","","","","","",""
"","2322.2100000130013","sequential-stimulus-presentation-old","31","472408","0.0-11.0-1.5","SS1619125619115","trial","","40","500","2822.2100000130013","images/stimuli/spore_stims/complex_07_A_b.gif","images/stimuli/spore_stims/complex_13_A_a.gif","self_paced","","1","complex_dissimilar","images/stimuli/spore_stims/complex_13_A_a.gif","","","","",""
"","3789.9949999991804","survey-multi-choice","32","476199","0.0-12.0","SS1619125619115","math_question","","","","","","","","","","","","{""Q0"":""6""}","[0]","6","",""
"","null","html-keyboard-response","33","477404","0.0-13.0-0.0","SS1619125619115","","","null","","","","","","<p><img src= images/blank.png width =""600"" height = ""600"" style=""position:fixed;top:50%; left:50%; transform: translate(-50%, -50%); border:5px solid black"">","","","","","","","",""
"","1176.1800000094809","sequential-stimulus-presentation-old","34","478683","0.0-13.0-1.0","SS1619125619115","trial","","40","500","1676.1800000094809","images/stimuli/spore_stims/simple_15_A_a.gif","images/stimuli/spore_stims/simple_03_A_b.gif","forced_short","","2","simple_dissimilar","images/stimuli/spore_stims/simple_03_A_b.gif","","","","",""
"","null","html-keyboard-response","35","479800","0.0-13.0-0.1","SS1619125619115","","","null","","","","","","<p><img src= images/blank.png width =""600"" height = ""600"" style=""position:fixed;top:50%; left:50%; transform: translate(-50%, -50%); border:5px solid black"">","","","","","","","",""
"","5641.229999979259","sequential-stimulus-presentation-old","36","485944","0.0-13.0-1.1","SS1619125619115","trial","","40","500","6141.229999979259","images/stimuli/spore_stims/simple_15_A_a.gif","images/stimuli/spore_stims/simple_03_A_b.gif","forced_short","","2","simple_dissimilar","images/stimuli/spore_stims/simple_03_A_b.gif","","","","",""
"","null","html-keyboard-response","37","486930","0.0-13.0-0.2","SS1619125619115","","","null","","","","","","<p><img src= images/blank.png width =""600"" height = ""600"" style=""position:fixed;top:50%; left:50%; transform: translate(-50%, -50%); border:5px solid black"">","","","","","","","",""
"","3429.280000011204","sequential-stimulus-presentation-old","38","490862","0.0-13.0-1.2","SS1619125619115","trial","","40","500","3929.280000011204","images/stimuli/spore_stims/simple_15_A_a.gif","images/stimuli/spore_stims/simple_03_A_b.gif","forced_short","","2","simple_dissimilar","images/stimuli/spore_stims/simple_03_A_b.gif","","","","",""
"","null","html-keyboard-response","39","491830","0.0-13.0-0.3","SS1619125619115","","","null","","","","","","<p><img src= images/blank.png width =""600"" height = ""600"" style=""position:fixed;top:50%; left:50%; transform: translate(-50%, -50%); border:5px solid black"">","","","","","","","",""
"","5551.60999999498","sequential-stimulus-presentation-old","40","497884","0.0-13.0-1.3","SS1619125619115","trial","","40","500","6051.60999999498","images/stimuli/spore_stims/simple_15_A_a.gif","images/stimuli/spore_stims/simple_03_A_b.gif","forced_short","","2","simple_dissimilar","images/stimuli/spore_stims/simple_03_A_b.gif","","","","",""
"","null","html-keyboard-response","41","498990","0.0-13.0-0.4","SS1619125619115","","","null","","","","","","<p><img src= images/blank.png width =""600"" height = ""600"" style=""position:fixed;top:50%; left:50%; transform: translate(-50%, -50%); border:5px solid black"">","","","","","","","",""
"","4613.305000006221","sequential-stimulus-presentation-old","42","504107","0.0-13.0-1.4","SS1619125619115","trial","","40","500","5113.305000006221","images/stimuli/spore_stims/simple_15_A_a.gif","images/stimuli/spore_stims/simple_03_A_b.gif","forced_short","","2","simple_dissimilar","images/stimuli/spore_stims/simple_15_A_a.gif","","","","",""
"","null","html-keyboard-response","43","505175","0.0-13.0-0.5","SS1619125619115","","","null","","","","","","<p><img src= images/blank.png width =""600"" height = ""600"" style=""position:fixed;top:50%; left:50%; transform: translate(-50%, -50%); border:5px solid black"">","","","","","","","",""
"","3877.2299999836832","sequential-stimulus-presentation-old","44","509555","0.0-13.0-1.5","SS1619125619115","trial","","40","500","4377.229999983683","images/stimuli/spore_stims/simple_15_A_a.gif","images/stimuli/spore_stims/simple_03_A_b.gif","forced_short","","2","simple_dissimilar","images/stimuli/spore_stims/simple_03_A_b.gif","","","","",""
"","3978.980000014417","survey-multi-choice","45","513535","0.0-14.0","SS1619125619115","math_question","","","","","","","","","","","","{""Q0"":""10""}","[0]","10","",""
"","null","html-keyboard-response","46","514497","0.0-15.0-0.0","SS1619125619115","","","null","","","","","","<p><img src= images/blank.png width =""600"" height = ""600"" style=""position:fixed;top:50%; left:50%; transform: translate(-50%, -50%); border:5px solid black"">","","","","","","","",""
"","2307.3999999905936","sequential-stimulus-presentation-old","47","517307","0.0-15.0-1.0","SS1619125619115","trial","","40","500","2807.3999999905936","images/stimuli/spore_stims/complex_15_A_b.gif","images/stimuli/spore_stims/complex_05_A_a.gif","self_paced","","3","complex_dissimilar","images/stimuli/spore_stims/complex_05_A_a.gif","","","","",""
"","null","html-keyboard-response","48","518600","0.0-15.0-0.1","SS1619125619115","","","null","","","","","","<p><img src= images/blank.png width =""600"" height = ""600"" style=""position:fixed;top:50%; left:50%; transform: translate(-50%, -50%); border:5px solid black"">","","","","","","","",""
"","965.2850000129547","sequential-stimulus-presentation-old","49","520068","0.0-15.0-1.1","SS1619125619115","trial","","40","500","1465.2850000129547","images/stimuli/spore_stims/complex_15_A_b.gif","images/stimuli/spore_stims/complex_05_A_a.gif","self_paced","","3","complex_dissimilar","images/stimuli/spore_stims/complex_05_A_a.gif","","","","",""
"","null","html-keyboard-response","50","521204","0.0-15.0-0.2","SS1619125619115","","","null","","","","","","<p><img src= images/blank.png width =""600"" height = ""600"" style=""position:fixed;top:50%; left:50%; transform: translate(-50%, -50%); border:5px solid black"">","","","","","","","",""
"","1885.599999979604","sequential-stimulus-presentation-old","51","523593","0.0-15.0-1.2","SS1619125619115","trial","","40","500","2385.599999979604","images/stimuli/spore_stims/complex_15_A_b.gif","images/stimuli/spore_stims/complex_05_A_a.gif","self_paced","","3","complex_dissimilar","images/stimuli/spore_stims/complex_05_A_a.gif","","","","",""
"","null","html-keyboard-response","52","524683","0.0-15.0-0.3","SS1619125619115","","","null","","","","","","<p><img src= images/blank.png width =""600"" height = ""600"" style=""position:fixed;top:50%; left:50%; transform: translate(-50%, -50%); border:5px solid black"">","","","","","","","",""
"","1887.3099999909755","sequential-stimulus-presentation-old","53","527073","0.0-15.0-1.3","SS1619125619115","trial","","40","500","2387.3099999909755","images/stimuli/spore_stims/complex_15_A_b.gif","images/stimuli/spore_stims/complex_05_A_a.gif","self_paced","","3","complex_dissimilar","images/stimuli/spore_stims/complex_05_A_a.gif","","","","",""
"","null","html-keyboard-response","54","528195","0.0-15.0-0.4","SS1619125619115","","","null","","","","","","<p><img src= images/blank.png width =""600"" height = ""600"" style=""position:fixed;top:50%; left:50%; transform: translate(-50%, -50%); border:5px solid black"">","","","","","","","",""
"","4306.814999989001","sequential-stimulus-presentation-old","55","533005","0.0-15.0-1.4","SS1619125619115","trial","","40","500","4806.814999989001","images/stimuli/spore_stims/complex_15_A_b.gif","images/stimuli/spore_stims/complex_05_A_a.gif","self_paced","","3","complex_dissimilar","images/stimuli/spore_stims/complex_15_A_b.gif","","","","",""
"","null","html-keyboard-response","56","533828","0.0-15.0-0.5","SS1619125619115","","","null","","","","","","<p><img src= images/blank.png width =""600"" height = ""600"" style=""position:fixed;top:50%; left:50%; transform: translate(-50%, -50%); border:5px solid black"">","","","","","","","",""
"","2279.260000010254","sequential-stimulus-presentation-old","57","536610","0.0-15.0-1.5","SS1619125619115","trial","","40","500","2779.260000010254","images/stimuli/spore_stims/complex_15_A_b.gif","images/stimuli/spore_stims/complex_05_A_a.gif","self_paced","","3","complex_dissimilar","images/stimuli/spore_stims/complex_15_A_b.gif","","","","",""
"","4178.160000010394","survey-multi-choice","58","540789","0.0-16.0","SS1619125619115","math_question","","","","","","","","","","","","{""Q0"":""9""}","[0]","9","",""
"","null","html-keyboard-response","59","541993","0.0-17.0-0.0","SS1619125619115","","","null","","","","","","<p><img src= images/blank.png width =""600"" height = ""600"" style=""position:fixed;top:50%; left:50%; transform: translate(-50%, -50%); border:5px solid black"">","","","","","","","",""
"","1094.1949999833014","sequential-stimulus-presentation-old","60","553090","0.0-17.0-1.0","SS1619125619115","trial","","40","500","1594.1949999833014","images/stimuli/spore_stims/complex_03_A_b.gif","images/stimuli/spore_stims/complex_14_A_a.gif","forced_long","","4","complex_dissimilar","images/stimuli/spore_stims/complex_14_A_a.gif","","","","",""
"","null","html-keyboard-response","61","554330","0.0-17.0-0.1","SS1619125619115","","","null","","","","","","<p><img src= images/blank.png width =""600"" height = ""600"" style=""position:fixed;top:50%; left:50%; transform: translate(-50%, -50%); border:5px solid black"">","","","","","","","",""
"","510.3999999992084","sequential-stimulus-presentation-old","62","555343","0.0-17.0-1.1","SS1619125619115","trial","","40","500","1010.3999999992084","images/stimuli/spore_stims/complex_03_A_b.gif","images/stimuli/spore_stims/complex_14_A_a.gif","forced_long","","4","complex_dissimilar","images/stimuli/spore_stims/complex_14_A_a.gif","","","","",""
"","null","html-keyboard-response","63","556395","0.0-17.0-0.2","SS1619125619115","","","null","","","","","","<p><img src= images/blank.png width =""600"" height = ""600"" style=""position:fixed;top:50%; left:50%; transform: translate(-50%, -50%); border:5px solid black"">","","","","","","","",""
"","1217.239999998128","sequential-stimulus-presentation-old","64","558115","0.0-17.0-1.2","SS1619125619115","trial","","40","500","1717.239999998128","images/stimuli/spore_stims/complex_03_A_b.gif","images/stimuli/spore_stims/complex_14_A_a.gif","forced_long","","4","complex_dissimilar","images/stimuli/spore_stims/complex_14_A_a.gif","","","","",""
"","null","html-keyboard-response","65","558979","0.0-17.0-0.3","SS1619125619115","","","null","","","","","","<p><img src= images/blank.png width =""600"" height = ""600"" style=""position:fixed;top:50%; left:50%; transform: translate(-50%, -50%); border:5px solid black"">","","","","","","","",""
"","3447.3349999752827","sequential-stimulus-presentation-old","66","562929","0.0-17.0-1.3","SS1619125619115","trial","","40","500","3947.3349999752827","images/stimuli/spore_stims/complex_03_A_b.gif","images/stimuli/spore_stims/complex_14_A_a.gif","forced_long","","4","complex_dissimilar","images/stimuli/spore_stims/complex_14_A_a.gif","","","","",""
"","null","html-keyboard-response","67","563767","0.0-17.0-0.4","SS1619125619115","","","null","","","","","","<p><img src= images/blank.png width =""600"" height = ""600"" style=""position:fixed;top:50%; left:50%; transform: translate(-50%, -50%); border:5px solid black"">","","","","","","","",""
"","2589.46499999729","sequential-stimulus-presentation-old","68","566859","0.0-17.0-1.4","SS1619125619115","trial","","40","500","3089.46499999729","images/stimuli/spore_stims/complex_03_A_b.gif","images/stimuli/spore_stims/complex_14_A_a.gif","forced_long","","4","complex_dissimilar","images/stimuli/spore_stims/complex_03_A_b.gif","","","","",""
"","4348.70500001125","survey-multi-choice","69","571209","0.0-18.0","SS1619125619115","math_question","","","","","","","","","","","","{""Q0"":""10""}","[0]","10","",""
"","null","html-keyboard-response","70","572017","0.0-19.0-0.0","SS1619125619115","","","null","","","","","","<p><img src= images/blank.png width =""600"" height = ""600"" style=""position:fixed;top:50%; left:50%; transform: translate(-50%, -50%); border:5px solid black"">","","","","","","","",""
"","858.3100000105333","sequential-stimulus-presentation-old","71","572979","0.0-19.0-1.0","SS1619125619115","trial","","40","500","1358.3100000105333","images/stimuli/spore_stims/complex_19_A_a.gif","images/stimuli/spore_stims/complex_08_A_b.gif","forced_short","","5","complex_dissimilar","images/stimuli/spore_stims/complex_08_A_b.gif","","","","",""
"","null","html-keyboard-response","72","574181","0.0-19.0-0.1","SS1619125619115","","","null","","","","","","<p><img src= images/blank.png width =""600"" height = ""600"" style=""position:fixed;top:50%; left:50%; transform: translate(-50%, -50%); border:5px solid black"">","","","","","","","",""
"","776.4749999914784","sequential-stimulus-presentation-old","73","575461","0.0-19.0-1.1","SS1619125619115","trial","","40","500","1276.4749999914784","images/stimuli/spore_stims/complex_19_A_a.gif","images/stimuli/spore_stims/complex_08_A_b.gif","forced_short","","5","complex_dissimilar","images/stimuli/spore_stims/complex_08_A_b.gif","","","","",""
"","null","html-keyboard-response","74","576292","0.0-19.0-0.2","SS1619125619115","","","null","","","","","","<p><img src= images/blank.png width =""600"" height = ""600"" style=""position:fixed;top:50%; left:50%; transform: translate(-50%, -50%); border:5px solid black"">","","","","","","","",""
"","2137.3200000089128","sequential-stimulus-presentation-old","75","578934","0.0-19.0-1.2","SS1619125619115","trial","","40","500","2637.3200000089128","images/stimuli/spore_stims/complex_19_A_a.gif","images/stimuli/spore_stims/complex_08_A_b.gif","forced_short","","5","complex_dissimilar","images/stimuli/spore_stims/complex_08_A_b.gif","","","","",""
"","null","html-keyboard-response","76","579915","0.0-19.0-0.3","SS1619125619115","","","null","","","","","","<p><img src= images/blank.png width =""600"" height = ""600"" style=""position:fixed;top:50%; left:50%; transform: translate(-50%, -50%); border:5px solid black"">","","","","","","","",""
"","826.2999999860767","sequential-stimulus-presentation-old","77","581245","0.0-19.0-1.3","SS1619125619115","trial","","40","500","1326.2999999860767","images/stimuli/spore_stims/complex_19_A_a.gif","images/stimuli/spore_stims/complex_08_A_b.gif","forced_short","","5","complex_dissimilar","images/stimuli/spore_stims/complex_08_A_b.gif","","","","",""
"","null","html-keyboard-response","78","582353","0.0-19.0-0.4","SS1619125619115","","","null","","","","","","<p><img src= images/blank.png width =""600"" height = ""600"" style=""position:fixed;top:50%; left:50%; transform: translate(-50%, -50%); border:5px solid black"">","","","","","","","",""
"","1120.329999976093","sequential-stimulus-presentation-old","79","583977","0.0-19.0-1.4","SS1619125619115","trial","","40","500","1620.329999976093","images/stimuli/spore_stims/complex_19_A_a.gif","images/stimuli/spore_stims/complex_08_A_b.gif","forced_short","","5","complex_dissimilar","images/stimuli/spore_stims/complex_08_A_b.gif","","","","",""
"","null","html-keyboard-response","80","584826","0.0-19.0-0.5","SS1619125619115","","","null","","","","","","<p><img src= images/blank.png width =""600"" height = ""600"" style=""position:fixed;top:50%; left:50%; transform: translate(-50%, -50%); border:5px solid black"">","","","","","","","",""
"","986.479999992298","sequential-stimulus-presentation-old","81","586315","0.0-19.0-1.5","SS1619125619115","trial","","40","500","1486.479999992298","images/stimuli/spore_stims/complex_19_A_a.gif","images/stimuli/spore_stims/complex_08_A_b.gif","forced_short","","5","complex_dissimilar","images/stimuli/spore_stims/complex_08_A_b.gif","","","","",""
"","2760.5550000153016","survey-multi-choice","82","589077","0.0-20.0","SS1619125619115","math_question","","","","","","","","","","","","{""Q0"":""5""}","[0]","5","",""
"","null","html-keyboard-response","83","590072","0.0-21.0-0.0","SS1619125619115","","","null","","","","","","<p><img src= images/blank.png width =""600"" height = ""600"" style=""position:fixed;top:50%; left:50%; transform: translate(-50%, -50%); border:5px solid black"">","","","","","","","",""
"","700.459999992745","sequential-stimulus-presentation-old","84","600775","0.0-21.0-1.0","SS1619125619115","trial","","40","500","1200.459999992745","images/stimuli/spore_stims/simple_17_A_a.gif","images/stimuli/spore_stims/simple_16_A_b.gif","forced_long","","6","simple_dissimilar","images/stimuli/spore_stims/simple_16_A_b.gif","","","","",""
"","null","html-keyboard-response","85","602054","0.0-21.0-0.1","SS1619125619115","","","null","","","","","","<p><img src= images/blank.png width =""600"" height = ""600"" style=""position:fixed;top:50%; left:50%; transform: translate(-50%, -50%); border:5px solid black"">","","","","","","","",""
"","660.3749999776483","sequential-stimulus-presentation-old","86","603228","0.0-21.0-1.1","SS1619125619115","trial","","40","500","1160.3749999776483","images/stimuli/spore_stims/simple_17_A_a.gif","images/stimuli/spore_stims/simple_16_A_b.gif","forced_long","","6","simple_dissimilar","images/stimuli/spore_stims/simple_16_A_b.gif","","","","",""
"","null","html-keyboard-response","87","604097","0.0-21.0-0.2","SS1619125619115","","","null","","","","","","<p><img src= images/blank.png width =""600"" height = ""600"" style=""position:fixed;top:50%; left:50%; transform: translate(-50%, -50%); border:5px solid black"">","","","","","","","",""
"","1286.5850000234786","sequential-stimulus-presentation-old","88","605886","0.0-21.0-1.2","SS1619125619115","trial","","40","500","1786.5850000234786","images/stimuli/spore_stims/simple_17_A_a.gif","images/stimuli/spore_stims/simple_16_A_b.gif","forced_long","","6","simple_dissimilar","images/stimuli/spore_stims/simple_16_A_b.gif","","","","",""
"","null","html-keyboard-response","89","607018","0.0-21.0-0.3","SS1619125619115","","","null","","","","","","<p><img src= images/blank.png width =""600"" height = ""600"" style=""position:fixed;top:50%; left:50%; transform: translate(-50%, -50%); border:5px solid black"">","","","","","","","",""
"","851.5349999943282","sequential-stimulus-presentation-old","90","608373","0.0-21.0-1.3","SS1619125619115","trial","","40","500","1351.5349999943282","images/stimuli/spore_stims/simple_17_A_a.gif","images/stimuli/spore_stims/simple_16_A_b.gif","forced_long","","6","simple_dissimilar","images/stimuli/spore_stims/simple_16_A_b.gif","","","","",""
"","null","html-keyboard-response","91","609671","0.0-21.0-0.4","SS1619125619115","","","null","","","","","","<p><img src= images/blank.png width =""600"" height = ""600"" style=""position:fixed;top:50%; left:50%; transform: translate(-50%, -50%); border:5px solid black"">","","","","","","","",""
"","622.6150000002235","sequential-stimulus-presentation-old","92","610797","0.0-21.0-1.4","SS1619125619115","trial","","40","500","1122.6150000002235","images/stimuli/spore_stims/simple_17_A_a.gif","images/stimuli/spore_stims/simple_16_A_b.gif","forced_long","","6","simple_dissimilar","images/stimuli/spore_stims/simple_16_A_b.gif","","","","",""
"","null","html-keyboard-response","93","611799","0.0-21.0-0.5","SS1619125619115","","","null","","","","","","<p><img src= images/blank.png width =""600"" height = ""600"" style=""position:fixed;top:50%; left:50%; transform: translate(-50%, -50%); border:5px solid black"">","","","","","","","",""
"","1120.360000000801","sequential-stimulus-presentation-old","94","613421","0.0-21.0-1.5","SS1619125619115","trial","","40","500","1620.360000000801","images/stimuli/spore_stims/simple_17_A_a.gif","images/stimuli/spore_stims/simple_16_A_b.gif","forced_long","","6","simple_dissimilar","images/stimuli/spore_stims/simple_16_A_b.gif","","","","",""
"","7208.775000006426","survey-multi-choice","95","620631","0.0-22.0","SS1619125619115","math_question","","","","","","","","","","","","{""Q0"":""7""}","[0]","7","",""
"","null","html-keyboard-response","96","621755","0.0-23.0-0.0","SS1619125619115","","","null","","","","","","<p><img src= images/blank.png width =""600"" height = ""600"" style=""position:fixed;top:50%; left:50%; transform: translate(-50%, -50%); border:5px solid black"">","","","","","","","",""
"","366.5800000017043","sequential-stimulus-presentation-old","97","632124","0.0-23.0-1.0","SS1619125619115","trial","","40","500","866.5800000017043","images/stimuli/spore_stims/simple_02_A_b.gif","images/stimuli/spore_stims/simple_05_A_a.gif","forced_long","","7","simple_dissimilar","images/stimuli/spore_stims/simple_05_A_a.gif","","","","",""
"","null","html-keyboard-response","98","633249","0.0-23.0-0.1","SS1619125619115","","","null","","","","","","<p><img src= images/blank.png width =""600"" height = ""600"" style=""position:fixed;top:50%; left:50%; transform: translate(-50%, -50%); border:5px solid black"">","","","","","","","",""
"","323.56499999877997","sequential-stimulus-presentation-old","99","634075","0.0-23.0-1.1","SS1619125619115","trial","","40","500","823.56499999878","images/stimuli/spore_stims/simple_02_A_b.gif","images/stimuli/spore_stims/simple_05_A_a.gif","forced_long","","7","simple_dissimilar","images/stimuli/spore_stims/simple_05_A_a.gif","","","","",""
"","null","html-keyboard-response","100","635148","0.0-23.0-0.2","SS1619125619115","","","null","","","","","","<p><img src= images/blank.png width =""600"" height = ""600"" style=""position:fixed;top:50%; left:50%; transform: translate(-50%, -50%); border:5px solid black"">","","","","","","","",""
"","1642.3899999936111","sequential-stimulus-presentation-old","101","637292","0.0-23.0-1.2","SS1619125619115","trial","","40","500","2142.389999993611","images/stimuli/spore_stims/simple_02_A_b.gif","images/stimuli/spore_stims/simple_05_A_a.gif","forced_long","","7","simple_dissimilar","images/stimuli/spore_stims/simple_05_A_a.gif","","","","",""
"","null","html-keyboard-response","102","638324","0.0-23.0-0.3","SS1619125619115","","","null","","","","","","<p><img src= images/blank.png width =""600"" height = ""600"" style=""position:fixed;top:50%; left:50%; transform: translate(-50%, -50%); border:5px solid black"">","","","","","","","",""
"","1482.2500000009313","sequential-stimulus-presentation-old","103","640309","0.0-23.0-1.3","SS1619125619115","trial","","40","500","1982.2500000009313","images/stimuli/spore_stims/simple_02_A_b.gif","images/stimuli/spore_stims/simple_05_A_a.gif","forced_long","","7","simple_dissimilar","images/stimuli/spore_stims/simple_05_A_a.gif","","","","",""
"","2780.5499999958556","survey-multi-choice","104","643091","0.0-24.0","SS1619125619115","math_question","","","","","","","","","","","","{""Q0"":""6""}","[0]","6","",""
"","null","html-keyboard-response","105","644273","0.0-25.0-0.0","SS1619125619115","","","null","","","","","","<p><img src= images/blank.png width =""600"" height = ""600"" style=""position:fixed;top:50%; left:50%; transform: translate(-50%, -50%); border:5px solid black"">","","","","","","","",""
"","981.6100000170991","sequential-stimulus-presentation-old","106","645357","0.0-25.0-1.0","SS1619125619115","trial","","40","500","1481.610000017099","images/stimuli/spore_stims/simple_20_A_a.gif","images/stimuli/spore_stims/simple_04_A_b.gif","forced_short","","8","simple_dissimilar","images/stimuli/spore_stims/simple_04_A_b.gif","","","","",""
"","null","html-keyboard-response","107","646356","0.0-25.0-0.1","SS1619125619115","","","null","","","","","","<p><img src= images/blank.png width =""600"" height = ""600"" style=""position:fixed;top:50%; left:50%; transform: translate(-50%, -50%); border:5px solid black"">","","","","","","","",""
"","221.42000001622364","sequential-stimulus-presentation-old","108","647080","0.0-25.0-1.1","SS1619125619115","trial","","40","500","721.4200000162236","images/stimuli/spore_stims/simple_20_A_a.gif","images/stimuli/spore_stims/simple_04_A_b.gif","forced_short","","8","simple_dissimilar","images/stimuli/spore_stims/simple_04_A_b.gif","","","","",""
"","null","html-keyboard-response","109","648274","0.0-25.0-0.2","SS1619125619115","","","null","","","","","","<p><img src= images/blank.png width =""600"" height = ""600"" style=""position:fixed;top:50%; left:50%; transform: translate(-50%, -50%); border:5px solid black"">","","","","","","","",""
"","757.4150000000373","sequential-stimulus-presentation-old","110","649533","0.0-25.0-1.2","SS1619125619115","trial","","40","500","1257.4150000000373","images/stimuli/spore_stims/simple_20_A_a.gif","images/stimuli/spore_stims/simple_04_A_b.gif","forced_short","","8","simple_dissimilar","images/stimuli/spore_stims/simple_04_A_b.gif","","","","",""
"","null","html-keyboard-response","111","650589","0.0-25.0-0.3","SS1619125619115","","","null","","","","","","<p><img src= images/blank.png width =""600"" height = ""600"" style=""position:fixed;top:50%; left:50%; transform: translate(-50%, -50%); border:5px solid black"">","","","","","","","",""
"","1043.504999979632","sequential-stimulus-presentation-old","112","652134","0.0-25.0-1.3","SS1619125619115","trial","","40","500","1543.504999979632","images/stimuli/spore_stims/simple_20_A_a.gif","images/stimuli/spore_stims/simple_04_A_b.gif","forced_short","","8","simple_dissimilar","images/stimuli/spore_stims/simple_04_A_b.gif","","","","",""
"","null","html-keyboard-response","113","653132","0.0-25.0-0.4","SS1619125619115","","","null","","","","","","<p><img src= images/blank.png width =""600"" height = ""600"" style=""position:fixed;top:50%; left:50%; transform: translate(-50%, -50%); border:5px solid black"">","","","","","","","",""
"","906.440000020666","sequential-stimulus-presentation-old","114","654540","0.0-25.0-1.4","SS1619125619115","trial","","40","500","1406.440000020666","images/stimuli/spore_stims/simple_20_A_a.gif","images/stimuli/spore_stims/simple_04_A_b.gif","forced_short","","8","simple_dissimilar","images/stimuli/spore_stims/simple_04_A_b.gif","","","","",""
"","null","html-keyboard-response","115","655454","0.0-25.0-0.5","SS1619125619115","","","null","","","","","","<p><img src= images/blank.png width =""600"" height = ""600"" style=""position:fixed;top:50%; left:50%; transform: translate(-50%, -50%); border:5px solid black"">","","","","","","","",""
"","1151.6699999920093","sequential-stimulus-presentation-old","116","657107","0.0-25.0-1.5","SS1619125619115","trial","","40","500","1651.6699999920093","images/stimuli/spore_stims/simple_20_A_a.gif","images/stimuli/spore_stims/simple_04_A_b.gif","forced_short","","8","simple_dissimilar","images/stimuli/spore_stims/simple_04_A_b.gif","","","","",""
"","2972.159999975702","survey-multi-choice","117","660081","0.0-26.0","SS1619125619115","math_question","","","","","","","","","","","","{""Q0"":""5""}","[0]","5","",""
"","null","html-keyboard-response","118","661305","0.0-27.0-0.0","SS1619125619115","","","null","","","","","","<p><img src= images/blank.png width =""600"" height = ""600"" style=""position:fixed;top:50%; left:50%; transform: translate(-50%, -50%); border:5px solid black"">","","","","","","","",""
"","741.5299999993294","sequential-stimulus-presentation-old","119","662149","0.0-27.0-1.0","SS1619125619115","trial","","40","500","1241.5299999993294","images/stimuli/spore_stims/complex_16_A_b.gif","images/stimuli/spore_stims/complex_18_A_a.gif","forced_short","","9","complex_dissimilar","images/stimuli/spore_stims/complex_18_A_a.gif","","","","",""
"","null","html-keyboard-response","120","662963","0.0-27.0-0.1","SS1619125619115","","","null","","","","","","<p><img src= images/blank.png width =""600"" height = ""600"" style=""position:fixed;top:50%; left:50%; transform: translate(-50%, -50%); border:5px solid black"">","","","","","","","",""
"","1296.5550000080839","sequential-stimulus-presentation-old","121","664761","0.0-27.0-1.1","SS1619125619115","trial","","40","500","1796.5550000080839","images/stimuli/spore_stims/complex_16_A_b.gif","images/stimuli/spore_stims/complex_18_A_a.gif","forced_short","","9","complex_dissimilar","images/stimuli/spore_stims/complex_16_A_b.gif","","","","",""
"","null","html-keyboard-response","122","665953","0.0-27.0-0.2","SS1619125619115","","","null","","","","","","<p><img src= images/blank.png width =""600"" height = ""600"" style=""position:fixed;top:50%; left:50%; transform: translate(-50%, -50%); border:5px solid black"">","","","","","","","",""
"","3695.7650000113063","sequential-stimulus-presentation-old","123","670151","0.0-27.0-1.2","SS1619125619115","trial","","40","500","4195.765000011306","images/stimuli/spore_stims/complex_16_A_b.gif","images/stimuli/spore_stims/complex_18_A_a.gif","forced_short","","9","complex_dissimilar","images/stimuli/spore_stims/complex_18_A_a.gif","","","","",""
"","null","html-keyboard-response","124","670969","0.0-27.0-0.3","SS1619125619115","","","null","","","","","","<p><img src= images/blank.png width =""600"" height = ""600"" style=""position:fixed;top:50%; left:50%; transform: translate(-50%, -50%); border:5px solid black"">","","","","","","","",""
"","533.5100000083912","sequential-stimulus-presentation-old","125","672005","0.0-27.0-1.3","SS1619125619115","trial","","40","500","1033.5100000083912","images/stimuli/spore_stims/complex_16_A_b.gif","images/stimuli/spore_stims/complex_18_A_a.gif","forced_short","","9","complex_dissimilar","images/stimuli/spore_stims/complex_18_A_a.gif","","","","",""
"","null","html-keyboard-response","126","673151","0.0-27.0-0.4","SS1619125619115","","","null","","","","","","<p><img src= images/blank.png width =""600"" height = ""600"" style=""position:fixed;top:50%; left:50%; transform: translate(-50%, -50%); border:5px solid black"">","","","","","","","",""
"","3231.520000001183","sequential-stimulus-presentation-old","127","676887","0.0-27.0-1.4","SS1619125619115","trial","","40","500","3731.520000001183","images/stimuli/spore_stims/complex_16_A_b.gif","images/stimuli/spore_stims/complex_18_A_a.gif","forced_short","","9","complex_dissimilar","images/stimuli/spore_stims/complex_16_A_b.gif","","","","",""
"","3977.3299999942537","survey-multi-choice","128","680866","0.0-28.0","SS1619125619115","math_question","","","","","","","","","","","","{""Q0"":""13""}","[0]","13","",""
"","null","html-keyboard-response","129","682091","0.0-29.0-0.0","SS1619125619115","","","null","","","","","","<p><img src= images/blank.png width =""600"" height = ""600"" style=""position:fixed;top:50%; left:50%; transform: translate(-50%, -50%); border:5px solid black"">","","","","","","","",""
"","384.5750000036787","sequential-stimulus-presentation-old","130","692486","0.0-29.0-1.0","SS1619125619115","trial","","40","500","884.5750000036787","images/stimuli/spore_stims/complex_12_A_b.gif","images/stimuli/spore_stims/complex_17_A_a.gif","forced_long","","10","complex_dissimilar","images/stimuli/spore_stims/complex_17_A_a.gif","","","","",""
"","null","html-keyboard-response","131","693487","0.0-29.0-0.1","SS1619125619115","","","null","","","","","","<p><img src= images/blank.png width =""600"" height = ""600"" style=""position:fixed;top:50%; left:50%; transform: translate(-50%, -50%); border:5px solid black"">","","","","","","","",""
"","1045.4999999783468","sequential-stimulus-presentation-old","132","695036","0.0-29.0-1.1","SS1619125619115","trial","","40","500","1545.4999999783468","images/stimuli/spore_stims/complex_12_A_b.gif","images/stimuli/spore_stims/complex_17_A_a.gif","forced_long","","10","complex_dissimilar","images/stimuli/spore_stims/complex_17_A_a.gif","","","","",""
"","null","html-keyboard-response","133","695936","0.0-29.0-0.2","SS1619125619115","","","null","","","","","","<p><img src= images/blank.png width =""600"" height = ""600"" style=""position:fixed;top:50%; left:50%; transform: translate(-50%, -50%); border:5px solid black"">","","","","","","","",""
"","780.4949999845121","sequential-stimulus-presentation-old","134","697220","0.0-29.0-1.2","SS1619125619115","trial","","40","500","1280.494999984512","images/stimuli/spore_stims/complex_12_A_b.gif","images/stimuli/spore_stims/complex_17_A_a.gif","forced_long","","10","complex_dissimilar","images/stimuli/spore_stims/complex_17_A_a.gif","","","","",""
"","null","html-keyboard-response","135","698295","0.0-29.0-0.3","SS1619125619115","","","null","","","","","","<p><img src= images/blank.png width =""600"" height = ""600"" style=""position:fixed;top:50%; left:50%; transform: translate(-50%, -50%); border:5px solid black"">","","","","","","","",""
"","1867.5349999975879","sequential-stimulus-presentation-old","136","700666","0.0-29.0-1.3","SS1619125619115","trial","","40","500","2367.534999997588","images/stimuli/spore_stims/complex_12_A_b.gif","images/stimuli/spore_stims/complex_17_A_a.gif","forced_long","","10","complex_dissimilar","images/stimuli/spore_stims/complex_17_A_a.gif","","","","",""
"","4500.154999986989","survey-multi-choice","137","705168","0.0-30.0","SS1619125619115","math_question","","","","","","","","","","","","{""Q0"":""10""}","[0]","10","",""
"","null","html-keyboard-response","138","706311","0.0-31.0-0.0","SS1619125619115","","","null","","","","","","<p><img src= images/blank.png width =""600"" height = ""600"" style=""position:fixed;top:50%; left:50%; transform: translate(-50%, -50%); border:5px solid black"">","","","","","","","",""
"","125.44000000343658","sequential-stimulus-presentation-old","139","706940","0.0-31.0-1.0","SS1619125619115","trial","","40","500","625.4400000034366","images/stimuli/spore_stims/simple_11_A_a.gif","images/stimuli/spore_stims/simple_10_A_b.gif","self_paced","","11","simple_dissimilar","images/stimuli/spore_stims/simple_10_A_b.gif","","","","",""
"","null","html-keyboard-response","140","708027","0.0-31.0-0.1","SS1619125619115","","","null","","","","","","<p><img src= images/blank.png width =""600"" height = ""600"" style=""position:fixed;top:50%; left:50%; transform: translate(-50%, -50%); border:5px solid black"">","","","","","","","",""
"","52.59499998646788","sequential-stimulus-presentation-old","141","708583","0.0-31.0-1.1","SS1619125619115","trial","","40","500","552.5949999864679","images/stimuli/spore_stims/simple_11_A_a.gif","images/stimuli/spore_stims/simple_10_A_b.gif","self_paced","","11","simple_dissimilar","images/stimuli/spore_stims/simple_10_A_b.gif","","","","",""
"","null","html-keyboard-response","142","709582","0.0-31.0-0.2","SS1619125619115","","","null","","","","","","<p><img src= images/blank.png width =""600"" height = ""600"" style=""position:fixed;top:50%; left:50%; transform: translate(-50%, -50%); border:5px solid black"">","","","","","","","",""
"","26.389999984530732","sequential-stimulus-presentation-old","143","710112","0.0-31.0-1.2","SS1619125619115","trial","","40","500","526.3899999845307","images/stimuli/spore_stims/simple_11_A_a.gif","images/stimuli/spore_stims/simple_10_A_b.gif","self_paced","","11","simple_dissimilar","images/stimuli/spore_stims/simple_10_A_b.gif","","","","",""
"","null","html-keyboard-response","144","711205","0.0-31.0-0.3","SS1619125619115","","","null","","","","","","<p><img src= images/blank.png width =""600"" height = ""600"" style=""position:fixed;top:50%; left:50%; transform: translate(-50%, -50%); border:5px solid black"">","","","","","","","",""
"","23.50999999907799","sequential-stimulus-presentation-old","145","711732","0.0-31.0-1.3","SS1619125619115","trial","","40","500","523.509999999078","images/stimuli/spore_stims/simple_11_A_a.gif","images/stimuli/spore_stims/simple_10_A_b.gif","self_paced","","11","simple_dissimilar","images/stimuli/spore_stims/simple_11_A_a.gif","","","","",""
"[{""page_index"":0,""viewing_time"":6814.320000004955}]","6814.470000012079","instructions","146","718548","0.0-32.0","SS1619125619115","instructions","","","","","","","","","","","","","","","",""
"","7760.725000000093","survey-likert","147","726311","0.0-33.0","SS1619125619115","similarity_question","","","","","","","","","","","","{""Q0"":2}","[0]","","images/stimuli/spore_stims/complex_15_A_b.gif","images/stimuli/spore_stims/complex_05_A_a.gif"
"","2219.104999996489","survey-likert","148","728533","0.0-34.0","SS1619125619115","similarity_question","","","","","","","","","","","","{""Q0"":5}","[0]","","images/stimuli/spore_stims/simple_16_A_b.gif","images/stimuli/spore_stims/simple_17_A_a.gif"
"","4652.390000002924","survey-likert","149","733188","0.0-35.0","SS1619125619115","similarity_question","","","","","","","","","","","","{""Q0"":5}","[0]","","images/stimuli/spore_stims/complex_07_A_b.gif","images/stimuli/spore_stims/complex_13_A_a.gif"
"","2330.39000001736","survey-likert","150","735521","0.0-36.0","SS1619125619115","similarity_question","","","","","","","","","","","","{""Q0"":4}","[0]","","images/stimuli/spore_stims/complex_19_A_a.gif","images/stimuli/spore_stims/complex_08_A_b.gif"
"","4291.540000005625","survey-likert","151","739815","0.0-37.0","SS1619125619115","similarity_question","","","","","","","","","","","","{""Q0"":3}","[0]","","images/stimuli/spore_stims/simple_04_A_b.gif","images/stimuli/spore_stims/simple_20_A_a.gif"
"","3032.309999980498","survey-likert","152","742850","0.0-38.0","SS1619125619115","similarity_question","","","","","","","","","","","","{""Q0"":3}","[0]","","images/stimuli/spore_stims/complex_12_A_b.gif","images/stimuli/spore_stims/complex_17_A_a.gif"
"","2231.0949999955483","survey-likert","153","745084","0.0-39.0","SS1619125619115","similarity_question","","","","","","","","","","","","{""Q0"":4}","[0]","","images/stimuli/spore_stims/simple_02_A_a.gif","images/stimuli/spore_stims/simple_19_A_b.gif"
"","2836.509999993723","survey-likert","154","747923","0.0-40.0","SS1619125619115","similarity_question","","","","","","","","","","","","{""Q0"":4}","[0]","","images/stimuli/spore_stims/complex_16_A_b.gif","images/stimuli/spore_stims/complex_18_A_a.gif"
"","3068.329999980051","survey-likert","155","750994","0.0-41.0","SS1619125619115","similarity_question","","","","","","","","","","","","{""Q0"":6}","[0]","","images/stimuli/spore_stims/simple_02_A_b.gif","images/stimuli/spore_stims/simple_05_A_a.gif"
"","2638.3700000005774","survey-likert","156","753635","0.0-42.0","SS1619125619115","similarity_question","","","","","","","","","","","","{""Q0"":4}","[0]","","images/stimuli/spore_stims/complex_03_A_b.gif","images/stimuli/spore_stims/complex_14_A_a.gif"
"","2070.705000020098","survey-likert","157","755708","0.0-43.0","SS1619125619115","similarity_question","","","","","","","","","","","","{""Q0"":2}","[0]","","images/stimuli/spore_stims/simple_10_A_b.gif","images/stimuli/spore_stims/simple_11_A_a.gif"
"","2992.324999999255","survey-likert","158","758703","0.0-44.0","SS1619125619115","similarity_question","","","","","","","","","","","","{""Q0"":2}","[0]","","images/stimuli/spore_stims/simple_15_A_a.gif","images/stimuli/spore_stims/simple_03_A_b.gif"
"[{""page_index"":0,""viewing_time"":8234.480000013718}]","8234.62999999174","instructions","159","766940","0.0-45.0","SS1619125619115","instructions","","","","","","","","","","","","","","","",""
"","3944.794999988517","survey-likert","160","770887","0.0-46.0","SS1619125619115","","","","","","","","","images/stimuli/spore_stims/complex_08_A_b.gif","","","","{""Q0"":5}","[0]","","",""
"","2934.1199999907985","survey-likert","161","773824","0.0-47.0","SS1619125619115","","","","","","","","","images/stimuli/spore_stims/complex_12_A_b.gif","","","","{""Q0"":6}","[0]","","",""
"","1768.450000003213","survey-likert","162","775595","0.0-48.0","SS1619125619115","","","","","","","","","images/stimuli/spore_stims/simple_02_A_b.gif","","","","{""Q0"":0}","[0]","","",""
"","2065.340000001015","survey-likert","163","777663","0.0-49.0","SS1619125619115","","","","","","","","","images/stimuli/spore_stims/simple_11_A_a.gif","","","","{""Q0"":1}","[0]","","",""
"","2866.634999983944","survey-likert","164","780532","0.0-50.0","SS1619125619115","","","","","","","","","images/stimuli/spore_stims/simple_04_A_b.gif","","","","{""Q0"":0}","[0]","","",""
"","2133.124999993015","survey-likert","165","782668","0.0-51.0","SS1619125619115","","","","","","","","","images/stimuli/spore_stims/complex_14_A_a.gif","","","","{""Q0"":5}","[0]","","",""
"","2143.244999984745","survey-likert","166","784814","0.0-52.0","SS1619125619115","","","","","","","","","images/stimuli/spore_stims/simple_03_A_b.gif","","","","{""Q0"":0}","[0]","","",""
"","2364.53000002075","survey-likert","167","787181","0.0-53.0","SS1619125619115","","","","","","","","","images/stimuli/spore_stims/complex_15_A_b.gif","","","","{""Q0"":5}","[0]","","",""
"","1686.069999996107","survey-likert","168","788870","0.0-54.0","SS1619125619115","","","","","","","","","images/stimuli/spore_stims/simple_16_A_b.gif","","","","{""Q0"":0}","[0]","","",""
"","2129.1249999776483","survey-likert","169","791002","0.0-55.0","SS1619125619115","","","","","","","","","images/stimuli/spore_stims/simple_19_A_b.gif","","","","{""Q0"":2}","[0]","","",""
"","2849.2799999949057","survey-likert","170","793854","0.0-56.0","SS1619125619115","","","","","","","","","images/stimuli/spore_stims/complex_18_A_a.gif","","","","{""Q0"":6}","[0]","","",""
"","2477.2249999805354","survey-likert","171","796334","0.0-57.0","SS1619125619115","","","","","","","","","images/stimuli/spore_stims/complex_07_A_b.gif","","","","{""Q0"":6}","[0]","","",""
"[{""page_index"":0,""viewing_time"":2745.324999996228}]","2745.4800000123214","instructions","172","799082","0.0-58.0","SS1619125619115","instructions","","","","","","","","","","","","","","","",""
"","2814.125000004424","demog-age","173","801899","0.0-59.0","SS1619125619115","","","","","","","","","","","","","{""age"":""19""}","","","",""
"","4949.259999993956","demog-ethnic-US","174","806853","0.0-60.0","SS1619125619115","","","","","","","","","","","","","{""ethnicity"":[""White""]}","[0]","","",""
"","12090.844999998808","demog-gender-and-education","175","818947","0.0-61.0","SS1619125619115","","","","","","","","","","","","","{""gender"":""Male"",""education"":""Some high school""}","[0,1]","","",""
"","25661.7350000015","survey-text","176","844611","0.0-62.0","SS1619125619115","feedback","","","","","","","","","","","","{""Q0"":""I couldn't enter experiment at first but I managed to enter.""}","","","",""
"[{""page_index"":0,""viewing_time"":1954.360000003362}]","1954.5000000216532","instructions","177","846568","0.0-63.0","SS1619125619115","instructions","","","","","","","","","","","","","","","",""
